{"rt": "33812.0", "trial_number": "0", "skipped": "False", "complete": "True", "assignment": "3AZHRG4CU5SYU12YRVPCSZALW5003R", "start_time": "1.51630448249e+12", "human_length": "19", "nodes_expanded": "999", "instance": "prb11647", "end_time": "1.5163045163e+12", "optimal_length": "7", "subject": "ARWF605I7RWM7"}
{"rt": "70104.0", "trial_number": "0", "skipped": "False", "complete": "True", "assignment": "3AZHRG4CU5SYU12YRVPCSZALW5003R", "start_time": "1.5163045177e+12", "human_length": "33", "nodes_expanded": "999", "instance": "prb38725", "end_time": "1.51630458781e+12", "optimal_length": "14", "subject": "ARWF605I7RWM7"}
{"rt": "13539.0", "trial_number": "0", "skipped": "False", "complete": "True", "assignment": "3AZHRG4CU5SYU12YRVPCSZALW5003R", "start_time": "1.5163045886e+12", "human_length": "12", "nodes_expanded": "999", "instance": "prb38526", "end_time": "1.51630460214e+12", "optimal_length": "11", "subject": "ARWF605I7RWM7"}
{"rt": "84160.0", "trial_number": "0", "skipped": "False", "complete": "True", "assignment": "3AZHRG4CU5SYU12YRVPCSZALW5003R", "start_time": "1.51630460285e+12", "human_length": "61", "nodes_expanded": "999", "instance": "prb29585", "end_time": "1.51630468701e+12", "optimal_length": "14", "subject": "ARWF605I7RWM7"}
{"rt": "59297.0", "trial_number": "0", "skipped": "False", "complete": "True", "assignment": "3AZHRG4CU5SYU12YRVPCSZALW5003R", "start_time": "1.51630468771e+12", "human_length": "51", "nodes_expanded": "999", "instance": "prb24227", "end_time": "1.51630474701e+12", "optimal_length": "16", "subject": "ARWF605I7RWM7"}
{"rt": "402343.0", "trial_number": "0", "skipped": "False", "complete": "True", "assignment": "3AZHRG4CU5SYU12YRVPCSZALW5003R", "start_time": "1.51630474776e+12", "human_length": "113", "nodes_expanded": "999", "instance": "prb33117", "end_time": "1.5163051501e+12", "optimal_length": "14", "subject": "ARWF605I7RWM7"}
{"rt": "338331.0", "trial_number": "0", "skipped": "False", "complete": "True", "assignment": "3AZHRG4CU5SYU12YRVPCSZALW5003R", "start_time": "1.51630515078e+12", "human_length": "154", "nodes_expanded": "999", "instance": "prb3217", "end_time": "1.51630548911e+12", "optimal_length": "11", "subject": "ARWF605I7RWM7"}
{"rt": "41204.0", "trial_number": "0", "skipped": "False", "complete": "True", "assignment": "3AZHRG4CU5SYU12YRVPCSZALW5003R", "start_time": "1.51630548986e+12", "human_length": "26", "nodes_expanded": "999", "instance": "prb45893", "end_time": "1.51630553107e+12", "optimal_length": "16", "subject": "ARWF605I7RWM7"}
{"rt": "57632.0", "trial_number": "0", "skipped": "False", "complete": "True", "assignment": "3AZHRG4CU5SYU12YRVPCSZALW5003R", "start_time": "1.51630553176e+12", "human_length": "57", "nodes_expanded": "999", "instance": "prb44171", "end_time": "1.5163055894e+12", "optimal_length": "16", "subject": "ARWF605I7RWM7"}
{"rt": "8355.0", "trial_number": "0", "skipped": "False", "complete": "True", "assignment": "3AZHRG4CU5SYU12YRVPCSZALW5003R", "start_time": "1.51630559011e+12", "human_length": "9", "nodes_expanded": "999", "instance": "prb1707", "end_time": "1.51630559847e+12", "optimal_length": "7", "subject": "ARWF605I7RWM7"}
{"rt": "428393.0", "trial_number": "0", "skipped": "False", "complete": "True", "assignment": "3AZHRG4CU5SYU12YRVPCSZALW5003R", "start_time": "1.51630559905e+12", "human_length": "181", "nodes_expanded": "999", "instance": "prb25861", "end_time": "1.51630602744e+12", "optimal_length": "16", "subject": "ARWF605I7RWM7"}
{"rt": "13404.0", "trial_number": "0", "skipped": "False", "complete": "True", "assignment": "3AZHRG4CU5SYU12YRVPCSZALW5003R", "start_time": "1.51630602816e+12", "human_length": "15", "nodes_expanded": "999", "instance": "prb34092", "end_time": "1.51630604156e+12", "optimal_length": "11", "subject": "ARWF605I7RWM7"}
{"rt": "207126.0", "trial_number": "0", "skipped": "False", "complete": "True", "assignment": "3AZHRG4CU5SYU12YRVPCSZALW5003R", "start_time": "1.51630604225e+12", "human_length": "202", "nodes_expanded": "999", "instance": "prb1267", "end_time": "1.51630624938e+12", "optimal_length": "16", "subject": "ARWF605I7RWM7"}
{"rt": "13127.0", "trial_number": "0", "skipped": "False", "complete": "True", "assignment": "3AZHRG4CU5SYU12YRVPCSZALW5003R", "start_time": "1.51630624998e+12", "human_length": "11", "nodes_expanded": "999", "instance": "prb29414", "end_time": "1.51630626311e+12", "optimal_length": "11", "subject": "ARWF605I7RWM7"}
{"rt": "195317.0", "trial_number": "0", "skipped": "False", "complete": "True", "assignment": "3AZHRG4CU5SYU12YRVPCSZALW5003R", "start_time": "1.5163062636e+12", "human_length": "144", "nodes_expanded": "999", "instance": "prb15595", "end_time": "1.51630645891e+12", "optimal_length": "16", "subject": "ARWF605I7RWM7"}
{"rt": "81352.0", "trial_number": "0", "skipped": "False", "complete": "True", "assignment": "3AZHRG4CU5SYU12YRVPCSZALW5003R", "start_time": "1.51630645947e+12", "human_length": "67", "nodes_expanded": "999", "instance": "prb54506", "end_time": "1.51630654082e+12", "optimal_length": "16", "subject": "ARWF605I7RWM7"}
{"rt": "27011.0", "trial_number": "0", "skipped": "False", "complete": "True", "assignment": "3AZHRG4CU5SYU12YRVPCSZALW5003R", "start_time": "1.51630654137e+12", "human_length": "32", "nodes_expanded": "999", "instance": "prb48146", "end_time": "1.51630656838e+12", "optimal_length": "16", "subject": "ARWF605I7RWM7"}
{"rt": "28265.0", "trial_number": "0", "skipped": "False", "complete": "True", "assignment": "3AZHRG4CU5SYU12YRVPCSZALW5003R", "start_time": "1.51630656898e+12", "human_length": "28", "nodes_expanded": "999", "instance": "prb12715", "end_time": "1.51630659725e+12", "optimal_length": "11", "subject": "ARWF605I7RWM7"}
{"rt": "166095.0", "trial_number": "0", "skipped": "False", "complete": "True", "assignment": "3AZHRG4CU5SYU12YRVPCSZALW5003R", "start_time": "1.51630659783e+12", "human_length": "149", "nodes_expanded": "999", "instance": "prb20888", "end_time": "1.51630676392e+12", "optimal_length": "14", "subject": "ARWF605I7RWM7"}
{"rt": "42014.0", "trial_number": "0", "skipped": "False", "complete": "True", "assignment": "3AZHRG4CU5SYU12YRVPCSZALW5003R", "start_time": "1.51630676465e+12", "human_length": "35", "nodes_expanded": "999", "instance": "prb62015", "end_time": "1.51630680666e+12", "optimal_length": "11", "subject": "ARWF605I7RWM7"}
{"rt": "132979.0", "trial_number": "0", "skipped": "False", "complete": "True", "assignment": "3AZHRG4CU5SYU12YRVPCSZALW5003R", "start_time": "1.51630680778e+12", "human_length": "140", "nodes_expanded": "999", "instance": "prb78361", "end_time": "1.51630694076e+12", "optimal_length": "16", "subject": "ARWF605I7RWM7"}
{"rt": "246601.0", "trial_number": "0", "skipped": "False", "complete": "True", "assignment": "3AZHRG4CU5SYU12YRVPCSZALW5003R", "start_time": "1.51630694188e+12", "human_length": "8", "nodes_expanded": "999", "instance": "prb23259", "end_time": "1.51630718848e+12", "optimal_length": "7", "subject": "ARWF605I7RWM7"}
{"rt": "27353.0", "trial_number": "0", "skipped": "False", "complete": "True", "assignment": "3AZHRG4CU5SYU12YRVPCSZALW5003R", "start_time": "1.51630718898e+12", "human_length": "29", "nodes_expanded": "999", "instance": "prb55384", "end_time": "1.51630721634e+12", "optimal_length": "14", "subject": "ARWF605I7RWM7"}
{"rt": "54271.0", "trial_number": "0", "skipped": "False", "complete": "True", "assignment": "3AZHRG4CU5SYU12YRVPCSZALW5003R", "start_time": "1.5163072169e+12", "human_length": "38", "nodes_expanded": "999", "instance": "prb54081", "end_time": "1.51630727117e+12", "optimal_length": "11", "subject": "ARWF605I7RWM7"}
{"rt": "14733.0", "trial_number": "0", "skipped": "False", "complete": "True", "assignment": "3AZHRG4CU5SYU12YRVPCSZALW5003R", "start_time": "1.51630727216e+12", "human_length": "15", "nodes_expanded": "999", "instance": "prb6671", "end_time": "1.5163072869e+12", "optimal_length": "14", "subject": "ARWF605I7RWM7"}
{"rt": "14063.0", "trial_number": "0", "skipped": "False", "complete": "True", "assignment": "3AZHRG4CU5SYU12YRVPCSZALW5003R", "start_time": "1.51630728753e+12", "human_length": "18", "nodes_expanded": "999", "instance": "prb25604", "end_time": "1.51630730159e+12", "optimal_length": "16", "subject": "ARWF605I7RWM7"}
{"rt": "15341.0", "trial_number": "0", "skipped": "False", "complete": "True", "assignment": "3AZHRG4CU5SYU12YRVPCSZALW5003R", "start_time": "1.51630730244e+12", "human_length": "17", "nodes_expanded": "999", "instance": "prb717", "end_time": "1.51630731778e+12", "optimal_length": "11", "subject": "ARWF605I7RWM7"}
{"rt": "67878.0", "trial_number": "0", "skipped": "False", "complete": "True", "assignment": "3AZHRG4CU5SYU12YRVPCSZALW5003R", "start_time": "1.51630731871e+12", "human_length": "81", "nodes_expanded": "999", "instance": "prb343", "end_time": "1.51630738658e+12", "optimal_length": "14", "subject": "ARWF605I7RWM7"}
{"rt": "18027.0", "trial_number": "0", "skipped": "False", "complete": "True", "assignment": "3AZHRG4CU5SYU12YRVPCSZALW5003R", "start_time": "1.51630739177e+12", "human_length": "24", "nodes_expanded": "999", "instance": "prb31907", "end_time": "1.5163074098e+12", "optimal_length": "11", "subject": "ARWF605I7RWM7"}
{"rt": "8854.0", "trial_number": "0", "skipped": "False", "complete": "True", "assignment": "3AZHRG4CU5SYU12YRVPCSZALW5003R", "start_time": "1.5163074107e+12", "human_length": "10", "nodes_expanded": "999", "instance": "prb10206", "end_time": "1.51630741955e+12", "optimal_length": "7", "subject": "ARWF605I7RWM7"}
{"rt": "17521.0", "trial_number": "0", "skipped": "False", "complete": "True", "assignment": "3AZHRG4CU5SYU12YRVPCSZALW5003R", "start_time": "1.51630742054e+12", "human_length": "18", "nodes_expanded": "999", "instance": "prb2834", "end_time": "1.51630743806e+12", "optimal_length": "7", "subject": "ARWF605I7RWM7"}
{"rt": "18704.0", "trial_number": "0", "skipped": "False", "complete": "True", "assignment": "3AZHRG4CU5SYU12YRVPCSZALW5003R", "start_time": "1.51630743867e+12", "human_length": "19", "nodes_expanded": "999", "instance": "prb42959", "end_time": "1.51630745738e+12", "optimal_length": "11", "subject": "ARWF605I7RWM7"}
{"rt": "14369.0", "trial_number": "0", "skipped": "False", "complete": "True", "assignment": "3AZHRG4CU5SYU12YRVPCSZALW5003R", "start_time": "1.51630745824e+12", "human_length": "17", "nodes_expanded": "999", "instance": "prb79230", "end_time": "1.51630747261e+12", "optimal_length": "11", "subject": "ARWF605I7RWM7"}
{"rt": "29115.0", "trial_number": "0", "skipped": "False", "complete": "True", "assignment": "3AZHRG4CU5SYU12YRVPCSZALW5003R", "start_time": "1.51630747317e+12", "human_length": "31", "nodes_expanded": "999", "instance": "prb29027", "end_time": "1.51630750229e+12", "optimal_length": "16", "subject": "ARWF605I7RWM7"}
{"rt": "14015.0", "trial_number": "0", "skipped": "False", "complete": "True", "assignment": "3AZHRG4CU5SYU12YRVPCSZALW5003R", "start_time": "1.51630750339e+12", "human_length": "17", "nodes_expanded": "999", "instance": "prb8786", "end_time": "1.5163075174e+12", "optimal_length": "7", "subject": "ARWF605I7RWM7"}
{"rt": "75294.0", "trial_number": "0", "skipped": "False", "complete": "True", "assignment": "3AZHRG4CU5SYU12YRVPCSZALW5003R", "start_time": "1.51630751844e+12", "human_length": "86", "nodes_expanded": "999", "instance": "prb46639", "end_time": "1.51630759374e+12", "optimal_length": "16", "subject": "ARWF605I7RWM7"}
{"rt": "170226.0", "trial_number": "0", "skipped": "False", "complete": "True", "assignment": "3AZHRG4CU5SYU12YRVPCSZALW5003R", "start_time": "1.51630763377e+12", "human_length": "64", "nodes_expanded": "999", "instance": "prb47495", "end_time": "1.516307804e+12", "optimal_length": "14", "subject": "ARWF605I7RWM7"}
{"rt": "30288.0", "trial_number": "0", "skipped": "False", "complete": "True", "assignment": "3AZHRG4CU5SYU12YRVPCSZALW5003R", "start_time": "1.51630780787e+12", "human_length": "39", "nodes_expanded": "999", "instance": "prb68514", "end_time": "1.51630783816e+12", "optimal_length": "14", "subject": "ARWF605I7RWM7"}
{"rt": "12784.0", "trial_number": "0", "skipped": "False", "complete": "True", "assignment": "3AZHRG4CU5SYU12YRVPCSZALW5003R", "start_time": "1.5163078403e+12", "human_length": "16", "nodes_expanded": "999", "instance": "prb28111", "end_time": "1.51630785308e+12", "optimal_length": "7", "subject": "ARWF605I7RWM7"}
{"rt": "11160.0", "trial_number": "0", "skipped": "False", "complete": "True", "assignment": "3AZHRG4CU5SYU12YRVPCSZALW5003R", "start_time": "1.51630785352e+12", "human_length": "15", "nodes_expanded": "999", "instance": "prb32795", "end_time": "1.51630786468e+12", "optimal_length": "7", "subject": "ARWF605I7RWM7"}
{"rt": "10158.0", "trial_number": "0", "skipped": "False", "complete": "True", "assignment": "3AZHRG4CU5SYU12YRVPCSZALW5003R", "start_time": "1.51630786538e+12", "human_length": "12", "nodes_expanded": "999", "instance": "prb26567", "end_time": "1.51630787554e+12", "optimal_length": "7", "subject": "ARWF605I7RWM7"}
{"rt": "10596.0", "trial_number": "0", "skipped": "False", "complete": "True", "assignment": "3AZHRG4CU5SYU12YRVPCSZALW5003R", "start_time": "1.51630787601e+12", "human_length": "14", "nodes_expanded": "999", "instance": "prb9718", "end_time": "1.51630788660e+12", "optimal_length": "11", "subject": "ARWF605I7RWM7"}
{"rt": "71450.0", "trial_number": "0", "skipped": "False", "complete": "True", "assignment": "3AZHRG4CU5SYU12YRVPCSZALW5003R", "start_time": "1.51630788753e+12", "human_length": "80", "nodes_expanded": "999", "instance": "prb14898", "end_time": "1.51630795898e+12", "optimal_length": "11", "subject": "ARWF605I7RWM7"}
{"rt": "55544.0", "trial_number": "0", "skipped": "False", "complete": "True", "assignment": "3AZHRG4CU5SYU12YRVPCSZALW5003R", "start_time": "1.51630796047e+12", "human_length": "52", "nodes_expanded": "999", "instance": "prb21272", "end_time": "1.51630801602e+12", "optimal_length": "7", "subject": "ARWF605I7RWM7"}
{"rt": "62755.0", "trial_number": "0", "skipped": "False", "complete": "True", "assignment": "3AZHRG4CU5SYU12YRVPCSZALW5003R", "start_time": "1.51630801967e+12", "human_length": "60", "nodes_expanded": "999", "instance": "prb29600", "end_time": "1.51630808242e+12", "optimal_length": "14", "subject": "ARWF605I7RWM7"}
{"rt": "13598.0", "trial_number": "0", "skipped": "False", "complete": "True", "assignment": "3AZHRG4CU5SYU12YRVPCSZALW5003R", "start_time": "1.51630808383e+12", "human_length": "15", "nodes_expanded": "999", "instance": "prb22436", "end_time": "1.51630809743e+12", "optimal_length": "11", "subject": "ARWF605I7RWM7"}
{"rt": "17103.0", "trial_number": "0", "skipped": "False", "complete": "True", "assignment": "3AZHRG4CU5SYU12YRVPCSZALW5003R", "start_time": "1.51630810035e+12", "human_length": "19", "nodes_expanded": "999", "instance": "prb23404", "end_time": "1.51630811745e+12", "optimal_length": "14", "subject": "ARWF605I7RWM7"}
{"rt": "40035.0", "trial_number": "0", "skipped": "False", "complete": "True", "assignment": "3AZHRG4CU5SYU12YRVPCSZALW5003R", "start_time": "1.51630811873e+12", "human_length": "52", "nodes_expanded": "999", "instance": "prb46580", "end_time": "1.51630815877e+12", "optimal_length": "16", "subject": "ARWF605I7RWM7"}
{"rt": "126915.0", "trial_number": "0", "skipped": "False", "complete": "True", "assignment": "3ZV9H2YQQEFR2R3JK2IXZUJPXAF3WW", "start_time": "1.5163055282e+12", "human_length": "38", "nodes_expanded": "999", "instance": "prb47495", "end_time": "1.51630565512e+12", "optimal_length": "14", "subject": "A289D98Z4GAZ28"}
{"rt": "81299.0", "trial_number": "0", "skipped": "False", "complete": "True", "assignment": "3ZV9H2YQQEFR2R3JK2IXZUJPXAF3WW", "start_time": "1.51630565998e+12", "human_length": "34", "nodes_expanded": "999", "instance": "prb717", "end_time": "1.51630574128e+12", "optimal_length": "11", "subject": "A289D98Z4GAZ28"}
{"rt": "27257.0", "trial_number": "0", "skipped": "False", "complete": "True", "assignment": "3ZV9H2YQQEFR2R3JK2IXZUJPXAF3WW", "start_time": "1.51630574242e+12", "human_length": "10", "nodes_expanded": "999", "instance": "prb14047", "end_time": "1.51630576967e+12", "optimal_length": "7", "subject": "A289D98Z4GAZ28"}
{"rt": "22618.0", "trial_number": "0", "skipped": "False", "complete": "True", "assignment": "3ZV9H2YQQEFR2R3JK2IXZUJPXAF3WW", "start_time": "1.51630577054e+12", "human_length": "13", "nodes_expanded": "999", "instance": "prb32795", "end_time": "1.51630579316e+12", "optimal_length": "7", "subject": "A289D98Z4GAZ28"}
{"rt": "403393.0", "trial_number": "0", "skipped": "False", "complete": "True", "assignment": "3ZV9H2YQQEFR2R3JK2IXZUJPXAF3WW", "start_time": "1.51630579407e+12", "human_length": "149", "nodes_expanded": "999", "instance": "prb1267", "end_time": "1.51630619746e+12", "optimal_length": "16", "subject": "A289D98Z4GAZ28"}
{"rt": "94077.0", "trial_number": "0", "skipped": "False", "complete": "True", "assignment": "3ZV9H2YQQEFR2R3JK2IXZUJPXAF3WW", "start_time": "1.51630619842e+12", "human_length": "28", "nodes_expanded": "999", "instance": "prb10166", "end_time": "1.5163062925e+12", "optimal_length": "16", "subject": "A289D98Z4GAZ28"}
{"rt": "150793.0", "trial_number": "0", "skipped": "False", "complete": "True", "assignment": "3ZV9H2YQQEFR2R3JK2IXZUJPXAF3WW", "start_time": "1.51630629375e+12", "human_length": "57", "nodes_expanded": "999", "instance": "prb25861", "end_time": "1.51630644454e+12", "optimal_length": "16", "subject": "A289D98Z4GAZ28"}
{"rt": "56072.0", "trial_number": "0", "skipped": "False", "complete": "True", "assignment": "3ZV9H2YQQEFR2R3JK2IXZUJPXAF3WW", "start_time": "1.51630644553e+12", "human_length": "33", "nodes_expanded": "999", "instance": "prb48146", "end_time": "1.5163065016e+12", "optimal_length": "16", "subject": "A289D98Z4GAZ28"}
{"rt": "20268.0", "trial_number": "0", "skipped": "False", "complete": "True", "assignment": "3ZV9H2YQQEFR2R3JK2IXZUJPXAF3WW", "start_time": "1.51630650364e+12", "human_length": "11", "nodes_expanded": "999", "instance": "prb62222", "end_time": "1.51630652391e+12", "optimal_length": "11", "subject": "A289D98Z4GAZ28"}
{"rt": "66800.0", "trial_number": "0", "skipped": "False", "complete": "True", "assignment": "3ZV9H2YQQEFR2R3JK2IXZUJPXAF3WW", "start_time": "1.51630653015e+12", "human_length": "22", "nodes_expanded": "999", "instance": "prb55384", "end_time": "1.51630659695e+12", "optimal_length": "14", "subject": "A289D98Z4GAZ28"}
{"rt": "104298.0", "trial_number": "0", "skipped": "False", "complete": "True", "assignment": "3ZV9H2YQQEFR2R3JK2IXZUJPXAF3WW", "start_time": "1.51630659788e+12", "human_length": "37", "nodes_expanded": "999", "instance": "prb44171", "end_time": "1.51630670218e+12", "optimal_length": "16", "subject": "A289D98Z4GAZ28"}
{"rt": "38302.0", "trial_number": "0", "skipped": "False", "complete": "True", "assignment": "3ZV9H2YQQEFR2R3JK2IXZUJPXAF3WW", "start_time": "1.51630670562e+12", "human_length": "12", "nodes_expanded": "999", "instance": "prb14651", "end_time": "1.51630674393e+12", "optimal_length": "7", "subject": "A289D98Z4GAZ28"}
{"rt": "26973.0", "trial_number": "0", "skipped": "False", "complete": "True", "assignment": "3ZV9H2YQQEFR2R3JK2IXZUJPXAF3WW", "start_time": "1.51630674613e+12", "human_length": "13", "nodes_expanded": "999", "instance": "prb32695", "end_time": "1.5163067731e+12", "optimal_length": "7", "subject": "A289D98Z4GAZ28"}
{"rt": "56447.0", "trial_number": "0", "skipped": "False", "complete": "True", "assignment": "3ZV9H2YQQEFR2R3JK2IXZUJPXAF3WW", "start_time": "1.51630677616e+12", "human_length": "24", "nodes_expanded": "999", "instance": "prb6671", "end_time": "1.51630683260e+12", "optimal_length": "14", "subject": "A289D98Z4GAZ28"}
{"rt": "47654.0", "trial_number": "0", "skipped": "False", "complete": "True", "assignment": "3ZV9H2YQQEFR2R3JK2IXZUJPXAF3WW", "start_time": "1.51630683813e+12", "human_length": "15", "nodes_expanded": "999", "instance": "prb38526", "end_time": "1.51630688579e+12", "optimal_length": "11", "subject": "A289D98Z4GAZ28"}
{"rt": "65804.0", "trial_number": "0", "skipped": "False", "complete": "True", "assignment": "3ZV9H2YQQEFR2R3JK2IXZUJPXAF3WW", "start_time": "1.51630688952e+12", "human_length": "28", "nodes_expanded": "999", "instance": "prb24406", "end_time": "1.51630695533e+12", "optimal_length": "16", "subject": "A289D98Z4GAZ28"}
{"rt": "186165.0", "trial_number": "0", "skipped": "False", "complete": "True", "assignment": "3ZV9H2YQQEFR2R3JK2IXZUJPXAF3WW", "start_time": "1.51630696139e+12", "human_length": "66", "nodes_expanded": "999", "instance": "prb14898", "end_time": "1.51630714756e+12", "optimal_length": "11", "subject": "A289D98Z4GAZ28"}
{"rt": "105562.0", "trial_number": "0", "skipped": "False", "complete": "True", "assignment": "3ZV9H2YQQEFR2R3JK2IXZUJPXAF3WW", "start_time": "1.51630715864e+12", "human_length": "35", "nodes_expanded": "999", "instance": "prb12715", "end_time": "1.5163072642e+12", "optimal_length": "11", "subject": "A289D98Z4GAZ28"}
{"rt": "33067.0", "trial_number": "0", "skipped": "False", "complete": "True", "assignment": "3ZV9H2YQQEFR2R3JK2IXZUJPXAF3WW", "start_time": "1.51630727131e+12", "human_length": "21", "nodes_expanded": "999", "instance": "prb19279", "end_time": "1.51630730438e+12", "optimal_length": "14", "subject": "A289D98Z4GAZ28"}
{"rt": "35105.0", "trial_number": "0", "skipped": "False", "complete": "True", "assignment": "3ZV9H2YQQEFR2R3JK2IXZUJPXAF3WW", "start_time": "1.51630732015e+12", "human_length": "9", "nodes_expanded": "999", "instance": "prb11647", "end_time": "1.51630735525e+12", "optimal_length": "7", "subject": "A289D98Z4GAZ28"}
{"rt": "18884.0", "trial_number": "0", "skipped": "False", "complete": "True", "assignment": "3ZV9H2YQQEFR2R3JK2IXZUJPXAF3WW", "start_time": "1.51630735799e+12", "human_length": "9", "nodes_expanded": "999", "instance": "prb13171", "end_time": "1.51630737687e+12", "optimal_length": "7", "subject": "A289D98Z4GAZ28"}
{"rt": "37660.0", "trial_number": "0", "skipped": "False", "complete": "True", "assignment": "3ZV9H2YQQEFR2R3JK2IXZUJPXAF3WW", "start_time": "1.51630737985e+12", "human_length": "19", "nodes_expanded": "999", "instance": "prb3203", "end_time": "1.51630741751e+12", "optimal_length": "14", "subject": "A289D98Z4GAZ28"}
{"rt": "34658.0", "trial_number": "0", "skipped": "False", "complete": "True", "assignment": "3ZV9H2YQQEFR2R3JK2IXZUJPXAF3WW", "start_time": "1.51630742753e+12", "human_length": "15", "nodes_expanded": "999", "instance": "prb38725", "end_time": "1.51630746219e+12", "optimal_length": "14", "subject": "A289D98Z4GAZ28"}
{"rt": "45627.0", "trial_number": "0", "skipped": "False", "complete": "True", "assignment": "3ZV9H2YQQEFR2R3JK2IXZUJPXAF3WW", "start_time": "1.51630747414e+12", "human_length": "17", "nodes_expanded": "999", "instance": "prb22436", "end_time": "1.51630751977e+12", "optimal_length": "11", "subject": "A289D98Z4GAZ28"}
{"rt": "41454.0", "trial_number": "0", "skipped": "False", "complete": "True", "assignment": "3ZV9H2YQQEFR2R3JK2IXZUJPXAF3WW", "start_time": "1.51630753079e+12", "human_length": "7", "nodes_expanded": "999", "instance": "prb29232", "end_time": "1.51630757224e+12", "optimal_length": "7", "subject": "A289D98Z4GAZ28"}
{"rt": "101886.0", "trial_number": "0", "skipped": "False", "complete": "True", "assignment": "3ZV9H2YQQEFR2R3JK2IXZUJPXAF3WW", "start_time": "1.51630757818e+12", "human_length": "45", "nodes_expanded": "999", "instance": "prb68910", "end_time": "1.51630768007e+12", "optimal_length": "11", "subject": "A289D98Z4GAZ28"}
{"rt": "8020.0", "trial_number": "0", "skipped": "False", "complete": "True", "assignment": "3ZV9H2YQQEFR2R3JK2IXZUJPXAF3WW", "start_time": "1.51630771289e+12", "human_length": "7", "nodes_expanded": "999", "instance": "prb10206", "end_time": "1.51630772091e+12", "optimal_length": "7", "subject": "A289D98Z4GAZ28"}
{"rt": "29514.0", "trial_number": "0", "skipped": "False", "complete": "True", "assignment": "3ZV9H2YQQEFR2R3JK2IXZUJPXAF3WW", "start_time": "1.51630773101e+12", "human_length": "12", "nodes_expanded": "999", "instance": "prb33509", "end_time": "1.51630776053e+12", "optimal_length": "11", "subject": "A289D98Z4GAZ28"}
{"rt": "20141.0", "trial_number": "0", "skipped": "False", "complete": "True", "assignment": "3ZV9H2YQQEFR2R3JK2IXZUJPXAF3WW", "start_time": "1.51630778138e+12", "human_length": "12", "nodes_expanded": "999", "instance": "prb2834", "end_time": "1.51630780152e+12", "optimal_length": "7", "subject": "A289D98Z4GAZ28"}
{"rt": "13108.0", "trial_number": "0", "skipped": "False", "complete": "True", "assignment": "3ZV9H2YQQEFR2R3JK2IXZUJPXAF3WW", "start_time": "1.51630781401e+12", "human_length": "10", "nodes_expanded": "999", "instance": "prb8786", "end_time": "1.51630782711e+12", "optimal_length": "7", "subject": "A289D98Z4GAZ28"}
{"rt": "212882.0", "trial_number": "0", "skipped": "False", "complete": "True", "assignment": "3ZV9H2YQQEFR2R3JK2IXZUJPXAF3WW", "start_time": "1.51630784639e+12", "human_length": "81", "nodes_expanded": "999", "instance": "prb46639", "end_time": "1.51630805927e+12", "optimal_length": "16", "subject": "A289D98Z4GAZ28"}
{"rt": "33036.0", "trial_number": "0", "skipped": "False", "complete": "True", "assignment": "3ZV9H2YQQEFR2R3JK2IXZUJPXAF3WW", "start_time": "1.51630811056e+12", "human_length": "14", "nodes_expanded": "999", "instance": "prb29600", "end_time": "1.51630814359e+12", "optimal_length": "14", "subject": "A289D98Z4GAZ28"}
{"rt": "45298.0", "trial_number": "0", "skipped": "False", "complete": "True", "assignment": "3ZV9H2YQQEFR2R3JK2IXZUJPXAF3WW", "start_time": "1.51630817131e+12", "human_length": "11", "nodes_expanded": "999", "instance": "prb42959", "end_time": "1.5163082166e+12", "optimal_length": "11", "subject": "A289D98Z4GAZ28"}
{"rt": "34291.0", "trial_number": "0", "skipped": "False", "complete": "True", "assignment": "3ZV9H2YQQEFR2R3JK2IXZUJPXAF3WW", "start_time": "1.51630822305e+12", "human_length": "14", "nodes_expanded": "999", "instance": "prb15290", "end_time": "1.51630825734e+12", "optimal_length": "7", "subject": "A289D98Z4GAZ28"}
{"rt": "27774.0", "trial_number": "0", "skipped": "False", "complete": "True", "assignment": "3ZV9H2YQQEFR2R3JK2IXZUJPXAF3WW", "start_time": "1.51630827829e+12", "human_length": "11", "nodes_expanded": "999", "instance": "prb46224", "end_time": "1.51630830607e+12", "optimal_length": "11", "subject": "A289D98Z4GAZ28"}
{"rt": "25693.0", "trial_number": "0", "skipped": "False", "complete": "True", "assignment": "3ZV9H2YQQEFR2R3JK2IXZUJPXAF3WW", "start_time": "1.51630831995e+12", "human_length": "11", "nodes_expanded": "999", "instance": "prb23259", "end_time": "1.51630834564e+12", "optimal_length": "7", "subject": "A289D98Z4GAZ28"}
{"rt": "57630.0", "trial_number": "0", "skipped": "False", "complete": "True", "assignment": "3ZV9H2YQQEFR2R3JK2IXZUJPXAF3WW", "start_time": "1.51630836328e+12", "human_length": "27", "nodes_expanded": "999", "instance": "prb78361", "end_time": "1.51630842091e+12", "optimal_length": "16", "subject": "A289D98Z4GAZ28"}
{"rt": "26898.0", "trial_number": "0", "skipped": "False", "complete": "True", "assignment": "3ZV9H2YQQEFR2R3JK2IXZUJPXAF3WW", "start_time": "1.5163084675e+12", "human_length": "9", "nodes_expanded": "999", "instance": "prb12604", "end_time": "1.5163084944e+12", "optimal_length": "7", "subject": "A289D98Z4GAZ28"}
{"rt": "28788.0", "trial_number": "0", "skipped": "False", "complete": "True", "assignment": "3ZV9H2YQQEFR2R3JK2IXZUJPXAF3WW", "start_time": "1.51630850851e+12", "human_length": "17", "nodes_expanded": "999", "instance": "prb29414", "end_time": "1.5163085373e+12", "optimal_length": "11", "subject": "A289D98Z4GAZ28"}
{"rt": "564462.0", "trial_number": "0", "skipped": "False", "complete": "True", "assignment": "3ZV9H2YQQEFR2R3JK2IXZUJPXAF3WW", "start_time": "1.51630856936e+12", "human_length": "245", "nodes_expanded": "999", "instance": "prb20888", "end_time": "1.51630913382e+12", "optimal_length": "14", "subject": "A289D98Z4GAZ28"}
{"rt": "50257.0", "trial_number": "0", "skipped": "False", "complete": "True", "assignment": "3ZV9H2YQQEFR2R3JK2IXZUJPXAF3WW", "start_time": "1.51630963217e+12", "human_length": "28", "nodes_expanded": "999", "instance": "prb23404", "end_time": "1.51630968243e+12", "optimal_length": "14", "subject": "A289D98Z4GAZ28"}
{"rt": "46431.0", "trial_number": "0", "skipped": "False", "complete": "True", "assignment": "3PMBY0YE28B43VMUKKJ6EDF85RV9C8", "start_time": "1.51638587285e+12", "human_length": "28", "nodes_expanded": "999", "instance": "prb58853", "end_time": "1.51638591928e+12", "optimal_length": "16", "subject": "A191V7PT3DQKDP"}
{"rt": "11151.0", "trial_number": "0", "skipped": "False", "complete": "True", "assignment": "3PMBY0YE28B43VMUKKJ6EDF85RV9C8", "start_time": "1.51638592559e+12", "human_length": "12", "nodes_expanded": "999", "instance": "prb29414", "end_time": "1.51638593674e+12", "optimal_length": "11", "subject": "A191V7PT3DQKDP"}
{"rt": "25577.0", "trial_number": "0", "skipped": "False", "complete": "True", "assignment": "3PMBY0YE28B43VMUKKJ6EDF85RV9C8", "start_time": "1.51638594181e+12", "human_length": "20", "nodes_expanded": "999", "instance": "prb3217", "end_time": "1.51638596739e+12", "optimal_length": "11", "subject": "A191V7PT3DQKDP"}
{"rt": "131355.0", "trial_number": "0", "skipped": "False", "complete": "True", "assignment": "3PMBY0YE28B43VMUKKJ6EDF85RV9C8", "start_time": "1.51638597193e+12", "human_length": "91", "nodes_expanded": "999", "instance": "prb33509", "end_time": "1.51638610329e+12", "optimal_length": "11", "subject": "A191V7PT3DQKDP"}
{"rt": "7851.0", "trial_number": "0", "skipped": "False", "complete": "True", "assignment": "3PMBY0YE28B43VMUKKJ6EDF85RV9C8", "start_time": "1.51638610637e+12", "human_length": "8", "nodes_expanded": "999", "instance": "prb11647", "end_time": "1.51638611422e+12", "optimal_length": "7", "subject": "A191V7PT3DQKDP"}
{"rt": "20452.0", "trial_number": "0", "skipped": "False", "complete": "True", "assignment": "3PMBY0YE28B43VMUKKJ6EDF85RV9C8", "start_time": "1.51638611542e+12", "human_length": "14", "nodes_expanded": "999", "instance": "prb38725", "end_time": "1.51638613587e+12", "optimal_length": "14", "subject": "A191V7PT3DQKDP"}
{"rt": "10934.0", "trial_number": "0", "skipped": "False", "complete": "True", "assignment": "3PMBY0YE28B43VMUKKJ6EDF85RV9C8", "start_time": "1.51638614172e+12", "human_length": "12", "nodes_expanded": "999", "instance": "prb34092", "end_time": "1.51638615265e+12", "optimal_length": "11", "subject": "A191V7PT3DQKDP"}
{"rt": "47799.0", "trial_number": "0", "skipped": "False", "complete": "True", "assignment": "3PMBY0YE28B43VMUKKJ6EDF85RV9C8", "start_time": "1.51638615531e+12", "human_length": "35", "nodes_expanded": "999", "instance": "prb24227", "end_time": "1.51638620311e+12", "optimal_length": "16", "subject": "A191V7PT3DQKDP"}
{"rt": "15996.0", "trial_number": "0", "skipped": "False", "complete": "True", "assignment": "3PMBY0YE28B43VMUKKJ6EDF85RV9C8", "start_time": "1.51638621697e+12", "human_length": "17", "nodes_expanded": "999", "instance": "prb25604", "end_time": "1.51638623297e+12", "optimal_length": "16", "subject": "A191V7PT3DQKDP"}
{"rt": "49206.0", "trial_number": "0", "skipped": "False", "complete": "True", "assignment": "3PMBY0YE28B43VMUKKJ6EDF85RV9C8", "start_time": "1.51638623484e+12", "human_length": "38", "nodes_expanded": "999", "instance": "prb46639", "end_time": "1.51638628405e+12", "optimal_length": "16", "subject": "A191V7PT3DQKDP"}
{"rt": "28249.0", "trial_number": "0", "skipped": "False", "complete": "True", "assignment": "3PMBY0YE28B43VMUKKJ6EDF85RV9C8", "start_time": "1.51638629086e+12", "human_length": "25", "nodes_expanded": "999", "instance": "prb54506", "end_time": "1.51638631911e+12", "optimal_length": "16", "subject": "A191V7PT3DQKDP"}
{"rt": "38660.0", "trial_number": "0", "skipped": "False", "complete": "True", "assignment": "3PMBY0YE28B43VMUKKJ6EDF85RV9C8", "start_time": "1.51638633125e+12", "human_length": "28", "nodes_expanded": "999", "instance": "prb33117", "end_time": "1.51638636991e+12", "optimal_length": "14", "subject": "A191V7PT3DQKDP"}
{"rt": "66805.0", "trial_number": "0", "skipped": "False", "complete": "True", "assignment": "3PMBY0YE28B43VMUKKJ6EDF85RV9C8", "start_time": "1.516386371e+12", "human_length": "44", "nodes_expanded": "999", "instance": "prb15595", "end_time": "1.51638643781e+12", "optimal_length": "16", "subject": "A191V7PT3DQKDP"}
{"rt": "16319.0", "trial_number": "0", "skipped": "False", "complete": "True", "assignment": "3PMBY0YE28B43VMUKKJ6EDF85RV9C8", "start_time": "1.51638644159e+12", "human_length": "12", "nodes_expanded": "999", "instance": "prb42959", "end_time": "1.51638645791e+12", "optimal_length": "11", "subject": "A191V7PT3DQKDP"}
{"rt": "10424.0", "trial_number": "0", "skipped": "False", "complete": "True", "assignment": "3PMBY0YE28B43VMUKKJ6EDF85RV9C8", "start_time": "1.51638646007e+12", "human_length": "11", "nodes_expanded": "999", "instance": "prb46224", "end_time": "1.51638647049e+12", "optimal_length": "11", "subject": "A191V7PT3DQKDP"}
{"rt": "10060.0", "trial_number": "0", "skipped": "False", "complete": "True", "assignment": "3PMBY0YE28B43VMUKKJ6EDF85RV9C8", "start_time": "1.51638647476e+12", "human_length": "13", "nodes_expanded": "999", "instance": "prb26567", "end_time": "1.51638648482e+12", "optimal_length": "7", "subject": "A191V7PT3DQKDP"}
{"rt": "47598.0", "trial_number": "0", "skipped": "False", "complete": "True", "assignment": "3PMBY0YE28B43VMUKKJ6EDF85RV9C8", "start_time": "1.51638648608e+12", "human_length": "38", "nodes_expanded": "999", "instance": "prb14485", "end_time": "1.51638653368e+12", "optimal_length": "14", "subject": "A191V7PT3DQKDP"}
{"rt": "8745.0", "trial_number": "0", "skipped": "False", "complete": "True", "assignment": "3PMBY0YE28B43VMUKKJ6EDF85RV9C8", "start_time": "1.51638653537e+12", "human_length": "10", "nodes_expanded": "999", "instance": "prb8786", "end_time": "1.51638654412e+12", "optimal_length": "7", "subject": "A191V7PT3DQKDP"}
{"rt": "5340.0", "trial_number": "0", "skipped": "False", "complete": "True", "assignment": "3PMBY0YE28B43VMUKKJ6EDF85RV9C8", "start_time": "1.51638654627e+12", "human_length": "7", "nodes_expanded": "999", "instance": "prb12604", "end_time": "1.51638655161e+12", "optimal_length": "7", "subject": "A191V7PT3DQKDP"}
{"rt": "61368.0", "trial_number": "0", "skipped": "False", "complete": "True", "assignment": "3PMBY0YE28B43VMUKKJ6EDF85RV9C8", "start_time": "1.51638655311e+12", "human_length": "35", "nodes_expanded": "999", "instance": "prb57223", "end_time": "1.51638661448e+12", "optimal_length": "16", "subject": "A191V7PT3DQKDP"}
{"rt": "23107.0", "trial_number": "0", "skipped": "False", "complete": "True", "assignment": "3PMBY0YE28B43VMUKKJ6EDF85RV9C8", "start_time": "1.51638663026e+12", "human_length": "19", "nodes_expanded": "999", "instance": "prb55384", "end_time": "1.51638665336e+12", "optimal_length": "14", "subject": "A191V7PT3DQKDP"}
{"rt": "20405.0", "trial_number": "0", "skipped": "False", "complete": "True", "assignment": "3PMBY0YE28B43VMUKKJ6EDF85RV9C8", "start_time": "1.51638665552e+12", "human_length": "16", "nodes_expanded": "999", "instance": "prb34551", "end_time": "1.51638667593e+12", "optimal_length": "14", "subject": "A191V7PT3DQKDP"}
{"rt": "7239.0", "trial_number": "0", "skipped": "False", "complete": "True", "assignment": "3PMBY0YE28B43VMUKKJ6EDF85RV9C8", "start_time": "1.51638667768e+12", "human_length": "8", "nodes_expanded": "999", "instance": "prb15290", "end_time": "1.51638668492e+12", "optimal_length": "7", "subject": "A191V7PT3DQKDP"}
{"rt": "10298.0", "trial_number": "0", "skipped": "False", "complete": "True", "assignment": "3PMBY0YE28B43VMUKKJ6EDF85RV9C8", "start_time": "1.51638669833e+12", "human_length": "9", "nodes_expanded": "999", "instance": "prb14047", "end_time": "1.51638670863e+12", "optimal_length": "7", "subject": "A191V7PT3DQKDP"}
{"rt": "50086.0", "trial_number": "0", "skipped": "False", "complete": "True", "assignment": "3PMBY0YE28B43VMUKKJ6EDF85RV9C8", "start_time": "1.5163867103e+12", "human_length": "27", "nodes_expanded": "999", "instance": "prb14898", "end_time": "1.51638676039e+12", "optimal_length": "11", "subject": "A191V7PT3DQKDP"}
{"rt": "54717.0", "trial_number": "0", "skipped": "False", "complete": "True", "assignment": "3PMBY0YE28B43VMUKKJ6EDF85RV9C8", "start_time": "1.51638676128e+12", "human_length": "38", "nodes_expanded": "999", "instance": "prb29027", "end_time": "1.516386816e+12", "optimal_length": "16", "subject": "A191V7PT3DQKDP"}
{"rt": "45412.0", "trial_number": "0", "skipped": "False", "complete": "True", "assignment": "3PMBY0YE28B43VMUKKJ6EDF85RV9C8", "start_time": "1.51638682109e+12", "human_length": "32", "nodes_expanded": "999", "instance": "prb48146", "end_time": "1.5163868665e+12", "optimal_length": "16", "subject": "A191V7PT3DQKDP"}
{"rt": "11171.0", "trial_number": "0", "skipped": "False", "complete": "True", "assignment": "3PMBY0YE28B43VMUKKJ6EDF85RV9C8", "start_time": "1.51638686886e+12", "human_length": "11", "nodes_expanded": "999", "instance": "prb13171", "end_time": "1.51638688004e+12", "optimal_length": "7", "subject": "A191V7PT3DQKDP"}
{"rt": "18590.0", "trial_number": "0", "skipped": "False", "complete": "True", "assignment": "3PMBY0YE28B43VMUKKJ6EDF85RV9C8", "start_time": "1.51638688634e+12", "human_length": "19", "nodes_expanded": "999", "instance": "prb29585", "end_time": "1.51638690493e+12", "optimal_length": "14", "subject": "A191V7PT3DQKDP"}
{"rt": "7893.0", "trial_number": "0", "skipped": "False", "complete": "True", "assignment": "3PMBY0YE28B43VMUKKJ6EDF85RV9C8", "start_time": "1.51638690726e+12", "human_length": "7", "nodes_expanded": "999", "instance": "prb28111", "end_time": "1.51638691515e+12", "optimal_length": "7", "subject": "A191V7PT3DQKDP"}
{"rt": "10810.0", "trial_number": "0", "skipped": "False", "complete": "True", "assignment": "3PMBY0YE28B43VMUKKJ6EDF85RV9C8", "start_time": "1.51638691715e+12", "human_length": "11", "nodes_expanded": "999", "instance": "prb68910", "end_time": "1.51638692796e+12", "optimal_length": "11", "subject": "A191V7PT3DQKDP"}
{"rt": "7249.0", "trial_number": "0", "skipped": "False", "complete": "True", "assignment": "3PMBY0YE28B43VMUKKJ6EDF85RV9C8", "start_time": "1.51638693182e+12", "human_length": "10", "nodes_expanded": "999", "instance": "prb32695", "end_time": "1.51638693906e+12", "optimal_length": "7", "subject": "A191V7PT3DQKDP"}
{"rt": "27235.0", "trial_number": "0", "skipped": "False", "complete": "True", "assignment": "3PMBY0YE28B43VMUKKJ6EDF85RV9C8", "start_time": "1.51638694028e+12", "human_length": "26", "nodes_expanded": "999", "instance": "prb10166", "end_time": "1.51638696751e+12", "optimal_length": "16", "subject": "A191V7PT3DQKDP"}
{"rt": "39359.0", "trial_number": "0", "skipped": "False", "complete": "True", "assignment": "3PMBY0YE28B43VMUKKJ6EDF85RV9C8", "start_time": "1.51638697184e+12", "human_length": "22", "nodes_expanded": "999", "instance": "prb12715", "end_time": "1.5163870112e+12", "optimal_length": "11", "subject": "A191V7PT3DQKDP"}
{"rt": "13600.0", "trial_number": "0", "skipped": "False", "complete": "True", "assignment": "3PMBY0YE28B43VMUKKJ6EDF85RV9C8", "start_time": "1.51638701297e+12", "human_length": "14", "nodes_expanded": "999", "instance": "prb29232", "end_time": "1.51638702657e+12", "optimal_length": "7", "subject": "A191V7PT3DQKDP"}
{"rt": "11718.0", "trial_number": "0", "skipped": "False", "complete": "True", "assignment": "3PMBY0YE28B43VMUKKJ6EDF85RV9C8", "start_time": "1.51638705777e+12", "human_length": "13", "nodes_expanded": "999", "instance": "prb54081", "end_time": "1.51638706949e+12", "optimal_length": "11", "subject": "A191V7PT3DQKDP"}
{"rt": "17900.0", "trial_number": "0", "skipped": "False", "complete": "True", "assignment": "3PMBY0YE28B43VMUKKJ6EDF85RV9C8", "start_time": "1.51638707078e+12", "human_length": "17", "nodes_expanded": "999", "instance": "prb23404", "end_time": "1.51638708868e+12", "optimal_length": "14", "subject": "A191V7PT3DQKDP"}
{"rt": "16216.0", "trial_number": "0", "skipped": "False", "complete": "True", "assignment": "3PMBY0YE28B43VMUKKJ6EDF85RV9C8", "start_time": "1.51638709716e+12", "human_length": "14", "nodes_expanded": "999", "instance": "prb9718", "end_time": "1.51638711337e+12", "optimal_length": "11", "subject": "A191V7PT3DQKDP"}
{"rt": "34156.0", "trial_number": "0", "skipped": "False", "complete": "True", "assignment": "3PMBY0YE28B43VMUKKJ6EDF85RV9C8", "start_time": "1.5163871165e+12", "human_length": "34", "nodes_expanded": "999", "instance": "prb78361", "end_time": "1.51638715065e+12", "optimal_length": "16", "subject": "A191V7PT3DQKDP"}
{"rt": "21662.0", "trial_number": "0", "skipped": "False", "complete": "True", "assignment": "3PMBY0YE28B43VMUKKJ6EDF85RV9C8", "start_time": "1.51638715477e+12", "human_length": "22", "nodes_expanded": "999", "instance": "prb31907", "end_time": "1.51638717643e+12", "optimal_length": "11", "subject": "A191V7PT3DQKDP"}
{"rt": "7301.0", "trial_number": "0", "skipped": "False", "complete": "True", "assignment": "3PMBY0YE28B43VMUKKJ6EDF85RV9C8", "start_time": "1.51638717825e+12", "human_length": "7", "nodes_expanded": "999", "instance": "prb1707", "end_time": "1.51638718555e+12", "optimal_length": "7", "subject": "A191V7PT3DQKDP"}
{"rt": "186851.0", "trial_number": "0", "skipped": "False", "complete": "True", "assignment": "3PMBY0YE28B43VMUKKJ6EDF85RV9C8", "start_time": "1.51638718878e+12", "human_length": "98", "nodes_expanded": "999", "instance": "prb1267", "end_time": "1.51638737563e+12", "optimal_length": "16", "subject": "A191V7PT3DQKDP"}
{"rt": "32402.0", "trial_number": "0", "skipped": "False", "complete": "True", "assignment": "3PMBY0YE28B43VMUKKJ6EDF85RV9C8", "start_time": "1.51638737842e+12", "human_length": "28", "nodes_expanded": "999", "instance": "prb20888", "end_time": "1.51638741082e+12", "optimal_length": "14", "subject": "A191V7PT3DQKDP"}
{"rt": "48233.0", "trial_number": "0", "skipped": "False", "complete": "True", "assignment": "3PMBY0YE28B43VMUKKJ6EDF85RV9C8", "start_time": "1.51638742241e+12", "human_length": "16", "nodes_expanded": "999", "instance": "prb6671", "end_time": "1.51638747064e+12", "optimal_length": "14", "subject": "A191V7PT3DQKDP"}
{"rt": "12785.0", "trial_number": "0", "skipped": "False", "complete": "True", "assignment": "3PMBY0YE28B43VMUKKJ6EDF85RV9C8", "start_time": "1.51638747243e+12", "human_length": "12", "nodes_expanded": "999", "instance": "prb62015", "end_time": "1.51638748521e+12", "optimal_length": "11", "subject": "A191V7PT3DQKDP"}
{"rt": "11370.0", "trial_number": "0", "skipped": "False", "complete": "True", "assignment": "3PMBY0YE28B43VMUKKJ6EDF85RV9C8", "start_time": "1.51638748663e+12", "human_length": "12", "nodes_expanded": "999", "instance": "prb32795", "end_time": "1.516387498e+12", "optimal_length": "7", "subject": "A191V7PT3DQKDP"}
{"rt": "5488.0", "trial_number": "0", "skipped": "False", "complete": "True", "assignment": "3PMBY0YE28B43VMUKKJ6EDF85RV9C8", "start_time": "1.51638750008e+12", "human_length": "8", "nodes_expanded": "999", "instance": "prb20059", "end_time": "1.51638750557e+12", "optimal_length": "7", "subject": "A191V7PT3DQKDP"}
{"rt": "19353.0", "trial_number": "0", "skipped": "False", "complete": "True", "assignment": "3PMBY0YE28B43VMUKKJ6EDF85RV9C8", "start_time": "1.51638750693e+12", "human_length": "17", "nodes_expanded": "999", "instance": "prb68514", "end_time": "1.51638752628e+12", "optimal_length": "14", "subject": "A191V7PT3DQKDP"}
{"rt": "185030.0", "trial_number": "0", "skipped": "False", "complete": "True", "assignment": "3PMBY0YE28B43VMUKKJ6EDF85RV9C8", "start_time": "1.51638752886e+12", "human_length": "110", "nodes_expanded": "999", "instance": "prb343", "end_time": "1.51638771389e+12", "optimal_length": "14", "subject": "A191V7PT3DQKDP"}
{"rt": "6511.0", "trial_number": "0", "skipped": "False", "complete": "True", "assignment": "3PMBY0YE28B43VMUKKJ6EDF85RV9C8", "start_time": "1.51638771958e+12", "human_length": "7", "nodes_expanded": "999", "instance": "prb14651", "end_time": "1.51638772609e+12", "optimal_length": "7", "subject": "A191V7PT3DQKDP"}
{"rt": "16188.0", "trial_number": "0", "skipped": "False", "complete": "True", "assignment": "3PMBY0YE28B43VMUKKJ6EDF85RV9C8", "start_time": "1.51638773292e+12", "human_length": "15", "nodes_expanded": "999", "instance": "prb29600", "end_time": "1.51638774911e+12", "optimal_length": "14", "subject": "A191V7PT3DQKDP"}
{"rt": "22703.0", "trial_number": "0", "skipped": "False", "complete": "True", "assignment": "3PMBY0YE28B43VMUKKJ6EDF85RV9C8", "start_time": "1.51638775223e+12", "human_length": "21", "nodes_expanded": "999", "instance": "prb19279", "end_time": "1.51638777493e+12", "optimal_length": "14", "subject": "A191V7PT3DQKDP"}
{"rt": "25199.0", "trial_number": "0", "skipped": "False", "complete": "True", "assignment": "3PMBY0YE28B43VMUKKJ6EDF85RV9C8", "start_time": "1.51638778107e+12", "human_length": "24", "nodes_expanded": "999", "instance": "prb44171", "end_time": "1.51638780627e+12", "optimal_length": "16", "subject": "A191V7PT3DQKDP"}
{"rt": "5769.0", "trial_number": "0", "skipped": "False", "complete": "True", "assignment": "3PMBY0YE28B43VMUKKJ6EDF85RV9C8", "start_time": "1.5163878089e+12", "human_length": "7", "nodes_expanded": "999", "instance": "prb10206", "end_time": "1.51638781467e+12", "optimal_length": "7", "subject": "A191V7PT3DQKDP"}
{"rt": "18809.0", "trial_number": "0", "skipped": "False", "complete": "True", "assignment": "3PMBY0YE28B43VMUKKJ6EDF85RV9C8", "start_time": "1.51638781585e+12", "human_length": "16", "nodes_expanded": "999", "instance": "prb21272", "end_time": "1.51638783466e+12", "optimal_length": "7", "subject": "A191V7PT3DQKDP"}
{"rt": "20071.0", "trial_number": "0", "skipped": "False", "complete": "True", "assignment": "3PMBY0YE28B43VMUKKJ6EDF85RV9C8", "start_time": "1.5163878369e+12", "human_length": "17", "nodes_expanded": "999", "instance": "prb72800", "end_time": "1.51638785697e+12", "optimal_length": "14", "subject": "A191V7PT3DQKDP"}
{"rt": "10440.0", "trial_number": "0", "skipped": "False", "complete": "True", "assignment": "3PMBY0YE28B43VMUKKJ6EDF85RV9C8", "start_time": "1.5163878608e+12", "human_length": "11", "nodes_expanded": "999", "instance": "prb79230", "end_time": "1.51638787124e+12", "optimal_length": "11", "subject": "A191V7PT3DQKDP"}
{"rt": "16575.0", "trial_number": "0", "skipped": "False", "complete": "True", "assignment": "3PMBY0YE28B43VMUKKJ6EDF85RV9C8", "start_time": "1.51638787981e+12", "human_length": "16", "nodes_expanded": "999", "instance": "prb23259", "end_time": "1.51638789639e+12", "optimal_length": "7", "subject": "A191V7PT3DQKDP"}
{"rt": "21257.0", "trial_number": "0", "skipped": "False", "complete": "True", "assignment": "3PMBY0YE28B43VMUKKJ6EDF85RV9C8", "start_time": "1.51638789859e+12", "human_length": "19", "nodes_expanded": "999", "instance": "prb3203", "end_time": "1.51638791985e+12", "optimal_length": "14", "subject": "A191V7PT3DQKDP"}
{"rt": "20514.0", "trial_number": "0", "skipped": "False", "complete": "True", "assignment": "3PMBY0YE28B43VMUKKJ6EDF85RV9C8", "start_time": "1.51638792428e+12", "human_length": "20", "nodes_expanded": "999", "instance": "prb46580", "end_time": "1.5163879448e+12", "optimal_length": "16", "subject": "A191V7PT3DQKDP"}
{"rt": "38608.0", "trial_number": "0", "skipped": "False", "complete": "True", "assignment": "3PMBY0YE28B43VMUKKJ6EDF85RV9C8", "start_time": "1.51638794704e+12", "human_length": "35", "nodes_expanded": "999", "instance": "prb47495", "end_time": "1.51638798564e+12", "optimal_length": "14", "subject": "A191V7PT3DQKDP"}
{"rt": "10735.0", "trial_number": "0", "skipped": "False", "complete": "True", "assignment": "3PMBY0YE28B43VMUKKJ6EDF85RV9C8", "start_time": "1.5163879893e+12", "human_length": "11", "nodes_expanded": "999", "instance": "prb717", "end_time": "1.51638800004e+12", "optimal_length": "11", "subject": "A191V7PT3DQKDP"}
{"rt": "143719.0", "trial_number": "0", "skipped": "False", "complete": "True", "assignment": "3PMBY0YE28B43VMUKKJ6EDF85RV9C8", "start_time": "1.51638800167e+12", "human_length": "75", "nodes_expanded": "999", "instance": "prb25861", "end_time": "1.51638814539e+12", "optimal_length": "16", "subject": "A191V7PT3DQKDP"}
{"rt": "30954.0", "trial_number": "0", "skipped": "False", "complete": "True", "assignment": "3PMBY0YE28B43VMUKKJ6EDF85RV9C8", "start_time": "1.51638815379e+12", "human_length": "29", "nodes_expanded": "999", "instance": "prb65535", "end_time": "1.51638818474e+12", "optimal_length": "14", "subject": "A191V7PT3DQKDP"}
{"rt": "15361.0", "trial_number": "0", "skipped": "False", "complete": "True", "assignment": "3PMBY0YE28B43VMUKKJ6EDF85RV9C8", "start_time": "1.51638820055e+12", "human_length": "14", "nodes_expanded": "999", "instance": "prb22436", "end_time": "1.51638821591e+12", "optimal_length": "11", "subject": "A191V7PT3DQKDP"}
{"rt": "40057.0", "trial_number": "0", "skipped": "False", "complete": "True", "assignment": "3PMBY0YE28B43VMUKKJ6EDF85RV9C8", "start_time": "1.5163882349e+12", "human_length": "25", "nodes_expanded": "999", "instance": "prb38526", "end_time": "1.51638827496e+12", "optimal_length": "11", "subject": "A191V7PT3DQKDP"}
{"rt": "68497.0", "trial_number": "0", "skipped": "False", "complete": "True", "assignment": "3PMBY0YE28B43VMUKKJ6EDF85RV9C8", "start_time": "1.51638827865e+12", "human_length": "50", "nodes_expanded": "999", "instance": "prb24406", "end_time": "1.51638834714e+12", "optimal_length": "16", "subject": "A191V7PT3DQKDP"}
{"rt": "14860.0", "trial_number": "0", "skipped": "False", "complete": "True", "assignment": "3PMBY0YE28B43VMUKKJ6EDF85RV9C8", "start_time": "1.516388375e+12", "human_length": "12", "nodes_expanded": "999", "instance": "prb2834", "end_time": "1.51638838986e+12", "optimal_length": "7", "subject": "A191V7PT3DQKDP"}
{"rt": "19894.0", "trial_number": "0", "skipped": "False", "complete": "True", "assignment": "3PMBY0YE28B43VMUKKJ6EDF85RV9C8", "start_time": "1.51638839762e+12", "human_length": "15", "nodes_expanded": "999", "instance": "prb62222", "end_time": "1.51638841751e+12", "optimal_length": "11", "subject": "A191V7PT3DQKDP"}
{"rt": "157464.0", "trial_number": "0", "skipped": "False", "complete": "True", "assignment": "3PMBY0YE28B43VMUKKJ6EDF85RV9C8", "start_time": "1.51638843103e+12", "human_length": "120", "nodes_expanded": "999", "instance": "prb45893", "end_time": "1.5163885885e+12", "optimal_length": "16", "subject": "A191V7PT3DQKDP"}
{"rt": "189797.0", "trial_number": "0", "skipped": "False", "complete": "False", "assignment": "3TYCR1GOTDRCCQYD1V64UK7OE48LZS", "start_time": "1.51638881092e+12", "human_length": "54", "nodes_expanded": "999", "instance": "prb33117", "end_time": "1.51638900072e+12", "optimal_length": "14", "subject": "A2MYB6MLQW0IGN"}
{"rt": "40793.0", "trial_number": "1", "skipped": "False", "complete": "True", "assignment": "3TYCR1GOTDRCCQYD1V64UK7OE48LZS", "start_time": "1.51638900319e+12", "human_length": "22", "nodes_expanded": "999", "instance": "prb33117", "end_time": "1.51638904399e+12", "optimal_length": "14", "subject": "A2MYB6MLQW0IGN"}
{"rt": "50810.0", "trial_number": "0", "skipped": "False", "complete": "True", "assignment": "3TYCR1GOTDRCCQYD1V64UK7OE48LZS", "start_time": "1.51638904806e+12", "human_length": "22", "nodes_expanded": "999", "instance": "prb62015", "end_time": "1.51638909887e+12", "optimal_length": "11", "subject": "A2MYB6MLQW0IGN"}
{"rt": "78111.0", "trial_number": "0", "skipped": "False", "complete": "True", "assignment": "3TYCR1GOTDRCCQYD1V64UK7OE48LZS", "start_time": "1.51638909973e+12", "human_length": "42", "nodes_expanded": "999", "instance": "prb24406", "end_time": "1.51638917784e+12", "optimal_length": "16", "subject": "A2MYB6MLQW0IGN"}
{"rt": "105821.0", "trial_number": "0", "skipped": "False", "complete": "True", "assignment": "3TYCR1GOTDRCCQYD1V64UK7OE48LZS", "start_time": "1.51638917898e+12", "human_length": "42", "nodes_expanded": "999", "instance": "prb22436", "end_time": "1.5163892848e+12", "optimal_length": "11", "subject": "A2MYB6MLQW0IGN"}
{"rt": "28959.0", "trial_number": "0", "skipped": "False", "complete": "True", "assignment": "3TYCR1GOTDRCCQYD1V64UK7OE48LZS", "start_time": "1.51638928553e+12", "human_length": "15", "nodes_expanded": "999", "instance": "prb54081", "end_time": "1.51638931449e+12", "optimal_length": "11", "subject": "A2MYB6MLQW0IGN"}
{"rt": "28367.0", "trial_number": "0", "skipped": "False", "complete": "True", "assignment": "3TYCR1GOTDRCCQYD1V64UK7OE48LZS", "start_time": "1.51638931549e+12", "human_length": "16", "nodes_expanded": "999", "instance": "prb1707", "end_time": "1.51638934385e+12", "optimal_length": "7", "subject": "A2MYB6MLQW0IGN"}
{"rt": "142208.0", "trial_number": "0", "skipped": "False", "complete": "True", "assignment": "3TYCR1GOTDRCCQYD1V64UK7OE48LZS", "start_time": "1.51638934492e+12", "human_length": "63", "nodes_expanded": "999", "instance": "prb65535", "end_time": "1.51638948713e+12", "optimal_length": "14", "subject": "A2MYB6MLQW0IGN"}
{"rt": "45949.0", "trial_number": "0", "skipped": "False", "complete": "True", "assignment": "3TYCR1GOTDRCCQYD1V64UK7OE48LZS", "start_time": "1.51638948802e+12", "human_length": "25", "nodes_expanded": "999", "instance": "prb26567", "end_time": "1.51638953397e+12", "optimal_length": "7", "subject": "A2MYB6MLQW0IGN"}
{"rt": "16651.0", "trial_number": "0", "skipped": "False", "complete": "True", "assignment": "3TYCR1GOTDRCCQYD1V64UK7OE48LZS", "start_time": "1.51638953496e+12", "human_length": "8", "nodes_expanded": "999", "instance": "prb14651", "end_time": "1.51638955161e+12", "optimal_length": "7", "subject": "A2MYB6MLQW0IGN"}
{"rt": "31389.0", "trial_number": "0", "skipped": "False", "complete": "True", "assignment": "3TYCR1GOTDRCCQYD1V64UK7OE48LZS", "start_time": "1.51638955254e+12", "human_length": "17", "nodes_expanded": "999", "instance": "prb32795", "end_time": "1.51638958393e+12", "optimal_length": "7", "subject": "A2MYB6MLQW0IGN"}
{"rt": "73951.0", "trial_number": "0", "skipped": "False", "complete": "False", "assignment": "3TYCR1GOTDRCCQYD1V64UK7OE48LZS", "start_time": "1.51638958489e+12", "human_length": "39", "nodes_expanded": "999", "instance": "prb3203", "end_time": "1.51638965884e+12", "optimal_length": "14", "subject": "A2MYB6MLQW0IGN"}
{"rt": "0.0", "trial_number": "1", "skipped": "False", "complete": "False", "assignment": "3TYCR1GOTDRCCQYD1V64UK7OE48LZS", "start_time": "1.51638966568e+12", "human_length": "1", "nodes_expanded": "999", "instance": "prb3203", "end_time": "1.51638966568e+12", "optimal_length": "14", "subject": "A2MYB6MLQW0IGN"}
{"rt": "7166.0", "trial_number": "2", "skipped": "False", "complete": "False", "assignment": "3TYCR1GOTDRCCQYD1V64UK7OE48LZS", "start_time": "1.5163896657e+12", "human_length": "3", "nodes_expanded": "999", "instance": "prb3203", "end_time": "1.51638967286e+12", "optimal_length": "14", "subject": "A2MYB6MLQW0IGN"}
{"rt": "0.0", "trial_number": "3", "skipped": "False", "complete": "False", "assignment": "3TYCR1GOTDRCCQYD1V64UK7OE48LZS", "start_time": "1.51638968657e+12", "human_length": "1", "nodes_expanded": "999", "instance": "prb3203", "end_time": "1.51638968657e+12", "optimal_length": "14", "subject": "A2MYB6MLQW0IGN"}
{"rt": "20680.0", "trial_number": "4", "skipped": "False", "complete": "False", "assignment": "3TYCR1GOTDRCCQYD1V64UK7OE48LZS", "start_time": "1.5163896866e+12", "human_length": "5", "nodes_expanded": "999", "instance": "prb3203", "end_time": "1.51638970728e+12", "optimal_length": "14", "subject": "A2MYB6MLQW0IGN"}
{"rt": "65962.0", "trial_number": "5", "skipped": "False", "complete": "True", "assignment": "3TYCR1GOTDRCCQYD1V64UK7OE48LZS", "start_time": "1.51638971009e+12", "human_length": "31", "nodes_expanded": "999", "instance": "prb3203", "end_time": "1.51638977605e+12", "optimal_length": "14", "subject": "A2MYB6MLQW0IGN"}
{"rt": "104325.0", "trial_number": "0", "skipped": "False", "complete": "True", "assignment": "3TYCR1GOTDRCCQYD1V64UK7OE48LZS", "start_time": "1.51638978143e+12", "human_length": "46", "nodes_expanded": "999", "instance": "prb48146", "end_time": "1.51638988576e+12", "optimal_length": "16", "subject": "A2MYB6MLQW0IGN"}
{"rt": "263571.0", "trial_number": "0", "skipped": "False", "complete": "True", "assignment": "3TYCR1GOTDRCCQYD1V64UK7OE48LZS", "start_time": "1.51638988666e+12", "human_length": "112", "nodes_expanded": "999", "instance": "prb57223", "end_time": "1.51639015023e+12", "optimal_length": "16", "subject": "A2MYB6MLQW0IGN"}
{"rt": "20346.0", "trial_number": "0", "skipped": "False", "complete": "True", "assignment": "3TYCR1GOTDRCCQYD1V64UK7OE48LZS", "start_time": "1.51639015144e+12", "human_length": "14", "nodes_expanded": "999", "instance": "prb38526", "end_time": "1.51639017178e+12", "optimal_length": "11", "subject": "A2MYB6MLQW0IGN"}
{"rt": "300958.0", "trial_number": "0", "skipped": "False", "complete": "True", "assignment": "3TYCR1GOTDRCCQYD1V64UK7OE48LZS", "start_time": "1.51639017498e+12", "human_length": "134", "nodes_expanded": "999", "instance": "prb58853", "end_time": "1.51639047593e+12", "optimal_length": "16", "subject": "A2MYB6MLQW0IGN"}
{"rt": "39131.0", "trial_number": "0", "skipped": "False", "complete": "True", "assignment": "3TYCR1GOTDRCCQYD1V64UK7OE48LZS", "start_time": "1.51639049106e+12", "human_length": "23", "nodes_expanded": "999", "instance": "prb68514", "end_time": "1.51639053019e+12", "optimal_length": "14", "subject": "A2MYB6MLQW0IGN"}
{"rt": "17497.0", "trial_number": "0", "skipped": "False", "complete": "True", "assignment": "3TYCR1GOTDRCCQYD1V64UK7OE48LZS", "start_time": "1.516390542e+12", "human_length": "12", "nodes_expanded": "999", "instance": "prb14898", "end_time": "1.5163905595e+12", "optimal_length": "11", "subject": "A2MYB6MLQW0IGN"}
{"rt": "33750.0", "trial_number": "0", "skipped": "False", "complete": "True", "assignment": "3TYCR1GOTDRCCQYD1V64UK7OE48LZS", "start_time": "1.51639057284e+12", "human_length": "14", "nodes_expanded": "999", "instance": "prb29414", "end_time": "1.51639060659e+12", "optimal_length": "11", "subject": "A2MYB6MLQW0IGN"}
{"rt": "9942.0", "trial_number": "0", "skipped": "False", "complete": "True", "assignment": "3TYCR1GOTDRCCQYD1V64UK7OE48LZS", "start_time": "1.51639060920e+12", "human_length": "9", "nodes_expanded": "999", "instance": "prb13171", "end_time": "1.51639061915e+12", "optimal_length": "7", "subject": "A2MYB6MLQW0IGN"}
{"rt": "186747.0", "trial_number": "0", "skipped": "False", "complete": "True", "assignment": "3TYCR1GOTDRCCQYD1V64UK7OE48LZS", "start_time": "1.51639062779e+12", "human_length": "98", "nodes_expanded": "999", "instance": "prb46580", "end_time": "1.51639081454e+12", "optimal_length": "16", "subject": "A2MYB6MLQW0IGN"}
{"rt": "41757.0", "trial_number": "0", "skipped": "False", "complete": "True", "assignment": "3TYCR1GOTDRCCQYD1V64UK7OE48LZS", "start_time": "1.5163908369e+12", "human_length": "24", "nodes_expanded": "999", "instance": "prb55384", "end_time": "1.51639087866e+12", "optimal_length": "14", "subject": "A2MYB6MLQW0IGN"}
{"rt": "45417.0", "trial_number": "0", "skipped": "False", "complete": "True", "assignment": "3TYCR1GOTDRCCQYD1V64UK7OE48LZS", "start_time": "1.51639088963e+12", "human_length": "22", "nodes_expanded": "999", "instance": "prb29600", "end_time": "1.51639093504e+12", "optimal_length": "14", "subject": "A2MYB6MLQW0IGN"}
{"rt": "75947.0", "trial_number": "0", "skipped": "False", "complete": "True", "assignment": "3TYCR1GOTDRCCQYD1V64UK7OE48LZS", "start_time": "1.51639095114e+12", "human_length": "46", "nodes_expanded": "999", "instance": "prb38725", "end_time": "1.51639102708e+12", "optimal_length": "14", "subject": "A2MYB6MLQW0IGN"}
{"rt": "62762.0", "trial_number": "0", "skipped": "False", "complete": "True", "assignment": "3TYCR1GOTDRCCQYD1V64UK7OE48LZS", "start_time": "1.51639102972e+12", "human_length": "32", "nodes_expanded": "999", "instance": "prb62222", "end_time": "1.51639109248e+12", "optimal_length": "11", "subject": "A2MYB6MLQW0IGN"}
{"rt": "253650.0", "trial_number": "0", "skipped": "False", "complete": "True", "assignment": "3TYCR1GOTDRCCQYD1V64UK7OE48LZS", "start_time": "1.5163911019e+12", "human_length": "133", "nodes_expanded": "999", "instance": "prb1267", "end_time": "1.51639135555e+12", "optimal_length": "16", "subject": "A2MYB6MLQW0IGN"}
{"rt": "54933.0", "trial_number": "0", "skipped": "False", "complete": "True", "assignment": "3TYCR1GOTDRCCQYD1V64UK7OE48LZS", "start_time": "1.51639141088e+12", "human_length": "31", "nodes_expanded": "999", "instance": "prb29027", "end_time": "1.51639146581e+12", "optimal_length": "16", "subject": "A2MYB6MLQW0IGN"}
{"rt": "31949.0", "trial_number": "0", "skipped": "False", "complete": "True", "assignment": "3TYCR1GOTDRCCQYD1V64UK7OE48LZS", "start_time": "1.51639148819e+12", "human_length": "23", "nodes_expanded": "999", "instance": "prb12715", "end_time": "1.51639152014e+12", "optimal_length": "11", "subject": "A2MYB6MLQW0IGN"}
{"rt": "59189.0", "trial_number": "0", "skipped": "False", "complete": "True", "assignment": "3TYCR1GOTDRCCQYD1V64UK7OE48LZS", "start_time": "1.51639153078e+12", "human_length": "37", "nodes_expanded": "999", "instance": "prb72800", "end_time": "1.51639158997e+12", "optimal_length": "14", "subject": "A2MYB6MLQW0IGN"}
{"rt": "21843.0", "trial_number": "0", "skipped": "False", "complete": "True", "assignment": "3TYCR1GOTDRCCQYD1V64UK7OE48LZS", "start_time": "1.51639159552e+12", "human_length": "15", "nodes_expanded": "999", "instance": "prb79230", "end_time": "1.51639161736e+12", "optimal_length": "11", "subject": "A2MYB6MLQW0IGN"}
{"rt": "7026.0", "trial_number": "0", "skipped": "False", "complete": "True", "assignment": "3TYCR1GOTDRCCQYD1V64UK7OE48LZS", "start_time": "1.51639162149e+12", "human_length": "7", "nodes_expanded": "999", "instance": "prb10206", "end_time": "1.51639162852e+12", "optimal_length": "7", "subject": "A2MYB6MLQW0IGN"}
{"rt": "111633.0", "trial_number": "0", "skipped": "False", "complete": "True", "assignment": "3TYCR1GOTDRCCQYD1V64UK7OE48LZS", "start_time": "1.51639163272e+12", "human_length": "62", "nodes_expanded": "999", "instance": "prb46639", "end_time": "1.51639174435e+12", "optimal_length": "16", "subject": "A2MYB6MLQW0IGN"}
{"rt": "48709.0", "trial_number": "0", "skipped": "False", "complete": "True", "assignment": "3TYCR1GOTDRCCQYD1V64UK7OE48LZS", "start_time": "1.51639174552e+12", "human_length": "29", "nodes_expanded": "999", "instance": "prb24227", "end_time": "1.51639179423e+12", "optimal_length": "16", "subject": "A2MYB6MLQW0IGN"}
{"rt": "36134.0", "trial_number": "0", "skipped": "False", "complete": "True", "assignment": "3TYCR1GOTDRCCQYD1V64UK7OE48LZS", "start_time": "1.51639180235e+12", "human_length": "22", "nodes_expanded": "999", "instance": "prb34551", "end_time": "1.51639183848e+12", "optimal_length": "14", "subject": "A2MYB6MLQW0IGN"}
{"rt": "178967.0", "trial_number": "0", "skipped": "False", "complete": "True", "assignment": "3TYCR1GOTDRCCQYD1V64UK7OE48LZS", "start_time": "1.51639184336e+12", "human_length": "106", "nodes_expanded": "999", "instance": "prb44171", "end_time": "1.51639202233e+12", "optimal_length": "16", "subject": "A2MYB6MLQW0IGN"}
{"rt": "189714.0", "trial_number": "0", "skipped": "False", "complete": "True", "assignment": "3TYCR1GOTDRCCQYD1V64UK7OE48LZS", "start_time": "1.51639203522e+12", "human_length": "99", "nodes_expanded": "999", "instance": "prb25861", "end_time": "1.51639222493e+12", "optimal_length": "16", "subject": "A2MYB6MLQW0IGN"}
{"rt": "12174.0", "trial_number": "0", "skipped": "False", "complete": "True", "assignment": "3TYCR1GOTDRCCQYD1V64UK7OE48LZS", "start_time": "1.51639223435e+12", "human_length": "8", "nodes_expanded": "999", "instance": "prb11647", "end_time": "1.51639224652e+12", "optimal_length": "7", "subject": "A2MYB6MLQW0IGN"}
{"rt": "179599.0", "trial_number": "0", "skipped": "False", "complete": "True", "assignment": "3TYCR1GOTDRCCQYD1V64UK7OE48LZS", "start_time": "1.51639225249e+12", "human_length": "81", "nodes_expanded": "999", "instance": "prb343", "end_time": "1.51639243209e+12", "optimal_length": "14", "subject": "A2MYB6MLQW0IGN"}
{"rt": "60788.0", "trial_number": "0", "skipped": "False", "complete": "True", "assignment": "3TYCR1GOTDRCCQYD1V64UK7OE48LZS", "start_time": "1.51639244022e+12", "human_length": "39", "nodes_expanded": "999", "instance": "prb23404", "end_time": "1.516392501e+12", "optimal_length": "14", "subject": "A2MYB6MLQW0IGN"}
{"rt": "9284.0", "trial_number": "0", "skipped": "False", "complete": "True", "assignment": "34BBWHLWHBJ6SUL255PK30LEGY5IWG", "start_time": "1.51639076192e+12", "human_length": "8", "nodes_expanded": "999", "instance": "prb8786", "end_time": "1.5163907712e+12", "optimal_length": "7", "subject": "A214HWAW1PYWO8"}
{"rt": "117077.0", "trial_number": "0", "skipped": "False", "complete": "False", "assignment": "34BBWHLWHBJ6SUL255PK30LEGY5IWG", "start_time": "1.51639080463e+12", "human_length": "69", "nodes_expanded": "999", "instance": "prb54506", "end_time": "1.51639092170e+12", "optimal_length": "16", "subject": "A214HWAW1PYWO8"}
{"rt": "0.0", "trial_number": "1", "skipped": "False", "complete": "False", "assignment": "34BBWHLWHBJ6SUL255PK30LEGY5IWG", "start_time": "1.51639092783e+12", "human_length": "1", "nodes_expanded": "999", "instance": "prb54506", "end_time": "1.51639092783e+12", "optimal_length": "16", "subject": "A214HWAW1PYWO8"}
{"rt": "8166.0", "trial_number": "2", "skipped": "False", "complete": "False", "assignment": "34BBWHLWHBJ6SUL255PK30LEGY5IWG", "start_time": "1.51639092783e+12", "human_length": "6", "nodes_expanded": "999", "instance": "prb54506", "end_time": "1.516390936e+12", "optimal_length": "16", "subject": "A214HWAW1PYWO8"}
{"rt": "29255.0", "trial_number": "3", "skipped": "False", "complete": "True", "assignment": "34BBWHLWHBJ6SUL255PK30LEGY5IWG", "start_time": "1.51639094787e+12", "human_length": "25", "nodes_expanded": "999", "instance": "prb54506", "end_time": "1.51639097712e+12", "optimal_length": "16", "subject": "A214HWAW1PYWO8"}
{"rt": "20320.0", "trial_number": "0", "skipped": "False", "complete": "True", "assignment": "34BBWHLWHBJ6SUL255PK30LEGY5IWG", "start_time": "1.51639099531e+12", "human_length": "14", "nodes_expanded": "999", "instance": "prb19279", "end_time": "1.51639101563e+12", "optimal_length": "14", "subject": "A214HWAW1PYWO8"}
{"rt": "93347.0", "trial_number": "0", "skipped": "False", "complete": "True", "assignment": "34BBWHLWHBJ6SUL255PK30LEGY5IWG", "start_time": "1.51639102031e+12", "human_length": "30", "nodes_expanded": "999", "instance": "prb343", "end_time": "1.51639111366e+12", "optimal_length": "14", "subject": "A214HWAW1PYWO8"}
{"rt": "86189.0", "trial_number": "0", "skipped": "False", "complete": "True", "assignment": "34BBWHLWHBJ6SUL255PK30LEGY5IWG", "start_time": "1.51639111554e+12", "human_length": "11", "nodes_expanded": "999", "instance": "prb68910", "end_time": "1.51639120172e+12", "optimal_length": "11", "subject": "A214HWAW1PYWO8"}
{"rt": "0.0", "trial_number": "0", "skipped": "False", "complete": "False", "assignment": "34BBWHLWHBJ6SUL255PK30LEGY5IWG", "start_time": "1.51639121694e+12", "human_length": "1", "nodes_expanded": "999", "instance": "prb20888", "end_time": "1.51639121694e+12", "optimal_length": "14", "subject": "A214HWAW1PYWO8"}
{"rt": "38125.0", "trial_number": "1", "skipped": "False", "complete": "False", "assignment": "34BBWHLWHBJ6SUL255PK30LEGY5IWG", "start_time": "1.51639121717e+12", "human_length": "34", "nodes_expanded": "999", "instance": "prb20888", "end_time": "1.51639125529e+12", "optimal_length": "14", "subject": "A214HWAW1PYWO8"}
{"rt": "128791.0", "trial_number": "2", "skipped": "False", "complete": "True", "assignment": "34BBWHLWHBJ6SUL255PK30LEGY5IWG", "start_time": "1.51639129612e+12", "human_length": "28", "nodes_expanded": "999", "instance": "prb20888", "end_time": "1.51639142491e+12", "optimal_length": "14", "subject": "A214HWAW1PYWO8"}
{"rt": "8341.0", "trial_number": "0", "skipped": "False", "complete": "True", "assignment": "34BBWHLWHBJ6SUL255PK30LEGY5IWG", "start_time": "1.51639142963e+12", "human_length": "8", "nodes_expanded": "999", "instance": "prb32695", "end_time": "1.51639143798e+12", "optimal_length": "7", "subject": "A214HWAW1PYWO8"}
{"rt": "106382.0", "trial_number": "0", "skipped": "False", "complete": "True", "assignment": "34BBWHLWHBJ6SUL255PK30LEGY5IWG", "start_time": "1.5163914521e+12", "human_length": "10", "nodes_expanded": "999", "instance": "prb23259", "end_time": "1.51639155848e+12", "optimal_length": "7", "subject": "A214HWAW1PYWO8"}
{"rt": "23965.0", "trial_number": "0", "skipped": "False", "complete": "True", "assignment": "34BBWHLWHBJ6SUL255PK30LEGY5IWG", "start_time": "1.51639156467e+12", "human_length": "14", "nodes_expanded": "999", "instance": "prb23404", "end_time": "1.51639158864e+12", "optimal_length": "14", "subject": "A214HWAW1PYWO8"}
{"rt": "77123.0", "trial_number": "0", "skipped": "False", "complete": "True", "assignment": "34BBWHLWHBJ6SUL255PK30LEGY5IWG", "start_time": "1.51639158947e+12", "human_length": "22", "nodes_expanded": "999", "instance": "prb79230", "end_time": "1.51639166659e+12", "optimal_length": "11", "subject": "A214HWAW1PYWO8"}
{"rt": "33574.0", "trial_number": "0", "skipped": "False", "complete": "True", "assignment": "34BBWHLWHBJ6SUL255PK30LEGY5IWG", "start_time": "1.51639166736e+12", "human_length": "31", "nodes_expanded": "999", "instance": "prb14485", "end_time": "1.51639170093e+12", "optimal_length": "14", "subject": "A214HWAW1PYWO8"}
{"rt": "13606.0", "trial_number": "0", "skipped": "False", "complete": "True", "assignment": "34BBWHLWHBJ6SUL255PK30LEGY5IWG", "start_time": "1.51639170168e+12", "human_length": "18", "nodes_expanded": "999", "instance": "prb29585", "end_time": "1.51639171528e+12", "optimal_length": "14", "subject": "A214HWAW1PYWO8"}
{"rt": "18322.0", "trial_number": "0", "skipped": "False", "complete": "True", "assignment": "34BBWHLWHBJ6SUL255PK30LEGY5IWG", "start_time": "1.51639171588e+12", "human_length": "12", "nodes_expanded": "999", "instance": "prb38526", "end_time": "1.5163917342e+12", "optimal_length": "11", "subject": "A214HWAW1PYWO8"}
{"rt": "99539.0", "trial_number": "0", "skipped": "False", "complete": "True", "assignment": "34BBWHLWHBJ6SUL255PK30LEGY5IWG", "start_time": "1.51639173483e+12", "human_length": "7", "nodes_expanded": "999", "instance": "prb20059", "end_time": "1.51639183437e+12", "optimal_length": "7", "subject": "A214HWAW1PYWO8"}
{"rt": "11352.0", "trial_number": "0", "skipped": "False", "complete": "True", "assignment": "34BBWHLWHBJ6SUL255PK30LEGY5IWG", "start_time": "1.51639183503e+12", "human_length": "15", "nodes_expanded": "999", "instance": "prb12715", "end_time": "1.51639184638e+12", "optimal_length": "11", "subject": "A214HWAW1PYWO8"}
{"rt": "5474.0", "trial_number": "0", "skipped": "False", "complete": "True", "assignment": "34BBWHLWHBJ6SUL255PK30LEGY5IWG", "start_time": "1.51639184698e+12", "human_length": "9", "nodes_expanded": "999", "instance": "prb29232", "end_time": "1.51639185246e+12", "optimal_length": "7", "subject": "A214HWAW1PYWO8"}
{"rt": "24607.0", "trial_number": "0", "skipped": "False", "complete": "True", "assignment": "34BBWHLWHBJ6SUL255PK30LEGY5IWG", "start_time": "1.51639185304e+12", "human_length": "26", "nodes_expanded": "999", "instance": "prb62015", "end_time": "1.51639187765e+12", "optimal_length": "11", "subject": "A214HWAW1PYWO8"}
{"rt": "26430.0", "trial_number": "0", "skipped": "False", "complete": "False", "assignment": "34BBWHLWHBJ6SUL255PK30LEGY5IWG", "start_time": "1.51639187827e+12", "human_length": "25", "nodes_expanded": "999", "instance": "prb57223", "end_time": "1.5163919047e+12", "optimal_length": "16", "subject": "A214HWAW1PYWO8"}
{"rt": "0.0", "trial_number": "1", "skipped": "False", "complete": "False", "assignment": "34BBWHLWHBJ6SUL255PK30LEGY5IWG", "start_time": "1.51639190626e+12", "human_length": "1", "nodes_expanded": "999", "instance": "prb57223", "end_time": "1.51639190626e+12", "optimal_length": "16", "subject": "A214HWAW1PYWO8"}
{"rt": "124128.0", "trial_number": "2", "skipped": "False", "complete": "True", "assignment": "34BBWHLWHBJ6SUL255PK30LEGY5IWG", "start_time": "1.51639191339e+12", "human_length": "19", "nodes_expanded": "999", "instance": "prb57223", "end_time": "1.51639203752e+12", "optimal_length": "16", "subject": "A214HWAW1PYWO8"}
{"rt": "37936.0", "trial_number": "0", "skipped": "False", "complete": "False", "assignment": "34BBWHLWHBJ6SUL255PK30LEGY5IWG", "start_time": "1.51639203816e+12", "human_length": "39", "nodes_expanded": "999", "instance": "prb46224", "end_time": "1.51639207609e+12", "optimal_length": "11", "subject": "A214HWAW1PYWO8"}
{"rt": "21819.0", "trial_number": "1", "skipped": "False", "complete": "True", "assignment": "34BBWHLWHBJ6SUL255PK30LEGY5IWG", "start_time": "1.51639210726e+12", "human_length": "17", "nodes_expanded": "999", "instance": "prb46224", "end_time": "1.51639212908e+12", "optimal_length": "11", "subject": "A214HWAW1PYWO8"}
{"rt": "142313.0", "trial_number": "0", "skipped": "False", "complete": "False", "assignment": "34BBWHLWHBJ6SUL255PK30LEGY5IWG", "start_time": "1.51639215748e+12", "human_length": "17", "nodes_expanded": "999", "instance": "prb3203", "end_time": "1.5163922998e+12", "optimal_length": "14", "subject": "A214HWAW1PYWO8"}
{"rt": "28346.0", "trial_number": "1", "skipped": "False", "complete": "True", "assignment": "34BBWHLWHBJ6SUL255PK30LEGY5IWG", "start_time": "1.51639230419e+12", "human_length": "20", "nodes_expanded": "999", "instance": "prb3203", "end_time": "1.51639233254e+12", "optimal_length": "14", "subject": "A214HWAW1PYWO8"}
{"rt": "21701.0", "trial_number": "0", "skipped": "False", "complete": "True", "assignment": "34BBWHLWHBJ6SUL255PK30LEGY5IWG", "start_time": "1.51639233312e+12", "human_length": "23", "nodes_expanded": "999", "instance": "prb47495", "end_time": "1.51639235482e+12", "optimal_length": "14", "subject": "A214HWAW1PYWO8"}
{"rt": "5292.0", "trial_number": "0", "skipped": "False", "complete": "True", "assignment": "34BBWHLWHBJ6SUL255PK30LEGY5IWG", "start_time": "1.51639235535e+12", "human_length": "7", "nodes_expanded": "999", "instance": "prb26567", "end_time": "1.51639236064e+12", "optimal_length": "7", "subject": "A214HWAW1PYWO8"}
{"rt": "7912.0", "trial_number": "0", "skipped": "False", "complete": "True", "assignment": "34BBWHLWHBJ6SUL255PK30LEGY5IWG", "start_time": "1.51639236115e+12", "human_length": "10", "nodes_expanded": "999", "instance": "prb32795", "end_time": "1.51639236906e+12", "optimal_length": "7", "subject": "A214HWAW1PYWO8"}
{"rt": "30743.0", "trial_number": "0", "skipped": "False", "complete": "True", "assignment": "34BBWHLWHBJ6SUL255PK30LEGY5IWG", "start_time": "1.5163923696e+12", "human_length": "38", "nodes_expanded": "999", "instance": "prb3217", "end_time": "1.51639240034e+12", "optimal_length": "11", "subject": "A214HWAW1PYWO8"}
{"rt": "14920.0", "trial_number": "0", "skipped": "False", "complete": "True", "assignment": "34BBWHLWHBJ6SUL255PK30LEGY5IWG", "start_time": "1.51639240088e+12", "human_length": "20", "nodes_expanded": "999", "instance": "prb14047", "end_time": "1.5163924158e+12", "optimal_length": "7", "subject": "A214HWAW1PYWO8"}
{"rt": "16679.0", "trial_number": "0", "skipped": "False", "complete": "True", "assignment": "34BBWHLWHBJ6SUL255PK30LEGY5IWG", "start_time": "1.51639241632e+12", "human_length": "22", "nodes_expanded": "999", "instance": "prb25604", "end_time": "1.516392433e+12", "optimal_length": "16", "subject": "A214HWAW1PYWO8"}
{"rt": "17854.0", "trial_number": "0", "skipped": "False", "complete": "True", "assignment": "34BBWHLWHBJ6SUL255PK30LEGY5IWG", "start_time": "1.5163924343e+12", "human_length": "21", "nodes_expanded": "999", "instance": "prb55384", "end_time": "1.51639245215e+12", "optimal_length": "14", "subject": "A214HWAW1PYWO8"}
{"rt": "30333.0", "trial_number": "0", "skipped": "False", "complete": "False", "assignment": "34BBWHLWHBJ6SUL255PK30LEGY5IWG", "start_time": "1.51639245269e+12", "human_length": "24", "nodes_expanded": "999", "instance": "prb10166", "end_time": "1.51639248303e+12", "optimal_length": "16", "subject": "A214HWAW1PYWO8"}
{"rt": "96476.0", "trial_number": "1", "skipped": "False", "complete": "False", "assignment": "34BBWHLWHBJ6SUL255PK30LEGY5IWG", "start_time": "1.51639248391e+12", "human_length": "40", "nodes_expanded": "999", "instance": "prb10166", "end_time": "1.51639258038e+12", "optimal_length": "16", "subject": "A214HWAW1PYWO8"}
{"rt": "0.0", "trial_number": "2", "skipped": "False", "complete": "False", "assignment": "34BBWHLWHBJ6SUL255PK30LEGY5IWG", "start_time": "1.51639258218e+12", "human_length": "1", "nodes_expanded": "999", "instance": "prb10166", "end_time": "1.51639258218e+12", "optimal_length": "16", "subject": "A214HWAW1PYWO8"}
{"rt": "0.0", "trial_number": "3", "skipped": "False", "complete": "False", "assignment": "34BBWHLWHBJ6SUL255PK30LEGY5IWG", "start_time": "1.51639259928e+12", "human_length": "1", "nodes_expanded": "999", "instance": "prb10166", "end_time": "1.51639259928e+12", "optimal_length": "16", "subject": "A214HWAW1PYWO8"}
{"rt": "0.0", "trial_number": "4", "skipped": "False", "complete": "False", "assignment": "34BBWHLWHBJ6SUL255PK30LEGY5IWG", "start_time": "1.5163926003e+12", "human_length": "1", "nodes_expanded": "999", "instance": "prb10166", "end_time": "1.5163926003e+12", "optimal_length": "16", "subject": "A214HWAW1PYWO8"}
{"rt": "0.0", "trial_number": "5", "skipped": "False", "complete": "False", "assignment": "34BBWHLWHBJ6SUL255PK30LEGY5IWG", "start_time": "1.51639260095e+12", "human_length": "1", "nodes_expanded": "999", "instance": "prb10166", "end_time": "1.51639260095e+12", "optimal_length": "16", "subject": "A214HWAW1PYWO8"}
{"rt": "0.0", "trial_number": "6", "skipped": "False", "complete": "False", "assignment": "34BBWHLWHBJ6SUL255PK30LEGY5IWG", "start_time": "1.51639260107e+12", "human_length": "1", "nodes_expanded": "999", "instance": "prb10166", "end_time": "1.51639260107e+12", "optimal_length": "16", "subject": "A214HWAW1PYWO8"}
{"rt": "0.0", "trial_number": "7", "skipped": "False", "complete": "False", "assignment": "34BBWHLWHBJ6SUL255PK30LEGY5IWG", "start_time": "1.5163926014e+12", "human_length": "1", "nodes_expanded": "999", "instance": "prb10166", "end_time": "1.5163926014e+12", "optimal_length": "16", "subject": "A214HWAW1PYWO8"}
{"rt": "0.0", "trial_number": "8", "skipped": "False", "complete": "False", "assignment": "34BBWHLWHBJ6SUL255PK30LEGY5IWG", "start_time": "1.51639260156e+12", "human_length": "1", "nodes_expanded": "999", "instance": "prb10166", "end_time": "1.51639260156e+12", "optimal_length": "16", "subject": "A214HWAW1PYWO8"}
{"rt": "0.0", "trial_number": "9", "skipped": "False", "complete": "False", "assignment": "34BBWHLWHBJ6SUL255PK30LEGY5IWG", "start_time": "1.51639260193e+12", "human_length": "1", "nodes_expanded": "999", "instance": "prb10166", "end_time": "1.51639260193e+12", "optimal_length": "16", "subject": "A214HWAW1PYWO8"}
{"rt": "0.0", "trial_number": "10", "skipped": "False", "complete": "False", "assignment": "34BBWHLWHBJ6SUL255PK30LEGY5IWG", "start_time": "1.51639260601e+12", "human_length": "1", "nodes_expanded": "999", "instance": "prb10166", "end_time": "1.51639260601e+12", "optimal_length": "16", "subject": "A214HWAW1PYWO8"}
{"rt": "0.0", "trial_number": "11", "skipped": "False", "complete": "False", "assignment": "34BBWHLWHBJ6SUL255PK30LEGY5IWG", "start_time": "1.51639260647e+12", "human_length": "1", "nodes_expanded": "999", "instance": "prb10166", "end_time": "1.51639260647e+12", "optimal_length": "16", "subject": "A214HWAW1PYWO8"}
{"rt": "0.0", "trial_number": "12", "skipped": "False", "complete": "False", "assignment": "34BBWHLWHBJ6SUL255PK30LEGY5IWG", "start_time": "1.51639260662e+12", "human_length": "1", "nodes_expanded": "999", "instance": "prb10166", "end_time": "1.51639260662e+12", "optimal_length": "16", "subject": "A214HWAW1PYWO8"}
{"rt": "0.0", "trial_number": "13", "skipped": "False", "complete": "False", "assignment": "34BBWHLWHBJ6SUL255PK30LEGY5IWG", "start_time": "1.51639260756e+12", "human_length": "1", "nodes_expanded": "999", "instance": "prb10166", "end_time": "1.51639260756e+12", "optimal_length": "16", "subject": "A214HWAW1PYWO8"}
{"rt": "0.0", "trial_number": "14", "skipped": "False", "complete": "False", "assignment": "34BBWHLWHBJ6SUL255PK30LEGY5IWG", "start_time": "1.51639260771e+12", "human_length": "1", "nodes_expanded": "999", "instance": "prb10166", "end_time": "1.51639260771e+12", "optimal_length": "16", "subject": "A214HWAW1PYWO8"}
{"rt": "0.0", "trial_number": "15", "skipped": "False", "complete": "False", "assignment": "34BBWHLWHBJ6SUL255PK30LEGY5IWG", "start_time": "1.51639260858e+12", "human_length": "1", "nodes_expanded": "999", "instance": "prb10166", "end_time": "1.51639260858e+12", "optimal_length": "16", "subject": "A214HWAW1PYWO8"}
{"rt": "6852.0", "trial_number": "16", "skipped": "False", "complete": "False", "assignment": "34BBWHLWHBJ6SUL255PK30LEGY5IWG", "start_time": "1.51639260872e+12", "human_length": "10", "nodes_expanded": "999", "instance": "prb10166", "end_time": "1.51639261558e+12", "optimal_length": "16", "subject": "A214HWAW1PYWO8"}
{"rt": "13584.0", "trial_number": "17", "skipped": "True", "complete": "False", "assignment": "34BBWHLWHBJ6SUL255PK30LEGY5IWG", "start_time": "1.51639261661e+12", "human_length": "9", "nodes_expanded": "999", "instance": "prb10166", "end_time": "1.5163926302e+12", "optimal_length": "16", "subject": "A214HWAW1PYWO8"}
{"rt": "10170.0", "trial_number": "0", "skipped": "False", "complete": "True", "assignment": "34BBWHLWHBJ6SUL255PK30LEGY5IWG", "start_time": "1.51639263126e+12", "human_length": "10", "nodes_expanded": "999", "instance": "prb12604", "end_time": "1.51639264143e+12", "optimal_length": "7", "subject": "A214HWAW1PYWO8"}
{"rt": "18280.0", "trial_number": "0", "skipped": "False", "complete": "True", "assignment": "34BBWHLWHBJ6SUL255PK30LEGY5IWG", "start_time": "1.51639264205e+12", "human_length": "28", "nodes_expanded": "999", "instance": "prb24406", "end_time": "1.51639266033e+12", "optimal_length": "16", "subject": "A214HWAW1PYWO8"}
{"rt": "56861.0", "trial_number": "0", "skipped": "False", "complete": "True", "assignment": "34BBWHLWHBJ6SUL255PK30LEGY5IWG", "start_time": "1.51639266105e+12", "human_length": "44", "nodes_expanded": "999", "instance": "prb78361", "end_time": "1.51639271791e+12", "optimal_length": "16", "subject": "A214HWAW1PYWO8"}
{"rt": "13944.0", "trial_number": "0", "skipped": "False", "complete": "False", "assignment": "34BBWHLWHBJ6SUL255PK30LEGY5IWG", "start_time": "1.51639271845e+12", "human_length": "7", "nodes_expanded": "999", "instance": "prb29600", "end_time": "1.5163927324e+12", "optimal_length": "14", "subject": "A214HWAW1PYWO8"}
{"rt": "25946.0", "trial_number": "1", "skipped": "False", "complete": "True", "assignment": "34BBWHLWHBJ6SUL255PK30LEGY5IWG", "start_time": "1.51639273390e+12", "human_length": "18", "nodes_expanded": "999", "instance": "prb29600", "end_time": "1.51639275985e+12", "optimal_length": "14", "subject": "A214HWAW1PYWO8"}
{"rt": "32808.0", "trial_number": "0", "skipped": "False", "complete": "True", "assignment": "34BBWHLWHBJ6SUL255PK30LEGY5IWG", "start_time": "1.51639276041e+12", "human_length": "31", "nodes_expanded": "999", "instance": "prb14898", "end_time": "1.51639279322e+12", "optimal_length": "11", "subject": "A214HWAW1PYWO8"}
{"rt": "121882.0", "trial_number": "0", "skipped": "False", "complete": "True", "assignment": "34BBWHLWHBJ6SUL255PK30LEGY5IWG", "start_time": "1.51639279383e+12", "human_length": "13", "nodes_expanded": "999", "instance": "prb62222", "end_time": "1.51639291571e+12", "optimal_length": "11", "subject": "A214HWAW1PYWO8"}
{"rt": "15236.0", "trial_number": "0", "skipped": "False", "complete": "True", "assignment": "34BBWHLWHBJ6SUL255PK30LEGY5IWG", "start_time": "1.51639291631e+12", "human_length": "14", "nodes_expanded": "999", "instance": "prb6671", "end_time": "1.51639293154e+12", "optimal_length": "14", "subject": "A214HWAW1PYWO8"}
{"rt": "8547.0", "trial_number": "0", "skipped": "False", "complete": "True", "assignment": "34BBWHLWHBJ6SUL255PK30LEGY5IWG", "start_time": "1.51639293296e+12", "human_length": "7", "nodes_expanded": "999", "instance": "prb2834", "end_time": "1.51639294151e+12", "optimal_length": "7", "subject": "A214HWAW1PYWO8"}
{"rt": "35918.0", "trial_number": "0", "skipped": "False", "complete": "False", "assignment": "34BBWHLWHBJ6SUL255PK30LEGY5IWG", "start_time": "1.5163929428e+12", "human_length": "25", "nodes_expanded": "999", "instance": "prb42959", "end_time": "1.51639297872e+12", "optimal_length": "11", "subject": "A214HWAW1PYWO8"}
{"rt": "12859.0", "trial_number": "1", "skipped": "False", "complete": "True", "assignment": "34BBWHLWHBJ6SUL255PK30LEGY5IWG", "start_time": "1.51639298093e+12", "human_length": "12", "nodes_expanded": "999", "instance": "prb42959", "end_time": "1.51639299379e+12", "optimal_length": "11", "subject": "A214HWAW1PYWO8"}
{"rt": "12753.0", "trial_number": "0", "skipped": "False", "complete": "True", "assignment": "34BBWHLWHBJ6SUL255PK30LEGY5IWG", "start_time": "1.51639299450e+12", "human_length": "16", "nodes_expanded": "999", "instance": "prb54081", "end_time": "1.51639300726e+12", "optimal_length": "11", "subject": "A214HWAW1PYWO8"}
{"rt": "25702.0", "trial_number": "0", "skipped": "False", "complete": "True", "assignment": "34BBWHLWHBJ6SUL255PK30LEGY5IWG", "start_time": "1.51639300805e+12", "human_length": "23", "nodes_expanded": "999", "instance": "prb31907", "end_time": "1.51639303375e+12", "optimal_length": "11", "subject": "A214HWAW1PYWO8"}
{"rt": "31092.0", "trial_number": "0", "skipped": "False", "complete": "True", "assignment": "34BBWHLWHBJ6SUL255PK30LEGY5IWG", "start_time": "1.51639303566e+12", "human_length": "35", "nodes_expanded": "999", "instance": "prb15595", "end_time": "1.51639306676e+12", "optimal_length": "16", "subject": "A214HWAW1PYWO8"}
{"rt": "7379.0", "trial_number": "0", "skipped": "False", "complete": "True", "assignment": "34BBWHLWHBJ6SUL255PK30LEGY5IWG", "start_time": "1.5163930674e+12", "human_length": "8", "nodes_expanded": "999", "instance": "prb28111", "end_time": "1.51639307477e+12", "optimal_length": "7", "subject": "A214HWAW1PYWO8"}
{"rt": "49562.0", "trial_number": "0", "skipped": "False", "complete": "True", "assignment": "34BBWHLWHBJ6SUL255PK30LEGY5IWG", "start_time": "1.51639307528e+12", "human_length": "45", "nodes_expanded": "999", "instance": "prb48146", "end_time": "1.51639312484e+12", "optimal_length": "16", "subject": "A214HWAW1PYWO8"}
{"rt": "43909.0", "trial_number": "0", "skipped": "False", "complete": "False", "assignment": "34BBWHLWHBJ6SUL255PK30LEGY5IWG", "start_time": "1.51639312684e+12", "human_length": "21", "nodes_expanded": "999", "instance": "prb29027", "end_time": "1.51639317075e+12", "optimal_length": "16", "subject": "A214HWAW1PYWO8"}
{"rt": "28856.0", "trial_number": "1", "skipped": "False", "complete": "True", "assignment": "34BBWHLWHBJ6SUL255PK30LEGY5IWG", "start_time": "1.51639317127e+12", "human_length": "24", "nodes_expanded": "999", "instance": "prb29027", "end_time": "1.51639320012e+12", "optimal_length": "16", "subject": "A214HWAW1PYWO8"}
{"rt": "10731.0", "trial_number": "0", "skipped": "False", "complete": "True", "assignment": "34BBWHLWHBJ6SUL255PK30LEGY5IWG", "start_time": "1.51639320481e+12", "human_length": "14", "nodes_expanded": "999", "instance": "prb38725", "end_time": "1.51639321554e+12", "optimal_length": "14", "subject": "A214HWAW1PYWO8"}
{"rt": "9603.0", "trial_number": "0", "skipped": "False", "complete": "True", "assignment": "34BBWHLWHBJ6SUL255PK30LEGY5IWG", "start_time": "1.51639321825e+12", "human_length": "11", "nodes_expanded": "999", "instance": "prb21272", "end_time": "1.51639322786e+12", "optimal_length": "7", "subject": "A214HWAW1PYWO8"}
{"rt": "12302.0", "trial_number": "0", "skipped": "False", "complete": "True", "assignment": "34BBWHLWHBJ6SUL255PK30LEGY5IWG", "start_time": "1.51639322842e+12", "human_length": "14", "nodes_expanded": "999", "instance": "prb717", "end_time": "1.51639324072e+12", "optimal_length": "11", "subject": "A214HWAW1PYWO8"}
{"rt": "95505.0", "trial_number": "0", "skipped": "False", "complete": "False", "assignment": "34BBWHLWHBJ6SUL255PK30LEGY5IWG", "start_time": "1.51639324393e+12", "human_length": "26", "nodes_expanded": "999", "instance": "prb25861", "end_time": "1.51639333943e+12", "optimal_length": "16", "subject": "A214HWAW1PYWO8"}
{"rt": "50137.0", "trial_number": "1", "skipped": "False", "complete": "False", "assignment": "34BBWHLWHBJ6SUL255PK30LEGY5IWG", "start_time": "1.51639334129e+12", "human_length": "29", "nodes_expanded": "999", "instance": "prb25861", "end_time": "1.51639339143e+12", "optimal_length": "16", "subject": "A214HWAW1PYWO8"}
{"rt": "8189.0", "trial_number": "2", "skipped": "False", "complete": "False", "assignment": "34BBWHLWHBJ6SUL255PK30LEGY5IWG", "start_time": "1.5163933948e+12", "human_length": "9", "nodes_expanded": "999", "instance": "prb25861", "end_time": "1.51639340299e+12", "optimal_length": "16", "subject": "A214HWAW1PYWO8"}
{"rt": "38720.0", "trial_number": "3", "skipped": "True", "complete": "False", "assignment": "34BBWHLWHBJ6SUL255PK30LEGY5IWG", "start_time": "1.5163934044e+12", "human_length": "25", "nodes_expanded": "999", "instance": "prb25861", "end_time": "1.51639344312e+12", "optimal_length": "16", "subject": "A214HWAW1PYWO8"}
{"rt": "32097.0", "trial_number": "0", "skipped": "False", "complete": "False", "assignment": "34BBWHLWHBJ6SUL255PK30LEGY5IWG", "start_time": "1.51639344432e+12", "human_length": "22", "nodes_expanded": "999", "instance": "prb24227", "end_time": "1.51639347642e+12", "optimal_length": "16", "subject": "A214HWAW1PYWO8"}
{"rt": "30102.0", "trial_number": "1", "skipped": "False", "complete": "True", "assignment": "34BBWHLWHBJ6SUL255PK30LEGY5IWG", "start_time": "1.51639347809e+12", "human_length": "18", "nodes_expanded": "999", "instance": "prb24227", "end_time": "1.51639350819e+12", "optimal_length": "16", "subject": "A214HWAW1PYWO8"}
{"rt": "9837.0", "trial_number": "0", "skipped": "False", "complete": "True", "assignment": "34BBWHLWHBJ6SUL255PK30LEGY5IWG", "start_time": "1.51639351049e+12", "human_length": "10", "nodes_expanded": "999", "instance": "prb1707", "end_time": "1.51639352033e+12", "optimal_length": "7", "subject": "A214HWAW1PYWO8"}
{"rt": "12800.0", "trial_number": "0", "skipped": "False", "complete": "True", "assignment": "34BBWHLWHBJ6SUL255PK30LEGY5IWG", "start_time": "1.5163935233e+12", "human_length": "9", "nodes_expanded": "999", "instance": "prb11647", "end_time": "1.5163935361e+12", "optimal_length": "7", "subject": "A214HWAW1PYWO8"}
{"rt": "40235.0", "trial_number": "0", "skipped": "False", "complete": "True", "assignment": "34BBWHLWHBJ6SUL255PK30LEGY5IWG", "start_time": "1.51639353785e+12", "human_length": "32", "nodes_expanded": "999", "instance": "prb45893", "end_time": "1.51639357809e+12", "optimal_length": "16", "subject": "A214HWAW1PYWO8"}
{"rt": "27662.0", "trial_number": "0", "skipped": "False", "complete": "False", "assignment": "34BBWHLWHBJ6SUL255PK30LEGY5IWG", "start_time": "1.51639357942e+12", "human_length": "19", "nodes_expanded": "999", "instance": "prb9718", "end_time": "1.51639360708e+12", "optimal_length": "11", "subject": "A214HWAW1PYWO8"}
{"rt": "20345.0", "trial_number": "1", "skipped": "False", "complete": "False", "assignment": "34BBWHLWHBJ6SUL255PK30LEGY5IWG", "start_time": "1.51639360837e+12", "human_length": "16", "nodes_expanded": "999", "instance": "prb9718", "end_time": "1.51639362872e+12", "optimal_length": "11", "subject": "A214HWAW1PYWO8"}
{"rt": "31777.0", "trial_number": "2", "skipped": "False", "complete": "False", "assignment": "34BBWHLWHBJ6SUL255PK30LEGY5IWG", "start_time": "1.51639363175e+12", "human_length": "3", "nodes_expanded": "999", "instance": "prb9718", "end_time": "1.51639366352e+12", "optimal_length": "11", "subject": "A214HWAW1PYWO8"}
{"rt": "42691.0", "trial_number": "3", "skipped": "False", "complete": "True", "assignment": "34BBWHLWHBJ6SUL255PK30LEGY5IWG", "start_time": "1.51639367053e+12", "human_length": "34", "nodes_expanded": "999", "instance": "prb9718", "end_time": "1.51639371322e+12", "optimal_length": "11", "subject": "A214HWAW1PYWO8"}
{"rt": "0.0", "trial_number": "0", "skipped": "False", "complete": "False", "assignment": "34BBWHLWHBJ6SUL255PK30LEGY5IWG", "start_time": "1.51639371862e+12", "human_length": "1", "nodes_expanded": "999", "instance": "prb46639", "end_time": "1.51639371862e+12", "optimal_length": "16", "subject": "A214HWAW1PYWO8"}
{"rt": "14669.0", "trial_number": "1", "skipped": "False", "complete": "False", "assignment": "34BBWHLWHBJ6SUL255PK30LEGY5IWG", "start_time": "1.5163937188e+12", "human_length": "12", "nodes_expanded": "999", "instance": "prb46639", "end_time": "1.51639373346e+12", "optimal_length": "16", "subject": "A214HWAW1PYWO8"}
{"rt": "31286.0", "trial_number": "2", "skipped": "False", "complete": "False", "assignment": "34BBWHLWHBJ6SUL255PK30LEGY5IWG", "start_time": "1.51639373585e+12", "human_length": "24", "nodes_expanded": "999", "instance": "prb46639", "end_time": "1.51639376713e+12", "optimal_length": "16", "subject": "A214HWAW1PYWO8"}
{"rt": "36360.0", "trial_number": "3", "skipped": "True", "complete": "False", "assignment": "34BBWHLWHBJ6SUL255PK30LEGY5IWG", "start_time": "1.5163937708e+12", "human_length": "14", "nodes_expanded": "999", "instance": "prb46639", "end_time": "1.51639380716e+12", "optimal_length": "16", "subject": "A214HWAW1PYWO8"}
{"rt": "9675.0", "trial_number": "0", "skipped": "False", "complete": "True", "assignment": "34BBWHLWHBJ6SUL255PK30LEGY5IWG", "start_time": "1.51639382457e+12", "human_length": "13", "nodes_expanded": "999", "instance": "prb29414", "end_time": "1.51639383424e+12", "optimal_length": "11", "subject": "A214HWAW1PYWO8"}
{"rt": "60016.0", "trial_number": "0", "skipped": "False", "complete": "True", "assignment": "34BBWHLWHBJ6SUL255PK30LEGY5IWG", "start_time": "1.51639383856e+12", "human_length": "18", "nodes_expanded": "999", "instance": "prb34092", "end_time": "1.51639389858e+12", "optimal_length": "11", "subject": "A214HWAW1PYWO8"}
{"rt": "18700.0", "trial_number": "0", "skipped": "False", "complete": "True", "assignment": "34BBWHLWHBJ6SUL255PK30LEGY5IWG", "start_time": "1.51639390423e+12", "human_length": "15", "nodes_expanded": "999", "instance": "prb65535", "end_time": "1.51639392293e+12", "optimal_length": "14", "subject": "A214HWAW1PYWO8"}
{"rt": "37647.0", "trial_number": "0", "skipped": "False", "complete": "True", "assignment": "34BBWHLWHBJ6SUL255PK30LEGY5IWG", "start_time": "1.51639392793e+12", "human_length": "23", "nodes_expanded": "999", "instance": "prb72800", "end_time": "1.51639396558e+12", "optimal_length": "14", "subject": "A214HWAW1PYWO8"}
{"rt": "65118.0", "trial_number": "0", "skipped": "False", "complete": "True", "assignment": "34BBWHLWHBJ6SUL255PK30LEGY5IWG", "start_time": "1.516393976e+12", "human_length": "16", "nodes_expanded": "999", "instance": "prb68514", "end_time": "1.51639404112e+12", "optimal_length": "14", "subject": "A214HWAW1PYWO8"}
{"rt": "46946.0", "trial_number": "0", "skipped": "False", "complete": "False", "assignment": "34BBWHLWHBJ6SUL255PK30LEGY5IWG", "start_time": "1.51639404703e+12", "human_length": "15", "nodes_expanded": "999", "instance": "prb33117", "end_time": "1.51639409398e+12", "optimal_length": "14", "subject": "A214HWAW1PYWO8"}
{"rt": "59317.0", "trial_number": "1", "skipped": "False", "complete": "True", "assignment": "34BBWHLWHBJ6SUL255PK30LEGY5IWG", "start_time": "1.51639409598e+12", "human_length": "16", "nodes_expanded": "999", "instance": "prb33117", "end_time": "1.5163941553e+12", "optimal_length": "14", "subject": "A214HWAW1PYWO8"}
{"rt": "36101.0", "trial_number": "0", "skipped": "False", "complete": "False", "assignment": "34BBWHLWHBJ6SUL255PK30LEGY5IWG", "start_time": "1.5163941626e+12", "human_length": "24", "nodes_expanded": "999", "instance": "prb1267", "end_time": "1.5163941987e+12", "optimal_length": "16", "subject": "A214HWAW1PYWO8"}
{"rt": "45120.0", "trial_number": "1", "skipped": "False", "complete": "True", "assignment": "34BBWHLWHBJ6SUL255PK30LEGY5IWG", "start_time": "1.51639420437e+12", "human_length": "38", "nodes_expanded": "999", "instance": "prb1267", "end_time": "1.51639424949e+12", "optimal_length": "16", "subject": "A214HWAW1PYWO8"}
{"rt": "10799.0", "trial_number": "0", "skipped": "False", "complete": "True", "assignment": "34BBWHLWHBJ6SUL255PK30LEGY5IWG", "start_time": "1.51639425694e+12", "human_length": "10", "nodes_expanded": "999", "instance": "prb14651", "end_time": "1.51639426774e+12", "optimal_length": "7", "subject": "A214HWAW1PYWO8"}
{"rt": "25055.0", "trial_number": "0", "skipped": "True", "complete": "False", "assignment": "34BBWHLWHBJ6SUL255PK30LEGY5IWG", "start_time": "1.51639427121e+12", "human_length": "13", "nodes_expanded": "999", "instance": "prb58853", "end_time": "1.51639429626e+12", "optimal_length": "16", "subject": "A214HWAW1PYWO8"}
{"rt": "17690.0", "trial_number": "0", "skipped": "False", "complete": "True", "assignment": "34BBWHLWHBJ6SUL255PK30LEGY5IWG", "start_time": "1.51639429894e+12", "human_length": "14", "nodes_expanded": "999", "instance": "prb22436", "end_time": "1.51639431663e+12", "optimal_length": "11", "subject": "A214HWAW1PYWO8"}
{"rt": "39202.0", "trial_number": "0", "skipped": "False", "complete": "True", "assignment": "34BBWHLWHBJ6SUL255PK30LEGY5IWG", "start_time": "1.51639432291e+12", "human_length": "30", "nodes_expanded": "999", "instance": "prb33509", "end_time": "1.51639436211e+12", "optimal_length": "11", "subject": "A214HWAW1PYWO8"}
{"rt": "6779.0", "trial_number": "0", "skipped": "False", "complete": "True", "assignment": "34BBWHLWHBJ6SUL255PK30LEGY5IWG", "start_time": "1.51639437651e+12", "human_length": "7", "nodes_expanded": "999", "instance": "prb10206", "end_time": "1.51639438329e+12", "optimal_length": "7", "subject": "A214HWAW1PYWO8"}
{"rt": "6535.0", "trial_number": "0", "skipped": "False", "complete": "True", "assignment": "34BBWHLWHBJ6SUL255PK30LEGY5IWG", "start_time": "1.51639438788e+12", "human_length": "7", "nodes_expanded": "999", "instance": "prb13171", "end_time": "1.51639439442e+12", "optimal_length": "7", "subject": "A214HWAW1PYWO8"}
{"rt": "7520.0", "trial_number": "0", "skipped": "False", "complete": "True", "assignment": "34BBWHLWHBJ6SUL255PK30LEGY5IWG", "start_time": "1.51639440295e+12", "human_length": "7", "nodes_expanded": "999", "instance": "prb15290", "end_time": "1.51639441047e+12", "optimal_length": "7", "subject": "A214HWAW1PYWO8"}
{"rt": "27713.0", "trial_number": "0", "skipped": "False", "complete": "True", "assignment": "34BBWHLWHBJ6SUL255PK30LEGY5IWG", "start_time": "1.51639441343e+12", "human_length": "22", "nodes_expanded": "999", "instance": "prb46580", "end_time": "1.51639444114e+12", "optimal_length": "16", "subject": "A214HWAW1PYWO8"}
{"rt": "23204.0", "trial_number": "0", "skipped": "False", "complete": "True", "assignment": "34BBWHLWHBJ6SUL255PK30LEGY5IWG", "start_time": "1.51639452633e+12", "human_length": "24", "nodes_expanded": "999", "instance": "prb34551", "end_time": "1.51639454953e+12", "optimal_length": "14", "subject": "A214HWAW1PYWO8"}
{"rt": "28707.0", "trial_number": "0", "skipped": "False", "complete": "True", "assignment": "34BBWHLWHBJ6SUL255PK30LEGY5IWG", "start_time": "1.5163945602e+12", "human_length": "27", "nodes_expanded": "999", "instance": "prb44171", "end_time": "1.51639458890e+12", "optimal_length": "16", "subject": "A214HWAW1PYWO8"}
