{"meta_move": "drag_end", "rt": "8401.0", "trial_number": "1", "pre_actions": "1", "move": "4@2", "instance": "prb15290", "distance_to_goal": "NA", "progress": "NA", "move_number": "0", "optimal_length": "7", "subject": "A15FXHC1CVNW31:3TS1AR6UQRM7SOIBWPBN8N9589Y7FV"}
{"meta_move": "drag_end", "rt": "1248.0", "trial_number": "1", "pre_actions": "1", "move": "1@32", "instance": "prb15290", "distance_to_goal": "NA", "progress": "NA", "move_number": "1", "optimal_length": "7", "subject": "A15FXHC1CVNW31:3TS1AR6UQRM7SOIBWPBN8N9589Y7FV"}
{"meta_move": "drag_end", "rt": "583.0", "trial_number": "1", "pre_actions": "1", "move": "0@21", "instance": "prb15290", "distance_to_goal": "NA", "progress": "NA", "move_number": "1", "optimal_length": "7", "subject": "A15FXHC1CVNW31:3TS1AR6UQRM7SOIBWPBN8N9589Y7FV"}
{"meta_move": "drag_end", "rt": "618.0", "trial_number": "1", "pre_actions": "1", "move": "5@22", "instance": "prb15290", "distance_to_goal": "NA", "progress": "NA", "move_number": "2", "optimal_length": "7", "subject": "A15FXHC1CVNW31:3TS1AR6UQRM7SOIBWPBN8N9589Y7FV"}
{"meta_move": "drag_end", "rt": "521.0", "trial_number": "1", "pre_actions": "1", "move": "2@29", "instance": "prb15290", "distance_to_goal": "NA", "progress": "NA", "move_number": "3", "optimal_length": "7", "subject": "A15FXHC1CVNW31:3TS1AR6UQRM7SOIBWPBN8N9589Y7FV"}
{"meta_move": "drag_end", "rt": "931.0", "trial_number": "1", "pre_actions": "1", "move": "4@14", "instance": "prb15290", "distance_to_goal": "NA", "progress": "NA", "move_number": "4", "optimal_length": "7", "subject": "A15FXHC1CVNW31:3TS1AR6UQRM7SOIBWPBN8N9589Y7FV"}
{"meta_move": "drag_end", "rt": "1088.0", "trial_number": "1", "pre_actions": "1", "move": "4@2", "instance": "prb15290", "distance_to_goal": "NA", "progress": "NA", "move_number": "5", "optimal_length": "7", "subject": "A15FXHC1CVNW31:3TS1AR6UQRM7SOIBWPBN8N9589Y7FV"}
{"meta_move": "drag_end", "rt": "482.0", "trial_number": "1", "pre_actions": "1", "move": "0@3", "instance": "prb15290", "distance_to_goal": "NA", "progress": "NA", "move_number": "6", "optimal_length": "7", "subject": "A15FXHC1CVNW31:3TS1AR6UQRM7SOIBWPBN8N9589Y7FV"}
{"meta_move": "drag_end", "rt": "528.0", "trial_number": "1", "pre_actions": "1", "move": "5@10", "instance": "prb15290", "distance_to_goal": "NA", "progress": "NA", "move_number": "7", "optimal_length": "7", "subject": "A15FXHC1CVNW31:3TS1AR6UQRM7SOIBWPBN8N9589Y7FV"}
{"meta_move": "drag_end", "rt": "1189.0", "trial_number": "1", "pre_actions": "1", "move": "2@11", "instance": "prb15290", "distance_to_goal": "NA", "progress": "NA", "move_number": "8", "optimal_length": "7", "subject": "A15FXHC1CVNW31:3TS1AR6UQRM7SOIBWPBN8N9589Y7FV"}
{"meta_move": "drag_end", "rt": "1515.0", "trial_number": "1", "pre_actions": "1", "move": "1@33", "instance": "prb15290", "distance_to_goal": "NA", "progress": "NA", "move_number": "9", "optimal_length": "7", "subject": "A15FXHC1CVNW31:3TS1AR6UQRM7SOIBWPBN8N9589Y7FV"}
{"meta_move": "drag_end", "rt": "583.0", "trial_number": "1", "pre_actions": "1", "move": "4@20", "instance": "prb15290", "distance_to_goal": "NA", "progress": "NA", "move_number": "10", "optimal_length": "7", "subject": "A15FXHC1CVNW31:3TS1AR6UQRM7SOIBWPBN8N9589Y7FV"}
{"meta_move": "drag_end", "rt": "737.0", "trial_number": "1", "pre_actions": "1", "move": "0@21", "instance": "prb15290", "distance_to_goal": "NA", "progress": "NA", "move_number": "11", "optimal_length": "7", "subject": "A15FXHC1CVNW31:3TS1AR6UQRM7SOIBWPBN8N9589Y7FV"}
{"meta_move": "drag_end", "rt": "499.0", "trial_number": "1", "pre_actions": "1", "move": "5@22", "instance": "prb15290", "distance_to_goal": "NA", "progress": "NA", "move_number": "12", "optimal_length": "7", "subject": "A15FXHC1CVNW31:3TS1AR6UQRM7SOIBWPBN8N9589Y7FV"}
{"meta_move": "drag_end", "rt": "1327.0", "trial_number": "1", "pre_actions": "1", "move": "2@23", "instance": "prb15290", "distance_to_goal": "NA", "progress": "NA", "move_number": "13", "optimal_length": "7", "subject": "A15FXHC1CVNW31:3TS1AR6UQRM7SOIBWPBN8N9589Y7FV"}
{"meta_move": "win", "rt": "658.0", "trial_number": "1", "pre_actions": "1", "move": "r@12", "instance": "prb15290", "distance_to_goal": "1", "progress": "NA", "move_number": "14", "optimal_length": "7", "subject": "A15FXHC1CVNW31:3TS1AR6UQRM7SOIBWPBN8N9589Y7FV"}
{"meta_move": "drag_end", "rt": "134.0", "trial_number": "0", "pre_actions": "0", "move": "r@16", "instance": "prb15290", "distance_to_goal": "NA", "progress": "NA", "move_number": "14", "optimal_length": "7", "subject": "A15FXHC1CVNW31:3TS1AR6UQRM7SOIBWPBN8N9589Y7FV"}
{"meta_move": "drag_end", "rt": "6196.0", "trial_number": "1", "pre_actions": "1", "move": "7@1", "instance": "prb15290", "distance_to_goal": "NA", "progress": "NA", "move_number": "0", "optimal_length": "7", "subject": "A18QU0YQB6Q8DF:3VE8AYVF8N5BS2NU6U3TMN50JMNF8V"}
{"meta_move": "drag_end", "rt": "3314.0", "trial_number": "1", "pre_actions": "1", "move": "1@33", "instance": "prb15290", "distance_to_goal": "NA", "progress": "NA", "move_number": "1", "optimal_length": "7", "subject": "A18QU0YQB6Q8DF:3VE8AYVF8N5BS2NU6U3TMN50JMNF8V"}
{"meta_move": "drag_end", "rt": "955.0", "trial_number": "1", "pre_actions": "1", "move": "4@20", "instance": "prb15290", "distance_to_goal": "NA", "progress": "NA", "move_number": "2", "optimal_length": "7", "subject": "A18QU0YQB6Q8DF:3VE8AYVF8N5BS2NU6U3TMN50JMNF8V"}
{"meta_move": "drag_end", "rt": "1198.0", "trial_number": "1", "pre_actions": "1", "move": "0@3", "instance": "prb15290", "distance_to_goal": "NA", "progress": "NA", "move_number": "3", "optimal_length": "7", "subject": "A18QU0YQB6Q8DF:3VE8AYVF8N5BS2NU6U3TMN50JMNF8V"}
{"meta_move": "drag_end", "rt": "802.0", "trial_number": "1", "pre_actions": "1", "move": "5@4", "instance": "prb15290", "distance_to_goal": "NA", "progress": "NA", "move_number": "4", "optimal_length": "7", "subject": "A18QU0YQB6Q8DF:3VE8AYVF8N5BS2NU6U3TMN50JMNF8V"}
{"meta_move": "drag_end", "rt": "1316.0", "trial_number": "1", "pre_actions": "1", "move": "2@5", "instance": "prb15290", "distance_to_goal": "NA", "progress": "NA", "move_number": "5", "optimal_length": "7", "subject": "A18QU0YQB6Q8DF:3VE8AYVF8N5BS2NU6U3TMN50JMNF8V"}
{"meta_move": "win", "rt": "1030.0", "trial_number": "1", "pre_actions": "1", "move": "r@12", "instance": "prb15290", "distance_to_goal": "1", "progress": "NA", "move_number": "6", "optimal_length": "7", "subject": "A18QU0YQB6Q8DF:3VE8AYVF8N5BS2NU6U3TMN50JMNF8V"}
{"meta_move": "drag_end", "rt": "292.0", "trial_number": "0", "pre_actions": "0", "move": "r@16", "instance": "prb15290", "distance_to_goal": "NA", "progress": "NA", "move_number": "6", "optimal_length": "7", "subject": "A18QU0YQB6Q8DF:3VE8AYVF8N5BS2NU6U3TMN50JMNF8V"}
{"meta_move": "drag_end", "rt": "2503.0", "trial_number": "1", "pre_actions": "1", "move": "1@33", "instance": "prb15290", "distance_to_goal": "NA", "progress": "NA", "move_number": "0", "optimal_length": "7", "subject": "A191V7PT3DQKDP:3PMBY0YE28B43VMUKKJ6EDF85RV9C8"}
{"meta_move": "drag_end", "rt": "689.0", "trial_number": "1", "pre_actions": "1", "move": "4@20", "instance": "prb15290", "distance_to_goal": "NA", "progress": "NA", "move_number": "1", "optimal_length": "7", "subject": "A191V7PT3DQKDP:3PMBY0YE28B43VMUKKJ6EDF85RV9C8"}
{"meta_move": "drag_end", "rt": "911.0", "trial_number": "1", "pre_actions": "1", "move": "0@21", "instance": "prb15290", "distance_to_goal": "NA", "progress": "NA", "move_number": "2", "optimal_length": "7", "subject": "A191V7PT3DQKDP:3PMBY0YE28B43VMUKKJ6EDF85RV9C8"}
{"meta_move": "drag_end", "rt": "992.0", "trial_number": "1", "pre_actions": "1", "move": "7@1", "instance": "prb15290", "distance_to_goal": "NA", "progress": "NA", "move_number": "3", "optimal_length": "7", "subject": "A191V7PT3DQKDP:3PMBY0YE28B43VMUKKJ6EDF85RV9C8"}
{"meta_move": "drag_end", "rt": "641.0", "trial_number": "1", "pre_actions": "1", "move": "5@4", "instance": "prb15290", "distance_to_goal": "NA", "progress": "NA", "move_number": "4", "optimal_length": "7", "subject": "A191V7PT3DQKDP:3PMBY0YE28B43VMUKKJ6EDF85RV9C8"}
{"meta_move": "drag_end", "rt": "616.0", "trial_number": "1", "pre_actions": "1", "move": "2@5", "instance": "prb15290", "distance_to_goal": "NA", "progress": "NA", "move_number": "5", "optimal_length": "7", "subject": "A191V7PT3DQKDP:3PMBY0YE28B43VMUKKJ6EDF85RV9C8"}
{"meta_move": "win", "rt": "658.0", "trial_number": "1", "pre_actions": "1", "move": "r@12", "instance": "prb15290", "distance_to_goal": "1", "progress": "NA", "move_number": "6", "optimal_length": "7", "subject": "A191V7PT3DQKDP:3PMBY0YE28B43VMUKKJ6EDF85RV9C8"}
{"meta_move": "drag_end", "rt": "229.0", "trial_number": "0", "pre_actions": "0", "move": "r@16", "instance": "prb15290", "distance_to_goal": "NA", "progress": "NA", "move_number": "6", "optimal_length": "7", "subject": "A191V7PT3DQKDP:3PMBY0YE28B43VMUKKJ6EDF85RV9C8"}
{"meta_move": "drag_end", "rt": "3716.0", "trial_number": "2", "pre_actions": "1", "move": "1@33", "instance": "prb15290", "distance_to_goal": "NA", "progress": "NA", "move_number": "0", "optimal_length": "7", "subject": "A1F4N58CAX8IMK:3TS1AR6UQRM7SOIBWPBN8N9589Y7FV"}
{"meta_move": "drag_end", "rt": "679.0", "trial_number": "2", "pre_actions": "1", "move": "4@20", "instance": "prb15290", "distance_to_goal": "NA", "progress": "NA", "move_number": "1", "optimal_length": "7", "subject": "A1F4N58CAX8IMK:3TS1AR6UQRM7SOIBWPBN8N9589Y7FV"}
{"meta_move": "drag_end", "rt": "761.0", "trial_number": "2", "pre_actions": "1", "move": "0@21", "instance": "prb15290", "distance_to_goal": "NA", "progress": "NA", "move_number": "2", "optimal_length": "7", "subject": "A1F4N58CAX8IMK:3TS1AR6UQRM7SOIBWPBN8N9589Y7FV"}
{"meta_move": "drag_end", "rt": "720.0", "trial_number": "2", "pre_actions": "1", "move": "5@22", "instance": "prb15290", "distance_to_goal": "NA", "progress": "NA", "move_number": "3", "optimal_length": "7", "subject": "A1F4N58CAX8IMK:3TS1AR6UQRM7SOIBWPBN8N9589Y7FV"}
{"meta_move": "drag_end", "rt": "480.0", "trial_number": "2", "pre_actions": "1", "move": "2@23", "instance": "prb15290", "distance_to_goal": "NA", "progress": "NA", "move_number": "4", "optimal_length": "7", "subject": "A1F4N58CAX8IMK:3TS1AR6UQRM7SOIBWPBN8N9589Y7FV"}
{"meta_move": "win", "rt": "694.0", "trial_number": "2", "pre_actions": "1", "move": "r@12", "instance": "prb15290", "distance_to_goal": "1", "progress": "NA", "move_number": "5", "optimal_length": "7", "subject": "A1F4N58CAX8IMK:3TS1AR6UQRM7SOIBWPBN8N9589Y7FV"}
{"meta_move": "drag_end", "rt": "105.0", "trial_number": "0", "pre_actions": "0", "move": "r@16", "instance": "prb15290", "distance_to_goal": "NA", "progress": "NA", "move_number": "5", "optimal_length": "7", "subject": "A1F4N58CAX8IMK:3TS1AR6UQRM7SOIBWPBN8N9589Y7FV"}
{"meta_move": "drag_end", "rt": "1352.0", "trial_number": "1", "pre_actions": "1", "move": "2@29", "instance": "prb15290", "distance_to_goal": "NA", "progress": "NA", "move_number": "0", "optimal_length": "7", "subject": "A1LR0VQIHQUJAM:3YW4XOSQKRTI0K0Z2YPDTDJVFABU1I"}
{"meta_move": "drag_end", "rt": "710.0", "trial_number": "1", "pre_actions": "1", "move": "5@22", "instance": "prb15290", "distance_to_goal": "NA", "progress": "NA", "move_number": "1", "optimal_length": "7", "subject": "A1LR0VQIHQUJAM:3YW4XOSQKRTI0K0Z2YPDTDJVFABU1I"}
{"meta_move": "drag_end", "rt": "824.0", "trial_number": "1", "pre_actions": "1", "move": "0@3", "instance": "prb15290", "distance_to_goal": "NA", "progress": "NA", "move_number": "2", "optimal_length": "7", "subject": "A1LR0VQIHQUJAM:3YW4XOSQKRTI0K0Z2YPDTDJVFABU1I"}
{"meta_move": "drag_end", "rt": "3491.0", "trial_number": "1", "pre_actions": "1", "move": "4@14", "instance": "prb15290", "distance_to_goal": "NA", "progress": "NA", "move_number": "3", "optimal_length": "7", "subject": "A1LR0VQIHQUJAM:3YW4XOSQKRTI0K0Z2YPDTDJVFABU1I"}
{"meta_move": "drag_end", "rt": "1495.0", "trial_number": "1", "pre_actions": "1", "move": "2@23", "instance": "prb15290", "distance_to_goal": "NA", "progress": "NA", "move_number": "3", "optimal_length": "7", "subject": "A1LR0VQIHQUJAM:3YW4XOSQKRTI0K0Z2YPDTDJVFABU1I"}
{"meta_move": "drag_end", "rt": "536.0", "trial_number": "1", "pre_actions": "1", "move": "1@33", "instance": "prb15290", "distance_to_goal": "NA", "progress": "NA", "move_number": "4", "optimal_length": "7", "subject": "A1LR0VQIHQUJAM:3YW4XOSQKRTI0K0Z2YPDTDJVFABU1I"}
{"meta_move": "drag_end", "rt": "630.0", "trial_number": "1", "pre_actions": "1", "move": "4@20", "instance": "prb15290", "distance_to_goal": "NA", "progress": "NA", "move_number": "5", "optimal_length": "7", "subject": "A1LR0VQIHQUJAM:3YW4XOSQKRTI0K0Z2YPDTDJVFABU1I"}
{"meta_move": "win", "rt": "616.0", "trial_number": "1", "pre_actions": "1", "move": "r@12", "instance": "prb15290", "distance_to_goal": "1", "progress": "NA", "move_number": "6", "optimal_length": "7", "subject": "A1LR0VQIHQUJAM:3YW4XOSQKRTI0K0Z2YPDTDJVFABU1I"}
{"meta_move": "drag_end", "rt": "95.0", "trial_number": "0", "pre_actions": "0", "move": "r@16", "instance": "prb15290", "distance_to_goal": "NA", "progress": "NA", "move_number": "6", "optimal_length": "7", "subject": "A1LR0VQIHQUJAM:3YW4XOSQKRTI0K0Z2YPDTDJVFABU1I"}
{"meta_move": "drag_end", "rt": "4966.0", "trial_number": "1", "pre_actions": "1", "move": "1@33", "instance": "prb15290", "distance_to_goal": "NA", "progress": "NA", "move_number": "0", "optimal_length": "7", "subject": "A214HWAW1PYWO8:34BBWHLWHBJ6SUL255PK30LEGY5IWG"}
{"meta_move": "drag_end", "rt": "623.0", "trial_number": "1", "pre_actions": "1", "move": "4@20", "instance": "prb15290", "distance_to_goal": "NA", "progress": "NA", "move_number": "1", "optimal_length": "7", "subject": "A214HWAW1PYWO8:34BBWHLWHBJ6SUL255PK30LEGY5IWG"}
{"meta_move": "drag_end", "rt": "463.0", "trial_number": "1", "pre_actions": "1", "move": "0@21", "instance": "prb15290", "distance_to_goal": "NA", "progress": "NA", "move_number": "2", "optimal_length": "7", "subject": "A214HWAW1PYWO8:34BBWHLWHBJ6SUL255PK30LEGY5IWG"}
{"meta_move": "drag_end", "rt": "540.0", "trial_number": "1", "pre_actions": "1", "move": "5@22", "instance": "prb15290", "distance_to_goal": "NA", "progress": "NA", "move_number": "3", "optimal_length": "7", "subject": "A214HWAW1PYWO8:34BBWHLWHBJ6SUL255PK30LEGY5IWG"}
{"meta_move": "drag_end", "rt": "336.0", "trial_number": "1", "pre_actions": "1", "move": "2@23", "instance": "prb15290", "distance_to_goal": "NA", "progress": "NA", "move_number": "4", "optimal_length": "7", "subject": "A214HWAW1PYWO8:34BBWHLWHBJ6SUL255PK30LEGY5IWG"}
{"meta_move": "win", "rt": "535.0", "trial_number": "1", "pre_actions": "1", "move": "r@12", "instance": "prb15290", "distance_to_goal": "1", "progress": "NA", "move_number": "5", "optimal_length": "7", "subject": "A214HWAW1PYWO8:34BBWHLWHBJ6SUL255PK30LEGY5IWG"}
{"meta_move": "drag_end", "rt": "57.0", "trial_number": "0", "pre_actions": "0", "move": "r@16", "instance": "prb15290", "distance_to_goal": "NA", "progress": "NA", "move_number": "5", "optimal_length": "7", "subject": "A214HWAW1PYWO8:34BBWHLWHBJ6SUL255PK30LEGY5IWG"}
{"meta_move": "drag_end", "rt": "4940.0", "trial_number": "1", "pre_actions": "1", "move": "4@2", "instance": "prb15290", "distance_to_goal": "NA", "progress": "NA", "move_number": "0", "optimal_length": "7", "subject": "A21S7MA9DCW95E:3X87C8JFV7JQ2BSCY8KSFD9F2ILSQK"}
{"meta_move": "drag_end", "rt": "2152.0", "trial_number": "1", "pre_actions": "1", "move": "0@3", "instance": "prb15290", "distance_to_goal": "NA", "progress": "NA", "move_number": "1", "optimal_length": "7", "subject": "A21S7MA9DCW95E:3X87C8JFV7JQ2BSCY8KSFD9F2ILSQK"}
{"meta_move": "drag_end", "rt": "2341.0", "trial_number": "1", "pre_actions": "1", "move": "1@33", "instance": "prb15290", "distance_to_goal": "NA", "progress": "NA", "move_number": "2", "optimal_length": "7", "subject": "A21S7MA9DCW95E:3X87C8JFV7JQ2BSCY8KSFD9F2ILSQK"}
{"meta_move": "drag_end", "rt": "1238.0", "trial_number": "1", "pre_actions": "1", "move": "4@20", "instance": "prb15290", "distance_to_goal": "NA", "progress": "NA", "move_number": "3", "optimal_length": "7", "subject": "A21S7MA9DCW95E:3X87C8JFV7JQ2BSCY8KSFD9F2ILSQK"}
{"meta_move": "drag_end", "rt": "1118.0", "trial_number": "1", "pre_actions": "1", "move": "r@14", "instance": "prb15290", "distance_to_goal": "NA", "progress": "NA", "move_number": "4", "optimal_length": "7", "subject": "A21S7MA9DCW95E:3X87C8JFV7JQ2BSCY8KSFD9F2ILSQK"}
{"meta_move": "drag_end", "rt": "1192.0", "trial_number": "1", "pre_actions": "1", "move": "6@1", "instance": "prb15290", "distance_to_goal": "NA", "progress": "NA", "move_number": "5", "optimal_length": "7", "subject": "A21S7MA9DCW95E:3X87C8JFV7JQ2BSCY8KSFD9F2ILSQK"}
{"meta_move": "drag_end", "rt": "1804.0", "trial_number": "1", "pre_actions": "1", "move": "5@22", "instance": "prb15290", "distance_to_goal": "NA", "progress": "NA", "move_number": "6", "optimal_length": "7", "subject": "A21S7MA9DCW95E:3X87C8JFV7JQ2BSCY8KSFD9F2ILSQK"}
{"meta_move": "drag_end", "rt": "774.0", "trial_number": "1", "pre_actions": "1", "move": "2@23", "instance": "prb15290", "distance_to_goal": "NA", "progress": "NA", "move_number": "7", "optimal_length": "7", "subject": "A21S7MA9DCW95E:3X87C8JFV7JQ2BSCY8KSFD9F2ILSQK"}
{"meta_move": "win", "rt": "1013.0", "trial_number": "1", "pre_actions": "1", "move": "r@14", "instance": "prb15290", "distance_to_goal": "1", "progress": "NA", "move_number": "8", "optimal_length": "7", "subject": "A21S7MA9DCW95E:3X87C8JFV7JQ2BSCY8KSFD9F2ILSQK"}
{"meta_move": "drag_end", "rt": "270.0", "trial_number": "0", "pre_actions": "0", "move": "r@16", "instance": "prb15290", "distance_to_goal": "NA", "progress": "NA", "move_number": "8", "optimal_length": "7", "subject": "A21S7MA9DCW95E:3X87C8JFV7JQ2BSCY8KSFD9F2ILSQK"}
{"meta_move": "drag_end", "rt": "120.0", "trial_number": "2", "pre_actions": "1", "move": "0@15", "instance": "prb15290", "distance_to_goal": "NA", "progress": "NA", "move_number": "0", "optimal_length": "7", "subject": "A23437BMZ5T1FH:3IHR8NYAM89M0EPM8U9LH53ZJDTP4U"}
{"meta_move": "drag_end", "rt": "3360.0", "trial_number": "2", "pre_actions": "1", "move": "7@1", "instance": "prb15290", "distance_to_goal": "NA", "progress": "NA", "move_number": "0", "optimal_length": "7", "subject": "A23437BMZ5T1FH:3IHR8NYAM89M0EPM8U9LH53ZJDTP4U"}
{"meta_move": "drag_end", "rt": "717.0", "trial_number": "2", "pre_actions": "1", "move": "5@4", "instance": "prb15290", "distance_to_goal": "NA", "progress": "NA", "move_number": "1", "optimal_length": "7", "subject": "A23437BMZ5T1FH:3IHR8NYAM89M0EPM8U9LH53ZJDTP4U"}
{"meta_move": "drag_end", "rt": "1041.0", "trial_number": "2", "pre_actions": "1", "move": "2@5", "instance": "prb15290", "distance_to_goal": "NA", "progress": "NA", "move_number": "2", "optimal_length": "7", "subject": "A23437BMZ5T1FH:3IHR8NYAM89M0EPM8U9LH53ZJDTP4U"}
{"meta_move": "drag_end", "rt": "936.0", "trial_number": "2", "pre_actions": "1", "move": "1@33", "instance": "prb15290", "distance_to_goal": "NA", "progress": "NA", "move_number": "3", "optimal_length": "7", "subject": "A23437BMZ5T1FH:3IHR8NYAM89M0EPM8U9LH53ZJDTP4U"}
{"meta_move": "drag_end", "rt": "680.0", "trial_number": "2", "pre_actions": "1", "move": "4@20", "instance": "prb15290", "distance_to_goal": "NA", "progress": "NA", "move_number": "4", "optimal_length": "7", "subject": "A23437BMZ5T1FH:3IHR8NYAM89M0EPM8U9LH53ZJDTP4U"}
{"meta_move": "drag_end", "rt": "609.0", "trial_number": "2", "pre_actions": "1", "move": "0@3", "instance": "prb15290", "distance_to_goal": "NA", "progress": "NA", "move_number": "5", "optimal_length": "7", "subject": "A23437BMZ5T1FH:3IHR8NYAM89M0EPM8U9LH53ZJDTP4U"}
{"meta_move": "win", "rt": "609.0", "trial_number": "2", "pre_actions": "1", "move": "r@12", "instance": "prb15290", "distance_to_goal": "1", "progress": "NA", "move_number": "6", "optimal_length": "7", "subject": "A23437BMZ5T1FH:3IHR8NYAM89M0EPM8U9LH53ZJDTP4U"}
{"meta_move": "drag_end", "rt": "111.0", "trial_number": "0", "pre_actions": "0", "move": "r@16", "instance": "prb15290", "distance_to_goal": "NA", "progress": "NA", "move_number": "6", "optimal_length": "7", "subject": "A23437BMZ5T1FH:3IHR8NYAM89M0EPM8U9LH53ZJDTP4U"}
{"meta_move": "drag_end", "rt": "12623.0", "trial_number": "1", "pre_actions": "1", "move": "7@1", "instance": "prb15290", "distance_to_goal": "NA", "progress": "NA", "move_number": "0", "optimal_length": "7", "subject": "A289D98Z4GAZ28:3ZV9H2YQQEFR2R3JK2IXZUJPXAF3WW"}
{"meta_move": "drag_end", "rt": "2124.0", "trial_number": "1", "pre_actions": "1", "move": "5@4", "instance": "prb15290", "distance_to_goal": "NA", "progress": "NA", "move_number": "1", "optimal_length": "7", "subject": "A289D98Z4GAZ28:3ZV9H2YQQEFR2R3JK2IXZUJPXAF3WW"}
{"meta_move": "drag_end", "rt": "1359.0", "trial_number": "1", "pre_actions": "1", "move": "2@17", "instance": "prb15290", "distance_to_goal": "NA", "progress": "NA", "move_number": "2", "optimal_length": "7", "subject": "A289D98Z4GAZ28:3ZV9H2YQQEFR2R3JK2IXZUJPXAF3WW"}
{"meta_move": "drag_end", "rt": "4175.0", "trial_number": "1", "pre_actions": "1", "move": "7@2", "instance": "prb15290", "distance_to_goal": "NA", "progress": "NA", "move_number": "2", "optimal_length": "7", "subject": "A289D98Z4GAZ28:3ZV9H2YQQEFR2R3JK2IXZUJPXAF3WW"}
{"meta_move": "drag_end", "rt": "3699.0", "trial_number": "1", "pre_actions": "1", "move": "1@33", "instance": "prb15290", "distance_to_goal": "NA", "progress": "NA", "move_number": "3", "optimal_length": "7", "subject": "A289D98Z4GAZ28:3ZV9H2YQQEFR2R3JK2IXZUJPXAF3WW"}
{"meta_move": "drag_end", "rt": "2609.0", "trial_number": "1", "pre_actions": "1", "move": "4@20", "instance": "prb15290", "distance_to_goal": "NA", "progress": "NA", "move_number": "4", "optimal_length": "7", "subject": "A289D98Z4GAZ28:3ZV9H2YQQEFR2R3JK2IXZUJPXAF3WW"}
{"meta_move": "drag_end", "rt": "1079.0", "trial_number": "1", "pre_actions": "1", "move": "r@13", "instance": "prb15290", "distance_to_goal": "NA", "progress": "NA", "move_number": "5", "optimal_length": "7", "subject": "A289D98Z4GAZ28:3ZV9H2YQQEFR2R3JK2IXZUJPXAF3WW"}
{"meta_move": "drag_end", "rt": "613.0", "trial_number": "1", "pre_actions": "1", "move": "0@21", "instance": "prb15290", "distance_to_goal": "NA", "progress": "NA", "move_number": "6", "optimal_length": "7", "subject": "A289D98Z4GAZ28:3ZV9H2YQQEFR2R3JK2IXZUJPXAF3WW"}
{"meta_move": "drag_end", "rt": "794.0", "trial_number": "1", "pre_actions": "1", "move": "r@15", "instance": "prb15290", "distance_to_goal": "NA", "progress": "NA", "move_number": "7", "optimal_length": "7", "subject": "A289D98Z4GAZ28:3ZV9H2YQQEFR2R3JK2IXZUJPXAF3WW"}
{"meta_move": "drag_end", "rt": "863.0", "trial_number": "1", "pre_actions": "1", "move": "6@1", "instance": "prb15290", "distance_to_goal": "NA", "progress": "NA", "move_number": "8", "optimal_length": "7", "subject": "A289D98Z4GAZ28:3ZV9H2YQQEFR2R3JK2IXZUJPXAF3WW"}
{"meta_move": "drag_end", "rt": "1035.0", "trial_number": "1", "pre_actions": "1", "move": "4@8", "instance": "prb15290", "distance_to_goal": "NA", "progress": "NA", "move_number": "9", "optimal_length": "7", "subject": "A289D98Z4GAZ28:3ZV9H2YQQEFR2R3JK2IXZUJPXAF3WW"}
{"meta_move": "drag_end", "rt": "1416.0", "trial_number": "1", "pre_actions": "1", "move": "1@30", "instance": "prb15290", "distance_to_goal": "NA", "progress": "NA", "move_number": "10", "optimal_length": "7", "subject": "A289D98Z4GAZ28:3ZV9H2YQQEFR2R3JK2IXZUJPXAF3WW"}
{"meta_move": "drag_end", "rt": "1002.0", "trial_number": "1", "pre_actions": "1", "move": "2@29", "instance": "prb15290", "distance_to_goal": "NA", "progress": "NA", "move_number": "11", "optimal_length": "7", "subject": "A289D98Z4GAZ28:3ZV9H2YQQEFR2R3JK2IXZUJPXAF3WW"}
{"meta_move": "win", "rt": "640.0", "trial_number": "1", "pre_actions": "1", "move": "r@15", "instance": "prb15290", "distance_to_goal": "1", "progress": "NA", "move_number": "12", "optimal_length": "7", "subject": "A289D98Z4GAZ28:3ZV9H2YQQEFR2R3JK2IXZUJPXAF3WW"}
{"meta_move": "drag_end", "rt": "260.0", "trial_number": "0", "pre_actions": "0", "move": "r@16", "instance": "prb15290", "distance_to_goal": "NA", "progress": "NA", "move_number": "12", "optimal_length": "7", "subject": "A289D98Z4GAZ28:3ZV9H2YQQEFR2R3JK2IXZUJPXAF3WW"}
{"meta_move": "drag_end", "rt": "5068.0", "trial_number": "1", "pre_actions": "1", "move": "2@29", "instance": "prb15290", "distance_to_goal": "NA", "progress": "NA", "move_number": "0", "optimal_length": "7", "subject": "A2IBQA01NR5N76:3X4MXAO0BHWJLTOLVSJTHSM54OHWRG"}
{"meta_move": "drag_end", "rt": "825.0", "trial_number": "1", "pre_actions": "1", "move": "5@22", "instance": "prb15290", "distance_to_goal": "NA", "progress": "NA", "move_number": "1", "optimal_length": "7", "subject": "A2IBQA01NR5N76:3X4MXAO0BHWJLTOLVSJTHSM54OHWRG"}
{"meta_move": "drag_end", "rt": "1061.0", "trial_number": "1", "pre_actions": "1", "move": "0@21", "instance": "prb15290", "distance_to_goal": "NA", "progress": "NA", "move_number": "2", "optimal_length": "7", "subject": "A2IBQA01NR5N76:3X4MXAO0BHWJLTOLVSJTHSM54OHWRG"}
{"meta_move": "drag_end", "rt": "1727.0", "trial_number": "1", "pre_actions": "1", "move": "4@2", "instance": "prb15290", "distance_to_goal": "NA", "progress": "NA", "move_number": "3", "optimal_length": "7", "subject": "A2IBQA01NR5N76:3X4MXAO0BHWJLTOLVSJTHSM54OHWRG"}
{"meta_move": "drag_end", "rt": "3922.0", "trial_number": "1", "pre_actions": "1", "move": "4@2", "instance": "prb15290", "distance_to_goal": "NA", "progress": "NA", "move_number": "4", "optimal_length": "7", "subject": "A2IBQA01NR5N76:3X4MXAO0BHWJLTOLVSJTHSM54OHWRG"}
{"meta_move": "drag_end", "rt": "1463.0", "trial_number": "1", "pre_actions": "1", "move": "5@22", "instance": "prb15290", "distance_to_goal": "NA", "progress": "NA", "move_number": "4", "optimal_length": "7", "subject": "A2IBQA01NR5N76:3X4MXAO0BHWJLTOLVSJTHSM54OHWRG"}
{"meta_move": "drag_end", "rt": "622.0", "trial_number": "1", "pre_actions": "1", "move": "2@17", "instance": "prb15290", "distance_to_goal": "NA", "progress": "NA", "move_number": "4", "optimal_length": "7", "subject": "A2IBQA01NR5N76:3X4MXAO0BHWJLTOLVSJTHSM54OHWRG"}
{"meta_move": "drag_end", "rt": "566.0", "trial_number": "1", "pre_actions": "1", "move": "1@33", "instance": "prb15290", "distance_to_goal": "NA", "progress": "NA", "move_number": "5", "optimal_length": "7", "subject": "A2IBQA01NR5N76:3X4MXAO0BHWJLTOLVSJTHSM54OHWRG"}
{"meta_move": "drag_end", "rt": "525.0", "trial_number": "1", "pre_actions": "1", "move": "4@20", "instance": "prb15290", "distance_to_goal": "NA", "progress": "NA", "move_number": "6", "optimal_length": "7", "subject": "A2IBQA01NR5N76:3X4MXAO0BHWJLTOLVSJTHSM54OHWRG"}
{"meta_move": "drag_end", "rt": "806.0", "trial_number": "1", "pre_actions": "1", "move": "r@15", "instance": "prb15290", "distance_to_goal": "NA", "progress": "NA", "move_number": "7", "optimal_length": "7", "subject": "A2IBQA01NR5N76:3X4MXAO0BHWJLTOLVSJTHSM54OHWRG"}
{"meta_move": "drag_end", "rt": "913.0", "trial_number": "1", "pre_actions": "1", "move": "4@2", "instance": "prb15290", "distance_to_goal": "NA", "progress": "NA", "move_number": "8", "optimal_length": "7", "subject": "A2IBQA01NR5N76:3X4MXAO0BHWJLTOLVSJTHSM54OHWRG"}
{"meta_move": "drag_end", "rt": "564.0", "trial_number": "1", "pre_actions": "1", "move": "6@1", "instance": "prb15290", "distance_to_goal": "NA", "progress": "NA", "move_number": "9", "optimal_length": "7", "subject": "A2IBQA01NR5N76:3X4MXAO0BHWJLTOLVSJTHSM54OHWRG"}
{"meta_move": "drag_end", "rt": "632.0", "trial_number": "1", "pre_actions": "1", "move": "1@30", "instance": "prb15290", "distance_to_goal": "NA", "progress": "NA", "move_number": "10", "optimal_length": "7", "subject": "A2IBQA01NR5N76:3X4MXAO0BHWJLTOLVSJTHSM54OHWRG"}
{"meta_move": "drag_end", "rt": "416.0", "trial_number": "1", "pre_actions": "1", "move": "0@27", "instance": "prb15290", "distance_to_goal": "NA", "progress": "NA", "move_number": "11", "optimal_length": "7", "subject": "A2IBQA01NR5N76:3X4MXAO0BHWJLTOLVSJTHSM54OHWRG"}
{"meta_move": "drag_end", "rt": "326.0", "trial_number": "1", "pre_actions": "1", "move": "5@28", "instance": "prb15290", "distance_to_goal": "NA", "progress": "NA", "move_number": "12", "optimal_length": "7", "subject": "A2IBQA01NR5N76:3X4MXAO0BHWJLTOLVSJTHSM54OHWRG"}
{"meta_move": "drag_end", "rt": "337.0", "trial_number": "1", "pre_actions": "1", "move": "2@29", "instance": "prb15290", "distance_to_goal": "NA", "progress": "NA", "move_number": "13", "optimal_length": "7", "subject": "A2IBQA01NR5N76:3X4MXAO0BHWJLTOLVSJTHSM54OHWRG"}
{"meta_move": "win", "rt": "418.0", "trial_number": "1", "pre_actions": "1", "move": "r@15", "instance": "prb15290", "distance_to_goal": "1", "progress": "NA", "move_number": "14", "optimal_length": "7", "subject": "A2IBQA01NR5N76:3X4MXAO0BHWJLTOLVSJTHSM54OHWRG"}
{"meta_move": "drag_end", "rt": "613.0", "trial_number": "0", "pre_actions": "0", "move": "r@16", "instance": "prb15290", "distance_to_goal": "NA", "progress": "NA", "move_number": "14", "optimal_length": "7", "subject": "A2IBQA01NR5N76:3X4MXAO0BHWJLTOLVSJTHSM54OHWRG"}
{"meta_move": "drag_end", "rt": "3196.0", "trial_number": "1", "pre_actions": "1", "move": "0@21", "instance": "prb15290", "distance_to_goal": "NA", "progress": "NA", "move_number": "0", "optimal_length": "7", "subject": "A2RTJ6BDY0DZVZ:3IJXV6UZ1YR1KY4G6BFEG1DXP7SRI1"}
{"meta_move": "drag_end", "rt": "2580.0", "trial_number": "1", "pre_actions": "1", "move": "4@14", "instance": "prb15290", "distance_to_goal": "NA", "progress": "NA", "move_number": "1", "optimal_length": "7", "subject": "A2RTJ6BDY0DZVZ:3IJXV6UZ1YR1KY4G6BFEG1DXP7SRI1"}
{"meta_move": "drag_end", "rt": "1957.0", "trial_number": "1", "pre_actions": "1", "move": "5@22", "instance": "prb15290", "distance_to_goal": "NA", "progress": "NA", "move_number": "1", "optimal_length": "7", "subject": "A2RTJ6BDY0DZVZ:3IJXV6UZ1YR1KY4G6BFEG1DXP7SRI1"}
{"meta_move": "drag_end", "rt": "868.0", "trial_number": "1", "pre_actions": "1", "move": "2@29", "instance": "prb15290", "distance_to_goal": "NA", "progress": "NA", "move_number": "2", "optimal_length": "7", "subject": "A2RTJ6BDY0DZVZ:3IJXV6UZ1YR1KY4G6BFEG1DXP7SRI1"}
{"meta_move": "drag_end", "rt": "1485.0", "trial_number": "1", "pre_actions": "1", "move": "4@2", "instance": "prb15290", "distance_to_goal": "NA", "progress": "NA", "move_number": "3", "optimal_length": "7", "subject": "A2RTJ6BDY0DZVZ:3IJXV6UZ1YR1KY4G6BFEG1DXP7SRI1"}
{"meta_move": "drag_end", "rt": "1868.0", "trial_number": "1", "pre_actions": "1", "move": "4@14", "instance": "prb15290", "distance_to_goal": "NA", "progress": "NA", "move_number": "4", "optimal_length": "7", "subject": "A2RTJ6BDY0DZVZ:3IJXV6UZ1YR1KY4G6BFEG1DXP7SRI1"}
{"meta_move": "drag_end", "rt": "4589.0", "trial_number": "1", "pre_actions": "1", "move": "2@17", "instance": "prb15290", "distance_to_goal": "NA", "progress": "NA", "move_number": "5", "optimal_length": "7", "subject": "A2RTJ6BDY0DZVZ:3IJXV6UZ1YR1KY4G6BFEG1DXP7SRI1"}
{"meta_move": "drag_end", "rt": "941.0", "trial_number": "1", "pre_actions": "1", "move": "1@33", "instance": "prb15290", "distance_to_goal": "NA", "progress": "NA", "move_number": "6", "optimal_length": "7", "subject": "A2RTJ6BDY0DZVZ:3IJXV6UZ1YR1KY4G6BFEG1DXP7SRI1"}
{"meta_move": "drag_end", "rt": "1216.0", "trial_number": "1", "pre_actions": "1", "move": "4@20", "instance": "prb15290", "distance_to_goal": "NA", "progress": "NA", "move_number": "7", "optimal_length": "7", "subject": "A2RTJ6BDY0DZVZ:3IJXV6UZ1YR1KY4G6BFEG1DXP7SRI1"}
{"meta_move": "drag_end", "rt": "1429.0", "trial_number": "1", "pre_actions": "1", "move": "r@15", "instance": "prb15290", "distance_to_goal": "NA", "progress": "NA", "move_number": "8", "optimal_length": "7", "subject": "A2RTJ6BDY0DZVZ:3IJXV6UZ1YR1KY4G6BFEG1DXP7SRI1"}
{"meta_move": "drag_end", "rt": "2363.0", "trial_number": "1", "pre_actions": "1", "move": "6@1", "instance": "prb15290", "distance_to_goal": "NA", "progress": "NA", "move_number": "9", "optimal_length": "7", "subject": "A2RTJ6BDY0DZVZ:3IJXV6UZ1YR1KY4G6BFEG1DXP7SRI1"}
{"meta_move": "drag_end", "rt": "732.0", "trial_number": "1", "pre_actions": "1", "move": "2@23", "instance": "prb15290", "distance_to_goal": "NA", "progress": "NA", "move_number": "10", "optimal_length": "7", "subject": "A2RTJ6BDY0DZVZ:3IJXV6UZ1YR1KY4G6BFEG1DXP7SRI1"}
{"meta_move": "win", "rt": "455.0", "trial_number": "1", "pre_actions": "1", "move": "r@15", "instance": "prb15290", "distance_to_goal": "1", "progress": "NA", "move_number": "11", "optimal_length": "7", "subject": "A2RTJ6BDY0DZVZ:3IJXV6UZ1YR1KY4G6BFEG1DXP7SRI1"}
{"meta_move": "drag_end", "rt": "311.0", "trial_number": "0", "pre_actions": "0", "move": "r@16", "instance": "prb15290", "distance_to_goal": "NA", "progress": "NA", "move_number": "11", "optimal_length": "7", "subject": "A2RTJ6BDY0DZVZ:3IJXV6UZ1YR1KY4G6BFEG1DXP7SRI1"}
{"meta_move": "drag_end", "rt": "3399.0", "trial_number": "1", "pre_actions": "1", "move": "1@33", "instance": "prb15290", "distance_to_goal": "NA", "progress": "NA", "move_number": "0", "optimal_length": "7", "subject": "A2TQNX64349OZ9:3WSELTNVR4AZUVYAYCSWZIQW0J4ATB"}
{"meta_move": "drag_end", "rt": "941.0", "trial_number": "1", "pre_actions": "1", "move": "4@20", "instance": "prb15290", "distance_to_goal": "NA", "progress": "NA", "move_number": "1", "optimal_length": "7", "subject": "A2TQNX64349OZ9:3WSELTNVR4AZUVYAYCSWZIQW0J4ATB"}
{"meta_move": "drag_end", "rt": "547.0", "trial_number": "1", "pre_actions": "1", "move": "r@13", "instance": "prb15290", "distance_to_goal": "NA", "progress": "NA", "move_number": "2", "optimal_length": "7", "subject": "A2TQNX64349OZ9:3WSELTNVR4AZUVYAYCSWZIQW0J4ATB"}
{"meta_move": "drag_end", "rt": "1010.0", "trial_number": "1", "pre_actions": "1", "move": "3@24", "instance": "prb15290", "distance_to_goal": "NA", "progress": "NA", "move_number": "3", "optimal_length": "7", "subject": "A2TQNX64349OZ9:3WSELTNVR4AZUVYAYCSWZIQW0J4ATB"}
{"meta_move": "drag_end", "rt": "1191.0", "trial_number": "1", "pre_actions": "1", "move": "r@12", "instance": "prb15290", "distance_to_goal": "NA", "progress": "NA", "move_number": "4", "optimal_length": "7", "subject": "A2TQNX64349OZ9:3WSELTNVR4AZUVYAYCSWZIQW0J4ATB"}
{"meta_move": "drag_end", "rt": "766.0", "trial_number": "1", "pre_actions": "1", "move": "4@2", "instance": "prb15290", "distance_to_goal": "NA", "progress": "NA", "move_number": "5", "optimal_length": "7", "subject": "A2TQNX64349OZ9:3WSELTNVR4AZUVYAYCSWZIQW0J4ATB"}
{"meta_move": "drag_end", "rt": "992.0", "trial_number": "1", "pre_actions": "1", "move": "0@21", "instance": "prb15290", "distance_to_goal": "NA", "progress": "NA", "move_number": "6", "optimal_length": "7", "subject": "A2TQNX64349OZ9:3WSELTNVR4AZUVYAYCSWZIQW0J4ATB"}
{"meta_move": "drag_end", "rt": "1201.0", "trial_number": "1", "pre_actions": "1", "move": "4@20", "instance": "prb15290", "distance_to_goal": "NA", "progress": "NA", "move_number": "7", "optimal_length": "7", "subject": "A2TQNX64349OZ9:3WSELTNVR4AZUVYAYCSWZIQW0J4ATB"}
{"meta_move": "drag_end", "rt": "936.0", "trial_number": "1", "pre_actions": "1", "move": "r@14", "instance": "prb15290", "distance_to_goal": "NA", "progress": "NA", "move_number": "8", "optimal_length": "7", "subject": "A2TQNX64349OZ9:3WSELTNVR4AZUVYAYCSWZIQW0J4ATB"}
{"meta_move": "drag_end", "rt": "563.0", "trial_number": "1", "pre_actions": "1", "move": "5@22", "instance": "prb15290", "distance_to_goal": "NA", "progress": "NA", "move_number": "9", "optimal_length": "7", "subject": "A2TQNX64349OZ9:3WSELTNVR4AZUVYAYCSWZIQW0J4ATB"}
{"meta_move": "drag_end", "rt": "698.0", "trial_number": "1", "pre_actions": "1", "move": "2@23", "instance": "prb15290", "distance_to_goal": "NA", "progress": "NA", "move_number": "10", "optimal_length": "7", "subject": "A2TQNX64349OZ9:3WSELTNVR4AZUVYAYCSWZIQW0J4ATB"}
{"meta_move": "win", "rt": "801.0", "trial_number": "1", "pre_actions": "1", "move": "r@14", "instance": "prb15290", "distance_to_goal": "1", "progress": "NA", "move_number": "11", "optimal_length": "7", "subject": "A2TQNX64349OZ9:3WSELTNVR4AZUVYAYCSWZIQW0J4ATB"}
{"meta_move": "drag_end", "rt": "10.0", "trial_number": "0", "pre_actions": "0", "move": "r@16", "instance": "prb15290", "distance_to_goal": "NA", "progress": "NA", "move_number": "11", "optimal_length": "7", "subject": "A2TQNX64349OZ9:3WSELTNVR4AZUVYAYCSWZIQW0J4ATB"}
{"meta_move": "drag_end", "rt": "4578.0", "trial_number": "1", "pre_actions": "1", "move": "2@29", "instance": "prb15290", "distance_to_goal": "NA", "progress": "NA", "move_number": "0", "optimal_length": "7", "subject": "A3NMQ3019X6YE0:3I2PTA7R3U2SESF4TZBQORI5LSJQKK"}
{"meta_move": "drag_end", "rt": "1967.0", "trial_number": "1", "pre_actions": "1", "move": "5@22", "instance": "prb15290", "distance_to_goal": "NA", "progress": "NA", "move_number": "1", "optimal_length": "7", "subject": "A3NMQ3019X6YE0:3I2PTA7R3U2SESF4TZBQORI5LSJQKK"}
{"meta_move": "drag_end", "rt": "915.0", "trial_number": "1", "pre_actions": "1", "move": "0@3", "instance": "prb15290", "distance_to_goal": "NA", "progress": "NA", "move_number": "2", "optimal_length": "7", "subject": "A3NMQ3019X6YE0:3I2PTA7R3U2SESF4TZBQORI5LSJQKK"}
{"meta_move": "drag_end", "rt": "3885.0", "trial_number": "1", "pre_actions": "1", "move": "4@2", "instance": "prb15290", "distance_to_goal": "NA", "progress": "NA", "move_number": "3", "optimal_length": "7", "subject": "A3NMQ3019X6YE0:3I2PTA7R3U2SESF4TZBQORI5LSJQKK"}
{"meta_move": "drag_end", "rt": "872.0", "trial_number": "1", "pre_actions": "1", "move": "4@14", "instance": "prb15290", "distance_to_goal": "NA", "progress": "NA", "move_number": "4", "optimal_length": "7", "subject": "A3NMQ3019X6YE0:3I2PTA7R3U2SESF4TZBQORI5LSJQKK"}
{"meta_move": "drag_end", "rt": "1875.0", "trial_number": "1", "pre_actions": "1", "move": "4@2", "instance": "prb15290", "distance_to_goal": "NA", "progress": "NA", "move_number": "5", "optimal_length": "7", "subject": "A3NMQ3019X6YE0:3I2PTA7R3U2SESF4TZBQORI5LSJQKK"}
{"meta_move": "drag_end", "rt": "6756.0", "trial_number": "1", "pre_actions": "1", "move": "5@10", "instance": "prb15290", "distance_to_goal": "NA", "progress": "NA", "move_number": "6", "optimal_length": "7", "subject": "A3NMQ3019X6YE0:3I2PTA7R3U2SESF4TZBQORI5LSJQKK"}
{"meta_move": "drag_end", "rt": "660.0", "trial_number": "1", "pre_actions": "1", "move": "2@11", "instance": "prb15290", "distance_to_goal": "NA", "progress": "NA", "move_number": "7", "optimal_length": "7", "subject": "A3NMQ3019X6YE0:3I2PTA7R3U2SESF4TZBQORI5LSJQKK"}
{"meta_move": "drag_end", "rt": "880.0", "trial_number": "1", "pre_actions": "1", "move": "1@33", "instance": "prb15290", "distance_to_goal": "NA", "progress": "NA", "move_number": "8", "optimal_length": "7", "subject": "A3NMQ3019X6YE0:3I2PTA7R3U2SESF4TZBQORI5LSJQKK"}
{"meta_move": "drag_end", "rt": "965.0", "trial_number": "1", "pre_actions": "1", "move": "4@20", "instance": "prb15290", "distance_to_goal": "NA", "progress": "NA", "move_number": "9", "optimal_length": "7", "subject": "A3NMQ3019X6YE0:3I2PTA7R3U2SESF4TZBQORI5LSJQKK"}
{"meta_move": "drag_end", "rt": "1968.0", "trial_number": "1", "pre_actions": "1", "move": "5@22", "instance": "prb15290", "distance_to_goal": "NA", "progress": "NA", "move_number": "10", "optimal_length": "7", "subject": "A3NMQ3019X6YE0:3I2PTA7R3U2SESF4TZBQORI5LSJQKK"}
{"meta_move": "drag_end", "rt": "791.0", "trial_number": "1", "pre_actions": "1", "move": "2@23", "instance": "prb15290", "distance_to_goal": "NA", "progress": "NA", "move_number": "11", "optimal_length": "7", "subject": "A3NMQ3019X6YE0:3I2PTA7R3U2SESF4TZBQORI5LSJQKK"}
{"meta_move": "win", "rt": "760.0", "trial_number": "1", "pre_actions": "1", "move": "r@12", "instance": "prb15290", "distance_to_goal": "1", "progress": "NA", "move_number": "12", "optimal_length": "7", "subject": "A3NMQ3019X6YE0:3I2PTA7R3U2SESF4TZBQORI5LSJQKK"}
{"meta_move": "drag_end", "rt": "82.0", "trial_number": "0", "pre_actions": "0", "move": "r@16", "instance": "prb15290", "distance_to_goal": "NA", "progress": "NA", "move_number": "12", "optimal_length": "7", "subject": "A3NMQ3019X6YE0:3I2PTA7R3U2SESF4TZBQORI5LSJQKK"}
{"meta_move": "drag_end", "rt": "1718.0", "trial_number": "1", "pre_actions": "1", "move": "0@3", "instance": "prb15290", "distance_to_goal": "NA", "progress": "NA", "move_number": "0", "optimal_length": "7", "subject": "A3Q0XAGQ7TD7MP:3X87C8JFV7JQ2BSCY8KSFD9F2ILSQK"}
{"meta_move": "drag_end", "rt": "2449.0", "trial_number": "1", "pre_actions": "1", "move": "1@33", "instance": "prb15290", "distance_to_goal": "NA", "progress": "NA", "move_number": "1", "optimal_length": "7", "subject": "A3Q0XAGQ7TD7MP:3X87C8JFV7JQ2BSCY8KSFD9F2ILSQK"}
{"meta_move": "drag_end", "rt": "1162.0", "trial_number": "1", "pre_actions": "1", "move": "4@20", "instance": "prb15290", "distance_to_goal": "NA", "progress": "NA", "move_number": "2", "optimal_length": "7", "subject": "A3Q0XAGQ7TD7MP:3X87C8JFV7JQ2BSCY8KSFD9F2ILSQK"}
{"meta_move": "drag_end", "rt": "3220.0", "trial_number": "1", "pre_actions": "1", "move": "5@22", "instance": "prb15290", "distance_to_goal": "NA", "progress": "NA", "move_number": "3", "optimal_length": "7", "subject": "A3Q0XAGQ7TD7MP:3X87C8JFV7JQ2BSCY8KSFD9F2ILSQK"}
{"meta_move": "drag_end", "rt": "1013.0", "trial_number": "1", "pre_actions": "1", "move": "2@23", "instance": "prb15290", "distance_to_goal": "NA", "progress": "NA", "move_number": "4", "optimal_length": "7", "subject": "A3Q0XAGQ7TD7MP:3X87C8JFV7JQ2BSCY8KSFD9F2ILSQK"}
{"meta_move": "win", "rt": "1110.0", "trial_number": "1", "pre_actions": "1", "move": "r@12", "instance": "prb15290", "distance_to_goal": "1", "progress": "NA", "move_number": "5", "optimal_length": "7", "subject": "A3Q0XAGQ7TD7MP:3X87C8JFV7JQ2BSCY8KSFD9F2ILSQK"}
{"meta_move": "drag_end", "rt": "117.0", "trial_number": "0", "pre_actions": "0", "move": "r@16", "instance": "prb15290", "distance_to_goal": "NA", "progress": "NA", "move_number": "5", "optimal_length": "7", "subject": "A3Q0XAGQ7TD7MP:3X87C8JFV7JQ2BSCY8KSFD9F2ILSQK"}
{"meta_move": "drag_end", "rt": "1988.0", "trial_number": "2", "pre_actions": "1", "move": "0@3", "instance": "prb15290", "distance_to_goal": "NA", "progress": "NA", "move_number": "0", "optimal_length": "7", "subject": "AU4KK3OYS2UZF:3ZSY5X72NYJBGKFJ46SJ0Y9J0RLROB"}
{"meta_move": "drag_end", "rt": "1096.0", "trial_number": "2", "pre_actions": "1", "move": "4@2", "instance": "prb15290", "distance_to_goal": "NA", "progress": "NA", "move_number": "1", "optimal_length": "7", "subject": "AU4KK3OYS2UZF:3ZSY5X72NYJBGKFJ46SJ0Y9J0RLROB"}
{"meta_move": "drag_end", "rt": "904.0", "trial_number": "2", "pre_actions": "1", "move": "6@19", "instance": "prb15290", "distance_to_goal": "NA", "progress": "NA", "move_number": "2", "optimal_length": "7", "subject": "AU4KK3OYS2UZF:3ZSY5X72NYJBGKFJ46SJ0Y9J0RLROB"}
{"meta_move": "drag_end", "rt": "1016.0", "trial_number": "2", "pre_actions": "1", "move": "1@32", "instance": "prb15290", "distance_to_goal": "NA", "progress": "NA", "move_number": "2", "optimal_length": "7", "subject": "AU4KK3OYS2UZF:3ZSY5X72NYJBGKFJ46SJ0Y9J0RLROB"}
{"meta_move": "drag_end", "rt": "2240.0", "trial_number": "2", "pre_actions": "1", "move": "2@29", "instance": "prb15290", "distance_to_goal": "NA", "progress": "NA", "move_number": "2", "optimal_length": "7", "subject": "AU4KK3OYS2UZF:3ZSY5X72NYJBGKFJ46SJ0Y9J0RLROB"}
{"meta_move": "drag_end", "rt": "1416.0", "trial_number": "2", "pre_actions": "1", "move": "5@22", "instance": "prb15290", "distance_to_goal": "NA", "progress": "NA", "move_number": "3", "optimal_length": "7", "subject": "AU4KK3OYS2UZF:3ZSY5X72NYJBGKFJ46SJ0Y9J0RLROB"}
{"meta_move": "drag_end", "rt": "3576.0", "trial_number": "2", "pre_actions": "1", "move": "2@29", "instance": "prb15290", "distance_to_goal": "NA", "progress": "NA", "move_number": "4", "optimal_length": "7", "subject": "AU4KK3OYS2UZF:3ZSY5X72NYJBGKFJ46SJ0Y9J0RLROB"}
{"meta_move": "drag_end", "rt": "758.0", "trial_number": "2", "pre_actions": "1", "move": "2@29", "instance": "prb15290", "distance_to_goal": "NA", "progress": "NA", "move_number": "4", "optimal_length": "7", "subject": "AU4KK3OYS2UZF:3ZSY5X72NYJBGKFJ46SJ0Y9J0RLROB"}
{"meta_move": "drag_end", "rt": "1169.0", "trial_number": "2", "pre_actions": "1", "move": "2@29", "instance": "prb15290", "distance_to_goal": "NA", "progress": "NA", "move_number": "4", "optimal_length": "7", "subject": "AU4KK3OYS2UZF:3ZSY5X72NYJBGKFJ46SJ0Y9J0RLROB"}
{"meta_move": "drag_end", "rt": "392.0", "trial_number": "2", "pre_actions": "1", "move": "2@29", "instance": "prb15290", "distance_to_goal": "NA", "progress": "NA", "move_number": "4", "optimal_length": "7", "subject": "AU4KK3OYS2UZF:3ZSY5X72NYJBGKFJ46SJ0Y9J0RLROB"}
{"meta_move": "drag_end", "rt": "616.0", "trial_number": "2", "pre_actions": "1", "move": "5@22", "instance": "prb15290", "distance_to_goal": "NA", "progress": "NA", "move_number": "4", "optimal_length": "7", "subject": "AU4KK3OYS2UZF:3ZSY5X72NYJBGKFJ46SJ0Y9J0RLROB"}
{"meta_move": "drag_end", "rt": "1704.0", "trial_number": "5", "pre_actions": "1", "move": "2@29", "instance": "prb15290", "distance_to_goal": "NA", "progress": "NA", "move_number": "0", "optimal_length": "7", "subject": "AU4KK3OYS2UZF:3ZSY5X72NYJBGKFJ46SJ0Y9J0RLROB"}
{"meta_move": "drag_end", "rt": "1417.0", "trial_number": "5", "pre_actions": "1", "move": "0@3", "instance": "prb15290", "distance_to_goal": "NA", "progress": "NA", "move_number": "1", "optimal_length": "7", "subject": "AU4KK3OYS2UZF:3ZSY5X72NYJBGKFJ46SJ0Y9J0RLROB"}
{"meta_move": "drag_end", "rt": "642.0", "trial_number": "5", "pre_actions": "1", "move": "2@11", "instance": "prb15290", "distance_to_goal": "NA", "progress": "NA", "move_number": "2", "optimal_length": "7", "subject": "AU4KK3OYS2UZF:3ZSY5X72NYJBGKFJ46SJ0Y9J0RLROB"}
{"meta_move": "drag_end", "rt": "590.0", "trial_number": "5", "pre_actions": "1", "move": "1@33", "instance": "prb15290", "distance_to_goal": "NA", "progress": "NA", "move_number": "3", "optimal_length": "7", "subject": "AU4KK3OYS2UZF:3ZSY5X72NYJBGKFJ46SJ0Y9J0RLROB"}
{"meta_move": "drag_end", "rt": "697.0", "trial_number": "5", "pre_actions": "1", "move": "4@20", "instance": "prb15290", "distance_to_goal": "NA", "progress": "NA", "move_number": "4", "optimal_length": "7", "subject": "AU4KK3OYS2UZF:3ZSY5X72NYJBGKFJ46SJ0Y9J0RLROB"}
{"meta_move": "drag_end", "rt": "790.0", "trial_number": "5", "pre_actions": "1", "move": "r@14", "instance": "prb15290", "distance_to_goal": "NA", "progress": "NA", "move_number": "5", "optimal_length": "7", "subject": "AU4KK3OYS2UZF:3ZSY5X72NYJBGKFJ46SJ0Y9J0RLROB"}
{"meta_move": "drag_end", "rt": "473.0", "trial_number": "5", "pre_actions": "1", "move": "5@22", "instance": "prb15290", "distance_to_goal": "NA", "progress": "NA", "move_number": "6", "optimal_length": "7", "subject": "AU4KK3OYS2UZF:3ZSY5X72NYJBGKFJ46SJ0Y9J0RLROB"}
{"meta_move": "drag_end", "rt": "521.0", "trial_number": "5", "pre_actions": "1", "move": "2@23", "instance": "prb15290", "distance_to_goal": "NA", "progress": "NA", "move_number": "7", "optimal_length": "7", "subject": "AU4KK3OYS2UZF:3ZSY5X72NYJBGKFJ46SJ0Y9J0RLROB"}
{"meta_move": "win", "rt": "504.0", "trial_number": "5", "pre_actions": "1", "move": "r@14", "instance": "prb15290", "distance_to_goal": "1", "progress": "NA", "move_number": "8", "optimal_length": "7", "subject": "AU4KK3OYS2UZF:3ZSY5X72NYJBGKFJ46SJ0Y9J0RLROB"}
{"meta_move": "drag_end", "rt": "102.0", "trial_number": "0", "pre_actions": "0", "move": "r@16", "instance": "prb15290", "distance_to_goal": "NA", "progress": "NA", "move_number": "8", "optimal_length": "7", "subject": "AU4KK3OYS2UZF:3ZSY5X72NYJBGKFJ46SJ0Y9J0RLROB"}
