{"meta_move": "drag_end", "rt": "1912.0", "trial_number": "1", "pre_actions": "1", "move": "2@10", "instance": "prb10166", "distance_to_goal": "NA", "progress": "NA", "move_number": "0", "optimal_length": "16", "subject": "A15FXHC1CVNW31:3TS1AR6UQRM7SOIBWPBN8N9589Y7FV"}
{"meta_move": "drag_end", "rt": "777.0", "trial_number": "1", "pre_actions": "1", "move": "1@27", "instance": "prb10166", "distance_to_goal": "NA", "progress": "NA", "move_number": "1", "optimal_length": "16", "subject": "A15FXHC1CVNW31:3TS1AR6UQRM7SOIBWPBN8N9589Y7FV"}
{"meta_move": "drag_end", "rt": "636.0", "trial_number": "1", "pre_actions": "1", "move": "0@26", "instance": "prb10166", "distance_to_goal": "NA", "progress": "NA", "move_number": "2", "optimal_length": "16", "subject": "A15FXHC1CVNW31:3TS1AR6UQRM7SOIBWPBN8N9589Y7FV"}
{"meta_move": "drag_end", "rt": "617.0", "trial_number": "1", "pre_actions": "1", "move": "5@3", "instance": "prb10166", "distance_to_goal": "NA", "progress": "NA", "move_number": "3", "optimal_length": "16", "subject": "A15FXHC1CVNW31:3TS1AR6UQRM7SOIBWPBN8N9589Y7FV"}
{"meta_move": "drag_end", "rt": "1407.0", "trial_number": "1", "pre_actions": "1", "move": "2@4", "instance": "prb10166", "distance_to_goal": "NA", "progress": "NA", "move_number": "4", "optimal_length": "16", "subject": "A15FXHC1CVNW31:3TS1AR6UQRM7SOIBWPBN8N9589Y7FV"}
{"meta_move": "drag_end", "rt": "807.0", "trial_number": "1", "pre_actions": "1", "move": "4@5", "instance": "prb10166", "distance_to_goal": "NA", "progress": "NA", "move_number": "5", "optimal_length": "16", "subject": "A15FXHC1CVNW31:3TS1AR6UQRM7SOIBWPBN8N9589Y7FV"}
{"meta_move": "drag_end", "rt": "810.0", "trial_number": "1", "pre_actions": "1", "move": "1@28", "instance": "prb10166", "distance_to_goal": "NA", "progress": "NA", "move_number": "6", "optimal_length": "16", "subject": "A15FXHC1CVNW31:3TS1AR6UQRM7SOIBWPBN8N9589Y7FV"}
{"meta_move": "drag_end", "rt": "1176.0", "trial_number": "1", "pre_actions": "1", "move": "5@21", "instance": "prb10166", "distance_to_goal": "NA", "progress": "NA", "move_number": "7", "optimal_length": "16", "subject": "A15FXHC1CVNW31:3TS1AR6UQRM7SOIBWPBN8N9589Y7FV"}
{"meta_move": "drag_end", "rt": "1928.0", "trial_number": "1", "pre_actions": "1", "move": "2@16", "instance": "prb10166", "distance_to_goal": "NA", "progress": "NA", "move_number": "8", "optimal_length": "16", "subject": "A15FXHC1CVNW31:3TS1AR6UQRM7SOIBWPBN8N9589Y7FV"}
{"meta_move": "drag_end", "rt": "1292.0", "trial_number": "1", "pre_actions": "1", "move": "7@2", "instance": "prb10166", "distance_to_goal": "NA", "progress": "NA", "move_number": "9", "optimal_length": "16", "subject": "A15FXHC1CVNW31:3TS1AR6UQRM7SOIBWPBN8N9589Y7FV"}
{"meta_move": "drag_end", "rt": "2317.0", "trial_number": "1", "pre_actions": "1", "move": "0@26", "instance": "prb10166", "distance_to_goal": "NA", "progress": "NA", "move_number": "10", "optimal_length": "16", "subject": "A15FXHC1CVNW31:3TS1AR6UQRM7SOIBWPBN8N9589Y7FV"}
{"meta_move": "drag_end", "rt": "615.0", "trial_number": "1", "pre_actions": "1", "move": "r@14", "instance": "prb10166", "distance_to_goal": "NA", "progress": "NA", "move_number": "10", "optimal_length": "16", "subject": "A15FXHC1CVNW31:3TS1AR6UQRM7SOIBWPBN8N9589Y7FV"}
{"meta_move": "drag_end", "rt": "724.0", "trial_number": "1", "pre_actions": "1", "move": "6@1", "instance": "prb10166", "distance_to_goal": "NA", "progress": "NA", "move_number": "11", "optimal_length": "16", "subject": "A15FXHC1CVNW31:3TS1AR6UQRM7SOIBWPBN8N9589Y7FV"}
{"meta_move": "drag_end", "rt": "820.0", "trial_number": "1", "pre_actions": "1", "move": "3@0", "instance": "prb10166", "distance_to_goal": "NA", "progress": "NA", "move_number": "12", "optimal_length": "16", "subject": "A15FXHC1CVNW31:3TS1AR6UQRM7SOIBWPBN8N9589Y7FV"}
{"meta_move": "drag_end", "rt": "1458.0", "trial_number": "1", "pre_actions": "1", "move": "r@12", "instance": "prb10166", "distance_to_goal": "NA", "progress": "NA", "move_number": "13", "optimal_length": "16", "subject": "A15FXHC1CVNW31:3TS1AR6UQRM7SOIBWPBN8N9589Y7FV"}
{"meta_move": "drag_end", "rt": "771.0", "trial_number": "1", "pre_actions": "1", "move": "0@8", "instance": "prb10166", "distance_to_goal": "NA", "progress": "NA", "move_number": "14", "optimal_length": "16", "subject": "A15FXHC1CVNW31:3TS1AR6UQRM7SOIBWPBN8N9589Y7FV"}
{"meta_move": "drag_end", "rt": "890.0", "trial_number": "1", "pre_actions": "1", "move": "5@9", "instance": "prb10166", "distance_to_goal": "NA", "progress": "NA", "move_number": "15", "optimal_length": "16", "subject": "A15FXHC1CVNW31:3TS1AR6UQRM7SOIBWPBN8N9589Y7FV"}
{"meta_move": "drag_end", "rt": "820.0", "trial_number": "1", "pre_actions": "1", "move": "1@24", "instance": "prb10166", "distance_to_goal": "NA", "progress": "NA", "move_number": "16", "optimal_length": "16", "subject": "A15FXHC1CVNW31:3TS1AR6UQRM7SOIBWPBN8N9589Y7FV"}
{"meta_move": "drag_end", "rt": "804.0", "trial_number": "1", "pre_actions": "1", "move": "2@28", "instance": "prb10166", "distance_to_goal": "NA", "progress": "NA", "move_number": "17", "optimal_length": "16", "subject": "A15FXHC1CVNW31:3TS1AR6UQRM7SOIBWPBN8N9589Y7FV"}
{"meta_move": "drag_end", "rt": "638.0", "trial_number": "1", "pre_actions": "1", "move": "0@20", "instance": "prb10166", "distance_to_goal": "NA", "progress": "NA", "move_number": "18", "optimal_length": "16", "subject": "A15FXHC1CVNW31:3TS1AR6UQRM7SOIBWPBN8N9589Y7FV"}
{"meta_move": "drag_end", "rt": "435.0", "trial_number": "1", "pre_actions": "1", "move": "5@21", "instance": "prb10166", "distance_to_goal": "NA", "progress": "NA", "move_number": "19", "optimal_length": "16", "subject": "A15FXHC1CVNW31:3TS1AR6UQRM7SOIBWPBN8N9589Y7FV"}
{"meta_move": "drag_end", "rt": "598.0", "trial_number": "1", "pre_actions": "1", "move": "4@23", "instance": "prb10166", "distance_to_goal": "NA", "progress": "NA", "move_number": "20", "optimal_length": "16", "subject": "A15FXHC1CVNW31:3TS1AR6UQRM7SOIBWPBN8N9589Y7FV"}
{"meta_move": "win", "rt": "619.0", "trial_number": "1", "pre_actions": "1", "move": "r@12", "instance": "prb10166", "distance_to_goal": "1", "progress": "NA", "move_number": "21", "optimal_length": "16", "subject": "A15FXHC1CVNW31:3TS1AR6UQRM7SOIBWPBN8N9589Y7FV"}
{"meta_move": "drag_end", "rt": "144.0", "trial_number": "0", "pre_actions": "0", "move": "r@16", "instance": "prb10166", "distance_to_goal": "NA", "progress": "NA", "move_number": "21", "optimal_length": "16", "subject": "A15FXHC1CVNW31:3TS1AR6UQRM7SOIBWPBN8N9589Y7FV"}
{"meta_move": "drag_end", "rt": "8569.0", "trial_number": "1", "pre_actions": "1", "move": "7@3", "instance": "prb10166", "distance_to_goal": "NA", "progress": "NA", "move_number": "0", "optimal_length": "16", "subject": "A18QU0YQB6Q8DF:3VE8AYVF8N5BS2NU6U3TMN50JMNF8V"}
{"meta_move": "drag_end", "rt": "1058.0", "trial_number": "1", "pre_actions": "1", "move": "0@2", "instance": "prb10166", "distance_to_goal": "NA", "progress": "NA", "move_number": "1", "optimal_length": "16", "subject": "A18QU0YQB6Q8DF:3VE8AYVF8N5BS2NU6U3TMN50JMNF8V"}
{"meta_move": "drag_end", "rt": "2218.0", "trial_number": "1", "pre_actions": "1", "move": "6@25", "instance": "prb10166", "distance_to_goal": "NA", "progress": "NA", "move_number": "2", "optimal_length": "16", "subject": "A18QU0YQB6Q8DF:3VE8AYVF8N5BS2NU6U3TMN50JMNF8V"}
{"meta_move": "drag_end", "rt": "1330.0", "trial_number": "1", "pre_actions": "1", "move": "0@14", "instance": "prb10166", "distance_to_goal": "NA", "progress": "NA", "move_number": "2", "optimal_length": "16", "subject": "A18QU0YQB6Q8DF:3VE8AYVF8N5BS2NU6U3TMN50JMNF8V"}
{"meta_move": "drag_end", "rt": "1275.0", "trial_number": "1", "pre_actions": "1", "move": "7@0", "instance": "prb10166", "distance_to_goal": "NA", "progress": "NA", "move_number": "3", "optimal_length": "16", "subject": "A18QU0YQB6Q8DF:3VE8AYVF8N5BS2NU6U3TMN50JMNF8V"}
{"meta_move": "drag_end", "rt": "1292.0", "trial_number": "1", "pre_actions": "1", "move": "4@5", "instance": "prb10166", "distance_to_goal": "NA", "progress": "NA", "move_number": "4", "optimal_length": "16", "subject": "A18QU0YQB6Q8DF:3VE8AYVF8N5BS2NU6U3TMN50JMNF8V"}
{"meta_move": "drag_end", "rt": "1306.0", "trial_number": "1", "pre_actions": "1", "move": "2@4", "instance": "prb10166", "distance_to_goal": "NA", "progress": "NA", "move_number": "5", "optimal_length": "16", "subject": "A18QU0YQB6Q8DF:3VE8AYVF8N5BS2NU6U3TMN50JMNF8V"}
{"meta_move": "drag_end", "rt": "1247.0", "trial_number": "1", "pre_actions": "1", "move": "1@28", "instance": "prb10166", "distance_to_goal": "NA", "progress": "NA", "move_number": "6", "optimal_length": "16", "subject": "A18QU0YQB6Q8DF:3VE8AYVF8N5BS2NU6U3TMN50JMNF8V"}
{"meta_move": "drag_end", "rt": "947.0", "trial_number": "1", "pre_actions": "1", "move": "0@26", "instance": "prb10166", "distance_to_goal": "NA", "progress": "NA", "move_number": "7", "optimal_length": "16", "subject": "A18QU0YQB6Q8DF:3VE8AYVF8N5BS2NU6U3TMN50JMNF8V"}
{"meta_move": "drag_end", "rt": "880.0", "trial_number": "1", "pre_actions": "1", "move": "5@21", "instance": "prb10166", "distance_to_goal": "NA", "progress": "NA", "move_number": "8", "optimal_length": "16", "subject": "A18QU0YQB6Q8DF:3VE8AYVF8N5BS2NU6U3TMN50JMNF8V"}
{"meta_move": "drag_end", "rt": "4162.0", "trial_number": "1", "pre_actions": "1", "move": "r@15", "instance": "prb10166", "distance_to_goal": "NA", "progress": "NA", "move_number": "9", "optimal_length": "16", "subject": "A18QU0YQB6Q8DF:3VE8AYVF8N5BS2NU6U3TMN50JMNF8V"}
{"meta_move": "drag_end", "rt": "7684.0", "trial_number": "1", "pre_actions": "1", "move": "7@0", "instance": "prb10166", "distance_to_goal": "NA", "progress": "NA", "move_number": "10", "optimal_length": "16", "subject": "A18QU0YQB6Q8DF:3VE8AYVF8N5BS2NU6U3TMN50JMNF8V"}
{"meta_move": "drag_end", "rt": "1168.0", "trial_number": "1", "pre_actions": "1", "move": "3@6", "instance": "prb10166", "distance_to_goal": "NA", "progress": "NA", "move_number": "10", "optimal_length": "16", "subject": "A18QU0YQB6Q8DF:3VE8AYVF8N5BS2NU6U3TMN50JMNF8V"}
{"meta_move": "drag_end", "rt": "1322.0", "trial_number": "1", "pre_actions": "1", "move": "6@7", "instance": "prb10166", "distance_to_goal": "NA", "progress": "NA", "move_number": "11", "optimal_length": "16", "subject": "A18QU0YQB6Q8DF:3VE8AYVF8N5BS2NU6U3TMN50JMNF8V"}
{"meta_move": "drag_end", "rt": "2006.0", "trial_number": "1", "pre_actions": "1", "move": "0@26", "instance": "prb10166", "distance_to_goal": "NA", "progress": "NA", "move_number": "12", "optimal_length": "16", "subject": "A18QU0YQB6Q8DF:3VE8AYVF8N5BS2NU6U3TMN50JMNF8V"}
{"meta_move": "drag_end", "rt": "979.0", "trial_number": "1", "pre_actions": "1", "move": "r@14", "instance": "prb10166", "distance_to_goal": "NA", "progress": "NA", "move_number": "12", "optimal_length": "16", "subject": "A18QU0YQB6Q8DF:3VE8AYVF8N5BS2NU6U3TMN50JMNF8V"}
{"meta_move": "drag_end", "rt": "3042.0", "trial_number": "1", "pre_actions": "1", "move": "r@15", "instance": "prb10166", "distance_to_goal": "NA", "progress": "NA", "move_number": "13", "optimal_length": "16", "subject": "A18QU0YQB6Q8DF:3VE8AYVF8N5BS2NU6U3TMN50JMNF8V"}
{"meta_move": "drag_end", "rt": "2302.0", "trial_number": "1", "pre_actions": "1", "move": "0@8", "instance": "prb10166", "distance_to_goal": "NA", "progress": "NA", "move_number": "14", "optimal_length": "16", "subject": "A18QU0YQB6Q8DF:3VE8AYVF8N5BS2NU6U3TMN50JMNF8V"}
{"meta_move": "drag_end", "rt": "826.0", "trial_number": "1", "pre_actions": "1", "move": "0@26", "instance": "prb10166", "distance_to_goal": "NA", "progress": "NA", "move_number": "15", "optimal_length": "16", "subject": "A18QU0YQB6Q8DF:3VE8AYVF8N5BS2NU6U3TMN50JMNF8V"}
{"meta_move": "drag_end", "rt": "1087.0", "trial_number": "1", "pre_actions": "1", "move": "7@1", "instance": "prb10166", "distance_to_goal": "NA", "progress": "NA", "move_number": "16", "optimal_length": "16", "subject": "A18QU0YQB6Q8DF:3VE8AYVF8N5BS2NU6U3TMN50JMNF8V"}
{"meta_move": "drag_end", "rt": "1373.0", "trial_number": "1", "pre_actions": "1", "move": "5@3", "instance": "prb10166", "distance_to_goal": "NA", "progress": "NA", "move_number": "0", "optimal_length": "16", "subject": "A191V7PT3DQKDP:3PMBY0YE28B43VMUKKJ6EDF85RV9C8"}
{"meta_move": "drag_end", "rt": "2152.0", "trial_number": "1", "pre_actions": "1", "move": "5@9", "instance": "prb10166", "distance_to_goal": "NA", "progress": "NA", "move_number": "1", "optimal_length": "16", "subject": "A191V7PT3DQKDP:3PMBY0YE28B43VMUKKJ6EDF85RV9C8"}
{"meta_move": "drag_end", "rt": "654.0", "trial_number": "1", "pre_actions": "1", "move": "7@3", "instance": "prb10166", "distance_to_goal": "NA", "progress": "NA", "move_number": "2", "optimal_length": "16", "subject": "A191V7PT3DQKDP:3PMBY0YE28B43VMUKKJ6EDF85RV9C8"}
{"meta_move": "drag_end", "rt": "536.0", "trial_number": "1", "pre_actions": "1", "move": "0@2", "instance": "prb10166", "distance_to_goal": "NA", "progress": "NA", "move_number": "3", "optimal_length": "16", "subject": "A191V7PT3DQKDP:3PMBY0YE28B43VMUKKJ6EDF85RV9C8"}
{"meta_move": "drag_end", "rt": "576.0", "trial_number": "1", "pre_actions": "1", "move": "r@13", "instance": "prb10166", "distance_to_goal": "NA", "progress": "NA", "move_number": "4", "optimal_length": "16", "subject": "A191V7PT3DQKDP:3PMBY0YE28B43VMUKKJ6EDF85RV9C8"}
{"meta_move": "drag_end", "rt": "736.0", "trial_number": "1", "pre_actions": "1", "move": "3@0", "instance": "prb10166", "distance_to_goal": "NA", "progress": "NA", "move_number": "5", "optimal_length": "16", "subject": "A191V7PT3DQKDP:3PMBY0YE28B43VMUKKJ6EDF85RV9C8"}
{"meta_move": "drag_end", "rt": "768.0", "trial_number": "1", "pre_actions": "1", "move": "r@12", "instance": "prb10166", "distance_to_goal": "NA", "progress": "NA", "move_number": "6", "optimal_length": "16", "subject": "A191V7PT3DQKDP:3PMBY0YE28B43VMUKKJ6EDF85RV9C8"}
{"meta_move": "drag_end", "rt": "1536.0", "trial_number": "1", "pre_actions": "1", "move": "6@25", "instance": "prb10166", "distance_to_goal": "NA", "progress": "NA", "move_number": "7", "optimal_length": "16", "subject": "A191V7PT3DQKDP:3PMBY0YE28B43VMUKKJ6EDF85RV9C8"}
{"meta_move": "drag_end", "rt": "1753.0", "trial_number": "1", "pre_actions": "1", "move": "0@14", "instance": "prb10166", "distance_to_goal": "NA", "progress": "NA", "move_number": "7", "optimal_length": "16", "subject": "A191V7PT3DQKDP:3PMBY0YE28B43VMUKKJ6EDF85RV9C8"}
{"meta_move": "drag_end", "rt": "1727.0", "trial_number": "1", "pre_actions": "1", "move": "7@3", "instance": "prb10166", "distance_to_goal": "NA", "progress": "NA", "move_number": "8", "optimal_length": "16", "subject": "A191V7PT3DQKDP:3PMBY0YE28B43VMUKKJ6EDF85RV9C8"}
{"meta_move": "drag_end", "rt": "1200.0", "trial_number": "1", "pre_actions": "1", "move": "2@10", "instance": "prb10166", "distance_to_goal": "NA", "progress": "NA", "move_number": "8", "optimal_length": "16", "subject": "A191V7PT3DQKDP:3PMBY0YE28B43VMUKKJ6EDF85RV9C8"}
{"meta_move": "drag_end", "rt": "673.0", "trial_number": "1", "pre_actions": "1", "move": "1@27", "instance": "prb10166", "distance_to_goal": "NA", "progress": "NA", "move_number": "9", "optimal_length": "16", "subject": "A191V7PT3DQKDP:3PMBY0YE28B43VMUKKJ6EDF85RV9C8"}
{"meta_move": "drag_end", "rt": "655.0", "trial_number": "1", "pre_actions": "1", "move": "0@26", "instance": "prb10166", "distance_to_goal": "NA", "progress": "NA", "move_number": "10", "optimal_length": "16", "subject": "A191V7PT3DQKDP:3PMBY0YE28B43VMUKKJ6EDF85RV9C8"}
{"meta_move": "drag_end", "rt": "736.0", "trial_number": "1", "pre_actions": "1", "move": "r@13", "instance": "prb10166", "distance_to_goal": "NA", "progress": "NA", "move_number": "11", "optimal_length": "16", "subject": "A191V7PT3DQKDP:3PMBY0YE28B43VMUKKJ6EDF85RV9C8"}
{"meta_move": "drag_end", "rt": "2528.0", "trial_number": "1", "pre_actions": "1", "move": "4@11", "instance": "prb10166", "distance_to_goal": "NA", "progress": "NA", "move_number": "12", "optimal_length": "16", "subject": "A191V7PT3DQKDP:3PMBY0YE28B43VMUKKJ6EDF85RV9C8"}
{"meta_move": "drag_end", "rt": "664.0", "trial_number": "1", "pre_actions": "1", "move": "1@28", "instance": "prb10166", "distance_to_goal": "NA", "progress": "NA", "move_number": "13", "optimal_length": "16", "subject": "A191V7PT3DQKDP:3PMBY0YE28B43VMUKKJ6EDF85RV9C8"}
{"meta_move": "drag_end", "rt": "738.0", "trial_number": "1", "pre_actions": "1", "move": "5@21", "instance": "prb10166", "distance_to_goal": "NA", "progress": "NA", "move_number": "14", "optimal_length": "16", "subject": "A191V7PT3DQKDP:3PMBY0YE28B43VMUKKJ6EDF85RV9C8"}
{"meta_move": "drag_end", "rt": "614.0", "trial_number": "1", "pre_actions": "1", "move": "r@14", "instance": "prb10166", "distance_to_goal": "NA", "progress": "NA", "move_number": "15", "optimal_length": "16", "subject": "A191V7PT3DQKDP:3PMBY0YE28B43VMUKKJ6EDF85RV9C8"}
{"meta_move": "drag_end", "rt": "720.0", "trial_number": "1", "pre_actions": "1", "move": "6@1", "instance": "prb10166", "distance_to_goal": "NA", "progress": "NA", "move_number": "16", "optimal_length": "16", "subject": "A191V7PT3DQKDP:3PMBY0YE28B43VMUKKJ6EDF85RV9C8"}
{"meta_move": "drag_end", "rt": "768.0", "trial_number": "1", "pre_actions": "1", "move": "r@12", "instance": "prb10166", "distance_to_goal": "NA", "progress": "NA", "move_number": "17", "optimal_length": "16", "subject": "A191V7PT3DQKDP:3PMBY0YE28B43VMUKKJ6EDF85RV9C8"}
{"meta_move": "drag_end", "rt": "824.0", "trial_number": "1", "pre_actions": "1", "move": "0@2", "instance": "prb10166", "distance_to_goal": "NA", "progress": "NA", "move_number": "18", "optimal_length": "16", "subject": "A191V7PT3DQKDP:3PMBY0YE28B43VMUKKJ6EDF85RV9C8"}
{"meta_move": "drag_end", "rt": "1872.0", "trial_number": "1", "pre_actions": "1", "move": "5@9", "instance": "prb10166", "distance_to_goal": "NA", "progress": "NA", "move_number": "19", "optimal_length": "16", "subject": "A191V7PT3DQKDP:3PMBY0YE28B43VMUKKJ6EDF85RV9C8"}
{"meta_move": "drag_end", "rt": "657.0", "trial_number": "1", "pre_actions": "1", "move": "1@24", "instance": "prb10166", "distance_to_goal": "NA", "progress": "NA", "move_number": "20", "optimal_length": "16", "subject": "A191V7PT3DQKDP:3PMBY0YE28B43VMUKKJ6EDF85RV9C8"}
{"meta_move": "drag_end", "rt": "768.0", "trial_number": "1", "pre_actions": "1", "move": "5@21", "instance": "prb10166", "distance_to_goal": "NA", "progress": "NA", "move_number": "21", "optimal_length": "16", "subject": "A191V7PT3DQKDP:3PMBY0YE28B43VMUKKJ6EDF85RV9C8"}
{"meta_move": "drag_end", "rt": "576.0", "trial_number": "1", "pre_actions": "1", "move": "4@23", "instance": "prb10166", "distance_to_goal": "NA", "progress": "NA", "move_number": "22", "optimal_length": "16", "subject": "A191V7PT3DQKDP:3PMBY0YE28B43VMUKKJ6EDF85RV9C8"}
{"meta_move": "drag_end", "rt": "519.0", "trial_number": "1", "pre_actions": "1", "move": "2@28", "instance": "prb10166", "distance_to_goal": "NA", "progress": "NA", "move_number": "23", "optimal_length": "16", "subject": "A191V7PT3DQKDP:3PMBY0YE28B43VMUKKJ6EDF85RV9C8"}
{"meta_move": "win", "rt": "732.0", "trial_number": "1", "pre_actions": "1", "move": "r@12", "instance": "prb10166", "distance_to_goal": "1", "progress": "NA", "move_number": "24", "optimal_length": "16", "subject": "A191V7PT3DQKDP:3PMBY0YE28B43VMUKKJ6EDF85RV9C8"}
{"meta_move": "drag_end", "rt": "180.0", "trial_number": "0", "pre_actions": "0", "move": "r@16", "instance": "prb10166", "distance_to_goal": "NA", "progress": "NA", "move_number": "24", "optimal_length": "16", "subject": "A191V7PT3DQKDP:3PMBY0YE28B43VMUKKJ6EDF85RV9C8"}
{"meta_move": "drag_end", "rt": "2893.0", "trial_number": "1", "pre_actions": "1", "move": "4@5", "instance": "prb10166", "distance_to_goal": "NA", "progress": "NA", "move_number": "0", "optimal_length": "16", "subject": "A1F4N58CAX8IMK:3TS1AR6UQRM7SOIBWPBN8N9589Y7FV"}
{"meta_move": "drag_end", "rt": "1967.0", "trial_number": "1", "pre_actions": "1", "move": "5@3", "instance": "prb10166", "distance_to_goal": "NA", "progress": "NA", "move_number": "1", "optimal_length": "16", "subject": "A1F4N58CAX8IMK:3TS1AR6UQRM7SOIBWPBN8N9589Y7FV"}
{"meta_move": "drag_end", "rt": "2929.0", "trial_number": "1", "pre_actions": "1", "move": "2@4", "instance": "prb10166", "distance_to_goal": "NA", "progress": "NA", "move_number": "2", "optimal_length": "16", "subject": "A1F4N58CAX8IMK:3TS1AR6UQRM7SOIBWPBN8N9589Y7FV"}
{"meta_move": "drag_end", "rt": "1008.0", "trial_number": "1", "pre_actions": "1", "move": "1@28", "instance": "prb10166", "distance_to_goal": "NA", "progress": "NA", "move_number": "3", "optimal_length": "16", "subject": "A1F4N58CAX8IMK:3TS1AR6UQRM7SOIBWPBN8N9589Y7FV"}
{"meta_move": "drag_end", "rt": "2792.0", "trial_number": "1", "pre_actions": "1", "move": "3@18", "instance": "prb10166", "distance_to_goal": "NA", "progress": "NA", "move_number": "4", "optimal_length": "16", "subject": "A1F4N58CAX8IMK:3TS1AR6UQRM7SOIBWPBN8N9589Y7FV"}
{"meta_move": "drag_end", "rt": "1184.0", "trial_number": "1", "pre_actions": "1", "move": "6@25", "instance": "prb10166", "distance_to_goal": "NA", "progress": "NA", "move_number": "5", "optimal_length": "16", "subject": "A1F4N58CAX8IMK:3TS1AR6UQRM7SOIBWPBN8N9589Y7FV"}
{"meta_move": "drag_end", "rt": "544.0", "trial_number": "1", "pre_actions": "1", "move": "3@24", "instance": "prb10166", "distance_to_goal": "NA", "progress": "NA", "move_number": "5", "optimal_length": "16", "subject": "A1F4N58CAX8IMK:3TS1AR6UQRM7SOIBWPBN8N9589Y7FV"}
{"meta_move": "drag_end", "rt": "1224.0", "trial_number": "1", "pre_actions": "1", "move": "5@21", "instance": "prb10166", "distance_to_goal": "NA", "progress": "NA", "move_number": "6", "optimal_length": "16", "subject": "A1F4N58CAX8IMK:3TS1AR6UQRM7SOIBWPBN8N9589Y7FV"}
{"meta_move": "drag_end", "rt": "3111.0", "trial_number": "1", "pre_actions": "1", "move": "2@16", "instance": "prb10166", "distance_to_goal": "NA", "progress": "NA", "move_number": "7", "optimal_length": "16", "subject": "A1F4N58CAX8IMK:3TS1AR6UQRM7SOIBWPBN8N9589Y7FV"}
{"meta_move": "drag_end", "rt": "1329.0", "trial_number": "1", "pre_actions": "1", "move": "7@2", "instance": "prb10166", "distance_to_goal": "NA", "progress": "NA", "move_number": "8", "optimal_length": "16", "subject": "A1F4N58CAX8IMK:3TS1AR6UQRM7SOIBWPBN8N9589Y7FV"}
{"meta_move": "drag_end", "rt": "1088.0", "trial_number": "1", "pre_actions": "1", "move": "0@26", "instance": "prb10166", "distance_to_goal": "NA", "progress": "NA", "move_number": "9", "optimal_length": "16", "subject": "A1F4N58CAX8IMK:3TS1AR6UQRM7SOIBWPBN8N9589Y7FV"}
{"meta_move": "drag_end", "rt": "2631.0", "trial_number": "1", "pre_actions": "1", "move": "r@13", "instance": "prb10166", "distance_to_goal": "NA", "progress": "NA", "move_number": "10", "optimal_length": "16", "subject": "A1F4N58CAX8IMK:3TS1AR6UQRM7SOIBWPBN8N9589Y7FV"}
{"meta_move": "drag_end", "rt": "665.0", "trial_number": "1", "pre_actions": "1", "move": "2@10", "instance": "prb10166", "distance_to_goal": "NA", "progress": "NA", "move_number": "11", "optimal_length": "16", "subject": "A1F4N58CAX8IMK:3TS1AR6UQRM7SOIBWPBN8N9589Y7FV"}
{"meta_move": "drag_end", "rt": "576.0", "trial_number": "1", "pre_actions": "1", "move": "7@0", "instance": "prb10166", "distance_to_goal": "NA", "progress": "NA", "move_number": "12", "optimal_length": "16", "subject": "A1F4N58CAX8IMK:3TS1AR6UQRM7SOIBWPBN8N9589Y7FV"}
{"meta_move": "drag_end", "rt": "944.0", "trial_number": "1", "pre_actions": "1", "move": "2@4", "instance": "prb10166", "distance_to_goal": "NA", "progress": "NA", "move_number": "13", "optimal_length": "16", "subject": "A1F4N58CAX8IMK:3TS1AR6UQRM7SOIBWPBN8N9589Y7FV"}
{"meta_move": "drag_end", "rt": "2352.0", "trial_number": "1", "pre_actions": "1", "move": "r@15", "instance": "prb10166", "distance_to_goal": "NA", "progress": "NA", "move_number": "14", "optimal_length": "16", "subject": "A1F4N58CAX8IMK:3TS1AR6UQRM7SOIBWPBN8N9589Y7FV"}
{"meta_move": "drag_end", "rt": "648.0", "trial_number": "1", "pre_actions": "1", "move": "r@12", "instance": "prb10166", "distance_to_goal": "NA", "progress": "NA", "move_number": "15", "optimal_length": "16", "subject": "A1F4N58CAX8IMK:3TS1AR6UQRM7SOIBWPBN8N9589Y7FV"}
{"meta_move": "drag_end", "rt": "1055.0", "trial_number": "1", "pre_actions": "1", "move": "5@3", "instance": "prb10166", "distance_to_goal": "NA", "progress": "NA", "move_number": "16", "optimal_length": "16", "subject": "A1F4N58CAX8IMK:3TS1AR6UQRM7SOIBWPBN8N9589Y7FV"}
{"meta_move": "drag_end", "rt": "929.0", "trial_number": "1", "pre_actions": "1", "move": "1@27", "instance": "prb10166", "distance_to_goal": "NA", "progress": "NA", "move_number": "17", "optimal_length": "16", "subject": "A1F4N58CAX8IMK:3TS1AR6UQRM7SOIBWPBN8N9589Y7FV"}
{"meta_move": "drag_end", "rt": "935.0", "trial_number": "1", "pre_actions": "1", "move": "4@23", "instance": "prb10166", "distance_to_goal": "NA", "progress": "NA", "move_number": "18", "optimal_length": "16", "subject": "A1F4N58CAX8IMK:3TS1AR6UQRM7SOIBWPBN8N9589Y7FV"}
{"meta_move": "drag_end", "rt": "6920.0", "trial_number": "1", "pre_actions": "1", "move": "4@5", "instance": "prb10166", "distance_to_goal": "NA", "progress": "NA", "move_number": "19", "optimal_length": "16", "subject": "A1F4N58CAX8IMK:3TS1AR6UQRM7SOIBWPBN8N9589Y7FV"}
{"meta_move": "drag_end", "rt": "705.0", "trial_number": "1", "pre_actions": "1", "move": "1@28", "instance": "prb10166", "distance_to_goal": "NA", "progress": "NA", "move_number": "20", "optimal_length": "16", "subject": "A1F4N58CAX8IMK:3TS1AR6UQRM7SOIBWPBN8N9589Y7FV"}
{"meta_move": "drag_end", "rt": "791.0", "trial_number": "1", "pre_actions": "1", "move": "5@21", "instance": "prb10166", "distance_to_goal": "NA", "progress": "NA", "move_number": "21", "optimal_length": "16", "subject": "A1F4N58CAX8IMK:3TS1AR6UQRM7SOIBWPBN8N9589Y7FV"}
{"meta_move": "drag_end", "rt": "4777.0", "trial_number": "1", "pre_actions": "1", "move": "r@14", "instance": "prb10166", "distance_to_goal": "NA", "progress": "NA", "move_number": "22", "optimal_length": "16", "subject": "A1F4N58CAX8IMK:3TS1AR6UQRM7SOIBWPBN8N9589Y7FV"}
{"meta_move": "drag_end", "rt": "1319.0", "trial_number": "1", "pre_actions": "1", "move": "4@11", "instance": "prb10166", "distance_to_goal": "NA", "progress": "NA", "move_number": "23", "optimal_length": "16", "subject": "A1F4N58CAX8IMK:3TS1AR6UQRM7SOIBWPBN8N9589Y7FV"}
{"meta_move": "drag_end", "rt": "904.0", "trial_number": "1", "pre_actions": "1", "move": "2@16", "instance": "prb10166", "distance_to_goal": "NA", "progress": "NA", "move_number": "24", "optimal_length": "16", "subject": "A1F4N58CAX8IMK:3TS1AR6UQRM7SOIBWPBN8N9589Y7FV"}
{"meta_move": "drag_end", "rt": "1321.0", "trial_number": "1", "pre_actions": "1", "move": "r@14", "instance": "prb10166", "distance_to_goal": "NA", "progress": "NA", "move_number": "25", "optimal_length": "16", "subject": "A1F4N58CAX8IMK:3TS1AR6UQRM7SOIBWPBN8N9589Y7FV"}
{"meta_move": "drag_end", "rt": "1175.0", "trial_number": "1", "pre_actions": "1", "move": "4@5", "instance": "prb10166", "distance_to_goal": "NA", "progress": "NA", "move_number": "25", "optimal_length": "16", "subject": "A1F4N58CAX8IMK:3TS1AR6UQRM7SOIBWPBN8N9589Y7FV"}
{"meta_move": "drag_end", "rt": "1089.0", "trial_number": "1", "pre_actions": "1", "move": "2@4", "instance": "prb10166", "distance_to_goal": "NA", "progress": "NA", "move_number": "26", "optimal_length": "16", "subject": "A1F4N58CAX8IMK:3TS1AR6UQRM7SOIBWPBN8N9589Y7FV"}
{"meta_move": "drag_end", "rt": "711.0", "trial_number": "1", "pre_actions": "1", "move": "r@15", "instance": "prb10166", "distance_to_goal": "NA", "progress": "NA", "move_number": "27", "optimal_length": "16", "subject": "A1F4N58CAX8IMK:3TS1AR6UQRM7SOIBWPBN8N9589Y7FV"}
{"meta_move": "drag_end", "rt": "1001.0", "trial_number": "1", "pre_actions": "1", "move": "1@28", "instance": "prb10166", "distance_to_goal": "NA", "progress": "NA", "move_number": "28", "optimal_length": "16", "subject": "A1F4N58CAX8IMK:3TS1AR6UQRM7SOIBWPBN8N9589Y7FV"}
{"meta_move": "drag_end", "rt": "631.0", "trial_number": "1", "pre_actions": "1", "move": "6@7", "instance": "prb10166", "distance_to_goal": "NA", "progress": "NA", "move_number": "28", "optimal_length": "16", "subject": "A1F4N58CAX8IMK:3TS1AR6UQRM7SOIBWPBN8N9589Y7FV"}
{"meta_move": "drag_end", "rt": "697.0", "trial_number": "1", "pre_actions": "1", "move": "3@6", "instance": "prb10166", "distance_to_goal": "NA", "progress": "NA", "move_number": "29", "optimal_length": "16", "subject": "A1F4N58CAX8IMK:3TS1AR6UQRM7SOIBWPBN8N9589Y7FV"}
{"meta_move": "drag_end", "rt": "911.0", "trial_number": "1", "pre_actions": "1", "move": "0@8", "instance": "prb10166", "distance_to_goal": "NA", "progress": "NA", "move_number": "30", "optimal_length": "16", "subject": "A1F4N58CAX8IMK:3TS1AR6UQRM7SOIBWPBN8N9589Y7FV"}
{"meta_move": "drag_end", "rt": "1224.0", "trial_number": "1", "pre_actions": "1", "move": "r@15", "instance": "prb10166", "distance_to_goal": "NA", "progress": "NA", "move_number": "31", "optimal_length": "16", "subject": "A1F4N58CAX8IMK:3TS1AR6UQRM7SOIBWPBN8N9589Y7FV"}
{"meta_move": "drag_end", "rt": "680.0", "trial_number": "1", "pre_actions": "1", "move": "5@21", "instance": "prb10166", "distance_to_goal": "NA", "progress": "NA", "move_number": "31", "optimal_length": "16", "subject": "A1F4N58CAX8IMK:3TS1AR6UQRM7SOIBWPBN8N9589Y7FV"}
{"meta_move": "drag_end", "rt": "905.0", "trial_number": "1", "pre_actions": "1", "move": "1@28", "instance": "prb10166", "distance_to_goal": "NA", "progress": "NA", "move_number": "31", "optimal_length": "16", "subject": "A1F4N58CAX8IMK:3TS1AR6UQRM7SOIBWPBN8N9589Y7FV"}
{"meta_move": "drag_end", "rt": "648.0", "trial_number": "1", "pre_actions": "1", "move": "5@21", "instance": "prb10166", "distance_to_goal": "NA", "progress": "NA", "move_number": "31", "optimal_length": "16", "subject": "A1F4N58CAX8IMK:3TS1AR6UQRM7SOIBWPBN8N9589Y7FV"}
{"meta_move": "drag_end", "rt": "783.0", "trial_number": "1", "pre_actions": "1", "move": "0@26", "instance": "prb10166", "distance_to_goal": "NA", "progress": "NA", "move_number": "31", "optimal_length": "16", "subject": "A1F4N58CAX8IMK:3TS1AR6UQRM7SOIBWPBN8N9589Y7FV"}
{"meta_move": "drag_end", "rt": "481.0", "trial_number": "1", "pre_actions": "1", "move": "6@25", "instance": "prb10166", "distance_to_goal": "NA", "progress": "NA", "move_number": "32", "optimal_length": "16", "subject": "A1F4N58CAX8IMK:3TS1AR6UQRM7SOIBWPBN8N9589Y7FV"}
{"meta_move": "drag_end", "rt": "767.0", "trial_number": "1", "pre_actions": "1", "move": "r@14", "instance": "prb10166", "distance_to_goal": "NA", "progress": "NA", "move_number": "33", "optimal_length": "16", "subject": "A1F4N58CAX8IMK:3TS1AR6UQRM7SOIBWPBN8N9589Y7FV"}
{"meta_move": "drag_end", "rt": "1096.0", "trial_number": "1", "pre_actions": "1", "move": "2@16", "instance": "prb10166", "distance_to_goal": "NA", "progress": "NA", "move_number": "34", "optimal_length": "16", "subject": "A1F4N58CAX8IMK:3TS1AR6UQRM7SOIBWPBN8N9589Y7FV"}
{"meta_move": "drag_end", "rt": "992.0", "trial_number": "1", "pre_actions": "1", "move": "7@2", "instance": "prb10166", "distance_to_goal": "NA", "progress": "NA", "move_number": "35", "optimal_length": "16", "subject": "A1F4N58CAX8IMK:3TS1AR6UQRM7SOIBWPBN8N9589Y7FV"}
{"meta_move": "drag_end", "rt": "800.0", "trial_number": "1", "pre_actions": "1", "move": "3@0", "instance": "prb10166", "distance_to_goal": "NA", "progress": "NA", "move_number": "36", "optimal_length": "16", "subject": "A1F4N58CAX8IMK:3TS1AR6UQRM7SOIBWPBN8N9589Y7FV"}
{"meta_move": "drag_end", "rt": "632.0", "trial_number": "1", "pre_actions": "1", "move": "r@12", "instance": "prb10166", "distance_to_goal": "NA", "progress": "NA", "move_number": "37", "optimal_length": "16", "subject": "A1F4N58CAX8IMK:3TS1AR6UQRM7SOIBWPBN8N9589Y7FV"}
{"meta_move": "drag_end", "rt": "1951.0", "trial_number": "1", "pre_actions": "1", "move": "7@1", "instance": "prb10166", "distance_to_goal": "NA", "progress": "NA", "move_number": "38", "optimal_length": "16", "subject": "A1F4N58CAX8IMK:3TS1AR6UQRM7SOIBWPBN8N9589Y7FV"}
{"meta_move": "drag_end", "rt": "624.0", "trial_number": "1", "pre_actions": "1", "move": "2@4", "instance": "prb10166", "distance_to_goal": "NA", "progress": "NA", "move_number": "39", "optimal_length": "16", "subject": "A1F4N58CAX8IMK:3TS1AR6UQRM7SOIBWPBN8N9589Y7FV"}
{"meta_move": "drag_end", "rt": "1768.0", "trial_number": "1", "pre_actions": "1", "move": "5@9", "instance": "prb10166", "distance_to_goal": "NA", "progress": "NA", "move_number": "40", "optimal_length": "16", "subject": "A1F4N58CAX8IMK:3TS1AR6UQRM7SOIBWPBN8N9589Y7FV"}
{"meta_move": "drag_end", "rt": "1032.0", "trial_number": "1", "pre_actions": "1", "move": "1@27", "instance": "prb10166", "distance_to_goal": "NA", "progress": "NA", "move_number": "41", "optimal_length": "16", "subject": "A1F4N58CAX8IMK:3TS1AR6UQRM7SOIBWPBN8N9589Y7FV"}
{"meta_move": "drag_end", "rt": "769.0", "trial_number": "1", "pre_actions": "1", "move": "4@23", "instance": "prb10166", "distance_to_goal": "NA", "progress": "NA", "move_number": "42", "optimal_length": "16", "subject": "A1F4N58CAX8IMK:3TS1AR6UQRM7SOIBWPBN8N9589Y7FV"}
{"meta_move": "drag_end", "rt": "1839.0", "trial_number": "1", "pre_actions": "1", "move": "6@19", "instance": "prb10166", "distance_to_goal": "NA", "progress": "NA", "move_number": "43", "optimal_length": "16", "subject": "A1F4N58CAX8IMK:3TS1AR6UQRM7SOIBWPBN8N9589Y7FV"}
{"meta_move": "drag_end", "rt": "1081.0", "trial_number": "1", "pre_actions": "1", "move": "0@8", "instance": "prb10166", "distance_to_goal": "NA", "progress": "NA", "move_number": "44", "optimal_length": "16", "subject": "A1F4N58CAX8IMK:3TS1AR6UQRM7SOIBWPBN8N9589Y7FV"}
{"meta_move": "drag_end", "rt": "783.0", "trial_number": "1", "pre_actions": "1", "move": "6@25", "instance": "prb10166", "distance_to_goal": "NA", "progress": "NA", "move_number": "45", "optimal_length": "16", "subject": "A1F4N58CAX8IMK:3TS1AR6UQRM7SOIBWPBN8N9589Y7FV"}
{"meta_move": "drag_end", "rt": "697.0", "trial_number": "1", "pre_actions": "1", "move": "1@26", "instance": "prb10166", "distance_to_goal": "NA", "progress": "NA", "move_number": "46", "optimal_length": "16", "subject": "A1F4N58CAX8IMK:3TS1AR6UQRM7SOIBWPBN8N9589Y7FV"}
{"meta_move": "drag_end", "rt": "1072.0", "trial_number": "1", "pre_actions": "1", "move": "2@28", "instance": "prb10166", "distance_to_goal": "NA", "progress": "NA", "move_number": "47", "optimal_length": "16", "subject": "A1F4N58CAX8IMK:3TS1AR6UQRM7SOIBWPBN8N9589Y7FV"}
{"meta_move": "drag_end", "rt": "1663.0", "trial_number": "1", "pre_actions": "1", "move": "5@9", "instance": "prb10166", "distance_to_goal": "NA", "progress": "NA", "move_number": "48", "optimal_length": "16", "subject": "A1F4N58CAX8IMK:3TS1AR6UQRM7SOIBWPBN8N9589Y7FV"}
{"meta_move": "drag_end", "rt": "656.0", "trial_number": "1", "pre_actions": "1", "move": "7@3", "instance": "prb10166", "distance_to_goal": "NA", "progress": "NA", "move_number": "48", "optimal_length": "16", "subject": "A1F4N58CAX8IMK:3TS1AR6UQRM7SOIBWPBN8N9589Y7FV"}
{"meta_move": "drag_end", "rt": "736.0", "trial_number": "1", "pre_actions": "1", "move": "0@2", "instance": "prb10166", "distance_to_goal": "NA", "progress": "NA", "move_number": "49", "optimal_length": "16", "subject": "A1F4N58CAX8IMK:3TS1AR6UQRM7SOIBWPBN8N9589Y7FV"}
{"meta_move": "drag_end", "rt": "728.0", "trial_number": "1", "pre_actions": "1", "move": "r@13", "instance": "prb10166", "distance_to_goal": "NA", "progress": "NA", "move_number": "50", "optimal_length": "16", "subject": "A1F4N58CAX8IMK:3TS1AR6UQRM7SOIBWPBN8N9589Y7FV"}
{"meta_move": "drag_end", "rt": "1280.0", "trial_number": "1", "pre_actions": "1", "move": "6@19", "instance": "prb10166", "distance_to_goal": "NA", "progress": "NA", "move_number": "51", "optimal_length": "16", "subject": "A1F4N58CAX8IMK:3TS1AR6UQRM7SOIBWPBN8N9589Y7FV"}
{"meta_move": "drag_end", "rt": "656.0", "trial_number": "1", "pre_actions": "1", "move": "1@26", "instance": "prb10166", "distance_to_goal": "NA", "progress": "NA", "move_number": "52", "optimal_length": "16", "subject": "A1F4N58CAX8IMK:3TS1AR6UQRM7SOIBWPBN8N9589Y7FV"}
{"meta_move": "drag_end", "rt": "760.0", "trial_number": "1", "pre_actions": "1", "move": "2@16", "instance": "prb10166", "distance_to_goal": "NA", "progress": "NA", "move_number": "52", "optimal_length": "16", "subject": "A1F4N58CAX8IMK:3TS1AR6UQRM7SOIBWPBN8N9589Y7FV"}
{"meta_move": "drag_end", "rt": "696.0", "trial_number": "1", "pre_actions": "1", "move": "1@27", "instance": "prb10166", "distance_to_goal": "NA", "progress": "NA", "move_number": "53", "optimal_length": "16", "subject": "A1F4N58CAX8IMK:3TS1AR6UQRM7SOIBWPBN8N9589Y7FV"}
{"meta_move": "drag_end", "rt": "1208.0", "trial_number": "1", "pre_actions": "1", "move": "1@26", "instance": "prb10166", "distance_to_goal": "NA", "progress": "NA", "move_number": "54", "optimal_length": "16", "subject": "A1F4N58CAX8IMK:3TS1AR6UQRM7SOIBWPBN8N9589Y7FV"}
{"meta_move": "drag_end", "rt": "905.0", "trial_number": "1", "pre_actions": "1", "move": "1@27", "instance": "prb10166", "distance_to_goal": "NA", "progress": "NA", "move_number": "55", "optimal_length": "16", "subject": "A1F4N58CAX8IMK:3TS1AR6UQRM7SOIBWPBN8N9589Y7FV"}
{"meta_move": "drag_end", "rt": "775.0", "trial_number": "1", "pre_actions": "1", "move": "r@12", "instance": "prb10166", "distance_to_goal": "NA", "progress": "NA", "move_number": "56", "optimal_length": "16", "subject": "A1F4N58CAX8IMK:3TS1AR6UQRM7SOIBWPBN8N9589Y7FV"}
{"meta_move": "drag_end", "rt": "1993.0", "trial_number": "1", "pre_actions": "1", "move": "6@25", "instance": "prb10166", "distance_to_goal": "NA", "progress": "NA", "move_number": "57", "optimal_length": "16", "subject": "A1F4N58CAX8IMK:3TS1AR6UQRM7SOIBWPBN8N9589Y7FV"}
{"meta_move": "drag_end", "rt": "6281.0", "trial_number": "1", "pre_actions": "1", "move": "5@3", "instance": "prb10166", "distance_to_goal": "NA", "progress": "NA", "move_number": "0", "optimal_length": "16", "subject": "A1LR0VQIHQUJAM:3YW4XOSQKRTI0K0Z2YPDTDJVFABU1I"}
{"meta_move": "drag_end", "rt": "878.0", "trial_number": "1", "pre_actions": "1", "move": "2@4", "instance": "prb10166", "distance_to_goal": "NA", "progress": "NA", "move_number": "1", "optimal_length": "16", "subject": "A1LR0VQIHQUJAM:3YW4XOSQKRTI0K0Z2YPDTDJVFABU1I"}
{"meta_move": "drag_end", "rt": "1555.0", "trial_number": "1", "pre_actions": "1", "move": "4@5", "instance": "prb10166", "distance_to_goal": "NA", "progress": "NA", "move_number": "2", "optimal_length": "16", "subject": "A1LR0VQIHQUJAM:3YW4XOSQKRTI0K0Z2YPDTDJVFABU1I"}
{"meta_move": "drag_end", "rt": "681.0", "trial_number": "1", "pre_actions": "1", "move": "1@28", "instance": "prb10166", "distance_to_goal": "NA", "progress": "NA", "move_number": "3", "optimal_length": "16", "subject": "A1LR0VQIHQUJAM:3YW4XOSQKRTI0K0Z2YPDTDJVFABU1I"}
{"meta_move": "drag_end", "rt": "742.0", "trial_number": "1", "pre_actions": "1", "move": "5@21", "instance": "prb10166", "distance_to_goal": "NA", "progress": "NA", "move_number": "4", "optimal_length": "16", "subject": "A1LR0VQIHQUJAM:3YW4XOSQKRTI0K0Z2YPDTDJVFABU1I"}
{"meta_move": "drag_end", "rt": "1071.0", "trial_number": "1", "pre_actions": "1", "move": "0@26", "instance": "prb10166", "distance_to_goal": "NA", "progress": "NA", "move_number": "5", "optimal_length": "16", "subject": "A1LR0VQIHQUJAM:3YW4XOSQKRTI0K0Z2YPDTDJVFABU1I"}
{"meta_move": "drag_end", "rt": "2860.0", "trial_number": "1", "pre_actions": "1", "move": "r@15", "instance": "prb10166", "distance_to_goal": "NA", "progress": "NA", "move_number": "6", "optimal_length": "16", "subject": "A1LR0VQIHQUJAM:3YW4XOSQKRTI0K0Z2YPDTDJVFABU1I"}
{"meta_move": "drag_end", "rt": "6097.0", "trial_number": "1", "pre_actions": "1", "move": "0@8", "instance": "prb10166", "distance_to_goal": "NA", "progress": "NA", "move_number": "7", "optimal_length": "16", "subject": "A1LR0VQIHQUJAM:3YW4XOSQKRTI0K0Z2YPDTDJVFABU1I"}
{"meta_move": "drag_end", "rt": "740.0", "trial_number": "1", "pre_actions": "1", "move": "6@7", "instance": "prb10166", "distance_to_goal": "NA", "progress": "NA", "move_number": "8", "optimal_length": "16", "subject": "A1LR0VQIHQUJAM:3YW4XOSQKRTI0K0Z2YPDTDJVFABU1I"}
{"meta_move": "drag_end", "rt": "488.0", "trial_number": "1", "pre_actions": "1", "move": "0@26", "instance": "prb10166", "distance_to_goal": "NA", "progress": "NA", "move_number": "9", "optimal_length": "16", "subject": "A1LR0VQIHQUJAM:3YW4XOSQKRTI0K0Z2YPDTDJVFABU1I"}
{"meta_move": "drag_end", "rt": "483.0", "trial_number": "1", "pre_actions": "1", "move": "r@14", "instance": "prb10166", "distance_to_goal": "NA", "progress": "NA", "move_number": "10", "optimal_length": "16", "subject": "A1LR0VQIHQUJAM:3YW4XOSQKRTI0K0Z2YPDTDJVFABU1I"}
{"meta_move": "drag_end", "rt": "3272.0", "trial_number": "1", "pre_actions": "1", "move": "6@25", "instance": "prb10166", "distance_to_goal": "NA", "progress": "NA", "move_number": "11", "optimal_length": "16", "subject": "A1LR0VQIHQUJAM:3YW4XOSQKRTI0K0Z2YPDTDJVFABU1I"}
{"meta_move": "drag_end", "rt": "712.0", "trial_number": "1", "pre_actions": "1", "move": "3@6", "instance": "prb10166", "distance_to_goal": "NA", "progress": "NA", "move_number": "12", "optimal_length": "16", "subject": "A1LR0VQIHQUJAM:3YW4XOSQKRTI0K0Z2YPDTDJVFABU1I"}
{"meta_move": "drag_end", "rt": "1214.0", "trial_number": "1", "pre_actions": "1", "move": "r@13", "instance": "prb10166", "distance_to_goal": "NA", "progress": "NA", "move_number": "13", "optimal_length": "16", "subject": "A1LR0VQIHQUJAM:3YW4XOSQKRTI0K0Z2YPDTDJVFABU1I"}
{"meta_move": "drag_end", "rt": "887.0", "trial_number": "1", "pre_actions": "1", "move": "6@25", "instance": "prb10166", "distance_to_goal": "NA", "progress": "NA", "move_number": "14", "optimal_length": "16", "subject": "A1LR0VQIHQUJAM:3YW4XOSQKRTI0K0Z2YPDTDJVFABU1I"}
{"meta_move": "drag_end", "rt": "968.0", "trial_number": "1", "pre_actions": "1", "move": "5@3", "instance": "prb10166", "distance_to_goal": "NA", "progress": "NA", "move_number": "14", "optimal_length": "16", "subject": "A1LR0VQIHQUJAM:3YW4XOSQKRTI0K0Z2YPDTDJVFABU1I"}
{"meta_move": "drag_end", "rt": "748.0", "trial_number": "1", "pre_actions": "1", "move": "1@27", "instance": "prb10166", "distance_to_goal": "NA", "progress": "NA", "move_number": "15", "optimal_length": "16", "subject": "A1LR0VQIHQUJAM:3YW4XOSQKRTI0K0Z2YPDTDJVFABU1I"}
{"meta_move": "drag_end", "rt": "1763.0", "trial_number": "1", "pre_actions": "1", "move": "4@23", "instance": "prb10166", "distance_to_goal": "NA", "progress": "NA", "move_number": "16", "optimal_length": "16", "subject": "A1LR0VQIHQUJAM:3YW4XOSQKRTI0K0Z2YPDTDJVFABU1I"}
{"meta_move": "drag_end", "rt": "1375.0", "trial_number": "1", "pre_actions": "1", "move": "6@19", "instance": "prb10166", "distance_to_goal": "NA", "progress": "NA", "move_number": "17", "optimal_length": "16", "subject": "A1LR0VQIHQUJAM:3YW4XOSQKRTI0K0Z2YPDTDJVFABU1I"}
{"meta_move": "drag_end", "rt": "401.0", "trial_number": "1", "pre_actions": "1", "move": "0@20", "instance": "prb10166", "distance_to_goal": "NA", "progress": "NA", "move_number": "18", "optimal_length": "16", "subject": "A1LR0VQIHQUJAM:3YW4XOSQKRTI0K0Z2YPDTDJVFABU1I"}
{"meta_move": "drag_end", "rt": "3468.0", "trial_number": "1", "pre_actions": "1", "move": "3@24", "instance": "prb10166", "distance_to_goal": "NA", "progress": "NA", "move_number": "19", "optimal_length": "16", "subject": "A1LR0VQIHQUJAM:3YW4XOSQKRTI0K0Z2YPDTDJVFABU1I"}
{"meta_move": "drag_end", "rt": "1804.0", "trial_number": "1", "pre_actions": "1", "move": "6@25", "instance": "prb10166", "distance_to_goal": "NA", "progress": "NA", "move_number": "20", "optimal_length": "16", "subject": "A1LR0VQIHQUJAM:3YW4XOSQKRTI0K0Z2YPDTDJVFABU1I"}
{"meta_move": "drag_end", "rt": "394.0", "trial_number": "1", "pre_actions": "1", "move": "0@26", "instance": "prb10166", "distance_to_goal": "NA", "progress": "NA", "move_number": "21", "optimal_length": "16", "subject": "A1LR0VQIHQUJAM:3YW4XOSQKRTI0K0Z2YPDTDJVFABU1I"}
{"meta_move": "drag_end", "rt": "1350.0", "trial_number": "1", "pre_actions": "1", "move": "5@9", "instance": "prb10166", "distance_to_goal": "NA", "progress": "NA", "move_number": "22", "optimal_length": "16", "subject": "A1LR0VQIHQUJAM:3YW4XOSQKRTI0K0Z2YPDTDJVFABU1I"}
{"meta_move": "drag_end", "rt": "873.0", "trial_number": "1", "pre_actions": "1", "move": "2@16", "instance": "prb10166", "distance_to_goal": "NA", "progress": "NA", "move_number": "23", "optimal_length": "16", "subject": "A1LR0VQIHQUJAM:3YW4XOSQKRTI0K0Z2YPDTDJVFABU1I"}
{"meta_move": "drag_end", "rt": "2659.0", "trial_number": "1", "pre_actions": "1", "move": "5@3", "instance": "prb10166", "distance_to_goal": "NA", "progress": "NA", "move_number": "24", "optimal_length": "16", "subject": "A1LR0VQIHQUJAM:3YW4XOSQKRTI0K0Z2YPDTDJVFABU1I"}
{"meta_move": "drag_end", "rt": "795.0", "trial_number": "1", "pre_actions": "1", "move": "0@20", "instance": "prb10166", "distance_to_goal": "NA", "progress": "NA", "move_number": "25", "optimal_length": "16", "subject": "A1LR0VQIHQUJAM:3YW4XOSQKRTI0K0Z2YPDTDJVFABU1I"}
{"meta_move": "drag_end", "rt": "738.0", "trial_number": "1", "pre_actions": "1", "move": "r@12", "instance": "prb10166", "distance_to_goal": "NA", "progress": "NA", "move_number": "26", "optimal_length": "16", "subject": "A1LR0VQIHQUJAM:3YW4XOSQKRTI0K0Z2YPDTDJVFABU1I"}
{"meta_move": "drag_end", "rt": "706.0", "trial_number": "1", "pre_actions": "1", "move": "0@8", "instance": "prb10166", "distance_to_goal": "NA", "progress": "NA", "move_number": "27", "optimal_length": "16", "subject": "A1LR0VQIHQUJAM:3YW4XOSQKRTI0K0Z2YPDTDJVFABU1I"}
{"meta_move": "drag_end", "rt": "1181.0", "trial_number": "1", "pre_actions": "1", "move": "5@9", "instance": "prb10166", "distance_to_goal": "NA", "progress": "NA", "move_number": "28", "optimal_length": "16", "subject": "A1LR0VQIHQUJAM:3YW4XOSQKRTI0K0Z2YPDTDJVFABU1I"}
{"meta_move": "drag_end", "rt": "561.0", "trial_number": "1", "pre_actions": "1", "move": "7@3", "instance": "prb10166", "distance_to_goal": "NA", "progress": "NA", "move_number": "29", "optimal_length": "16", "subject": "A1LR0VQIHQUJAM:3YW4XOSQKRTI0K0Z2YPDTDJVFABU1I"}
{"meta_move": "drag_end", "rt": "655.0", "trial_number": "1", "pre_actions": "1", "move": "0@2", "instance": "prb10166", "distance_to_goal": "NA", "progress": "NA", "move_number": "30", "optimal_length": "16", "subject": "A1LR0VQIHQUJAM:3YW4XOSQKRTI0K0Z2YPDTDJVFABU1I"}
{"meta_move": "drag_end", "rt": "1508.0", "trial_number": "1", "pre_actions": "1", "move": "1@26", "instance": "prb10166", "distance_to_goal": "NA", "progress": "NA", "move_number": "31", "optimal_length": "16", "subject": "A1LR0VQIHQUJAM:3YW4XOSQKRTI0K0Z2YPDTDJVFABU1I"}
{"meta_move": "drag_end", "rt": "2571.0", "trial_number": "1", "pre_actions": "1", "move": "r@13", "instance": "prb10166", "distance_to_goal": "NA", "progress": "NA", "move_number": "32", "optimal_length": "16", "subject": "A1LR0VQIHQUJAM:3YW4XOSQKRTI0K0Z2YPDTDJVFABU1I"}
{"meta_move": "drag_end", "rt": "996.0", "trial_number": "1", "pre_actions": "1", "move": "3@0", "instance": "prb10166", "distance_to_goal": "NA", "progress": "NA", "move_number": "33", "optimal_length": "16", "subject": "A1LR0VQIHQUJAM:3YW4XOSQKRTI0K0Z2YPDTDJVFABU1I"}
{"meta_move": "drag_end", "rt": "1029.0", "trial_number": "1", "pre_actions": "1", "move": "r@12", "instance": "prb10166", "distance_to_goal": "NA", "progress": "NA", "move_number": "34", "optimal_length": "16", "subject": "A1LR0VQIHQUJAM:3YW4XOSQKRTI0K0Z2YPDTDJVFABU1I"}
{"meta_move": "drag_end", "rt": "5121.0", "trial_number": "1", "pre_actions": "1", "move": "1@26", "instance": "prb10166", "distance_to_goal": "NA", "progress": "NA", "move_number": "35", "optimal_length": "16", "subject": "A1LR0VQIHQUJAM:3YW4XOSQKRTI0K0Z2YPDTDJVFABU1I"}
{"meta_move": "drag_end", "rt": "851.0", "trial_number": "1", "pre_actions": "1", "move": "4@11", "instance": "prb10166", "distance_to_goal": "NA", "progress": "NA", "move_number": "35", "optimal_length": "16", "subject": "A1LR0VQIHQUJAM:3YW4XOSQKRTI0K0Z2YPDTDJVFABU1I"}
{"meta_move": "drag_end", "rt": "616.0", "trial_number": "1", "pre_actions": "1", "move": "1@28", "instance": "prb10166", "distance_to_goal": "NA", "progress": "NA", "move_number": "36", "optimal_length": "16", "subject": "A1LR0VQIHQUJAM:3YW4XOSQKRTI0K0Z2YPDTDJVFABU1I"}
{"meta_move": "drag_end", "rt": "544.0", "trial_number": "1", "pre_actions": "1", "move": "5@21", "instance": "prb10166", "distance_to_goal": "NA", "progress": "NA", "move_number": "37", "optimal_length": "16", "subject": "A1LR0VQIHQUJAM:3YW4XOSQKRTI0K0Z2YPDTDJVFABU1I"}
{"meta_move": "drag_end", "rt": "678.0", "trial_number": "1", "pre_actions": "1", "move": "r@14", "instance": "prb10166", "distance_to_goal": "NA", "progress": "NA", "move_number": "38", "optimal_length": "16", "subject": "A1LR0VQIHQUJAM:3YW4XOSQKRTI0K0Z2YPDTDJVFABU1I"}
{"meta_move": "drag_end", "rt": "1223.0", "trial_number": "1", "pre_actions": "1", "move": "6@1", "instance": "prb10166", "distance_to_goal": "NA", "progress": "NA", "move_number": "39", "optimal_length": "16", "subject": "A1LR0VQIHQUJAM:3YW4XOSQKRTI0K0Z2YPDTDJVFABU1I"}
{"meta_move": "drag_end", "rt": "620.0", "trial_number": "1", "pre_actions": "1", "move": "r@12", "instance": "prb10166", "distance_to_goal": "NA", "progress": "NA", "move_number": "40", "optimal_length": "16", "subject": "A1LR0VQIHQUJAM:3YW4XOSQKRTI0K0Z2YPDTDJVFABU1I"}
{"meta_move": "drag_end", "rt": "593.0", "trial_number": "1", "pre_actions": "1", "move": "5@9", "instance": "prb10166", "distance_to_goal": "NA", "progress": "NA", "move_number": "41", "optimal_length": "16", "subject": "A1LR0VQIHQUJAM:3YW4XOSQKRTI0K0Z2YPDTDJVFABU1I"}
{"meta_move": "drag_end", "rt": "1259.0", "trial_number": "1", "pre_actions": "1", "move": "1@24", "instance": "prb10166", "distance_to_goal": "NA", "progress": "NA", "move_number": "42", "optimal_length": "16", "subject": "A1LR0VQIHQUJAM:3YW4XOSQKRTI0K0Z2YPDTDJVFABU1I"}
{"meta_move": "drag_end", "rt": "637.0", "trial_number": "1", "pre_actions": "1", "move": "5@21", "instance": "prb10166", "distance_to_goal": "NA", "progress": "NA", "move_number": "43", "optimal_length": "16", "subject": "A1LR0VQIHQUJAM:3YW4XOSQKRTI0K0Z2YPDTDJVFABU1I"}
{"meta_move": "drag_end", "rt": "361.0", "trial_number": "1", "pre_actions": "1", "move": "2@28", "instance": "prb10166", "distance_to_goal": "NA", "progress": "NA", "move_number": "44", "optimal_length": "16", "subject": "A1LR0VQIHQUJAM:3YW4XOSQKRTI0K0Z2YPDTDJVFABU1I"}
{"meta_move": "drag_end", "rt": "369.0", "trial_number": "1", "pre_actions": "1", "move": "4@23", "instance": "prb10166", "distance_to_goal": "NA", "progress": "NA", "move_number": "45", "optimal_length": "16", "subject": "A1LR0VQIHQUJAM:3YW4XOSQKRTI0K0Z2YPDTDJVFABU1I"}
{"meta_move": "win", "rt": "535.0", "trial_number": "1", "pre_actions": "1", "move": "r@12", "instance": "prb10166", "distance_to_goal": "1", "progress": "NA", "move_number": "46", "optimal_length": "16", "subject": "A1LR0VQIHQUJAM:3YW4XOSQKRTI0K0Z2YPDTDJVFABU1I"}
{"meta_move": "drag_end", "rt": "93.0", "trial_number": "0", "pre_actions": "0", "move": "r@16", "instance": "prb10166", "distance_to_goal": "NA", "progress": "NA", "move_number": "46", "optimal_length": "16", "subject": "A1LR0VQIHQUJAM:3YW4XOSQKRTI0K0Z2YPDTDJVFABU1I"}
{"meta_move": "drag_end", "rt": "3367.0", "trial_number": "1", "pre_actions": "1", "move": "7@3", "instance": "prb10166", "distance_to_goal": "NA", "progress": "NA", "move_number": "0", "optimal_length": "16", "subject": "A214HWAW1PYWO8:34BBWHLWHBJ6SUL255PK30LEGY5IWG"}
{"meta_move": "drag_end", "rt": "569.0", "trial_number": "1", "pre_actions": "1", "move": "0@2", "instance": "prb10166", "distance_to_goal": "NA", "progress": "NA", "move_number": "1", "optimal_length": "16", "subject": "A214HWAW1PYWO8:34BBWHLWHBJ6SUL255PK30LEGY5IWG"}
{"meta_move": "drag_end", "rt": "487.0", "trial_number": "1", "pre_actions": "1", "move": "r@13", "instance": "prb10166", "distance_to_goal": "NA", "progress": "NA", "move_number": "2", "optimal_length": "16", "subject": "A214HWAW1PYWO8:34BBWHLWHBJ6SUL255PK30LEGY5IWG"}
{"meta_move": "drag_end", "rt": "1928.0", "trial_number": "1", "pre_actions": "1", "move": "r@13", "instance": "prb10166", "distance_to_goal": "NA", "progress": "NA", "move_number": "3", "optimal_length": "16", "subject": "A214HWAW1PYWO8:34BBWHLWHBJ6SUL255PK30LEGY5IWG"}
{"meta_move": "drag_end", "rt": "973.0", "trial_number": "1", "pre_actions": "1", "move": "3@0", "instance": "prb10166", "distance_to_goal": "NA", "progress": "NA", "move_number": "3", "optimal_length": "16", "subject": "A214HWAW1PYWO8:34BBWHLWHBJ6SUL255PK30LEGY5IWG"}
{"meta_move": "drag_end", "rt": "1071.0", "trial_number": "1", "pre_actions": "1", "move": "r@12", "instance": "prb10166", "distance_to_goal": "NA", "progress": "NA", "move_number": "4", "optimal_length": "16", "subject": "A214HWAW1PYWO8:34BBWHLWHBJ6SUL255PK30LEGY5IWG"}
{"meta_move": "drag_end", "rt": "2324.0", "trial_number": "1", "pre_actions": "1", "move": "6@19", "instance": "prb10166", "distance_to_goal": "NA", "progress": "NA", "move_number": "5", "optimal_length": "16", "subject": "A214HWAW1PYWO8:34BBWHLWHBJ6SUL255PK30LEGY5IWG"}
{"meta_move": "drag_end", "rt": "569.0", "trial_number": "1", "pre_actions": "1", "move": "6@25", "instance": "prb10166", "distance_to_goal": "NA", "progress": "NA", "move_number": "6", "optimal_length": "16", "subject": "A214HWAW1PYWO8:34BBWHLWHBJ6SUL255PK30LEGY5IWG"}
{"meta_move": "drag_end", "rt": "509.0", "trial_number": "1", "pre_actions": "1", "move": "5@9", "instance": "prb10166", "distance_to_goal": "NA", "progress": "NA", "move_number": "7", "optimal_length": "16", "subject": "A214HWAW1PYWO8:34BBWHLWHBJ6SUL255PK30LEGY5IWG"}
{"meta_move": "drag_end", "rt": "1105.0", "trial_number": "1", "pre_actions": "1", "move": "2@28", "instance": "prb10166", "distance_to_goal": "NA", "progress": "NA", "move_number": "7", "optimal_length": "16", "subject": "A214HWAW1PYWO8:34BBWHLWHBJ6SUL255PK30LEGY5IWG"}
{"meta_move": "drag_end", "rt": "967.0", "trial_number": "1", "pre_actions": "1", "move": "0@14", "instance": "prb10166", "distance_to_goal": "NA", "progress": "NA", "move_number": "7", "optimal_length": "16", "subject": "A214HWAW1PYWO8:34BBWHLWHBJ6SUL255PK30LEGY5IWG"}
{"meta_move": "drag_end", "rt": "1604.0", "trial_number": "1", "pre_actions": "1", "move": "7@1", "instance": "prb10166", "distance_to_goal": "NA", "progress": "NA", "move_number": "8", "optimal_length": "16", "subject": "A214HWAW1PYWO8:34BBWHLWHBJ6SUL255PK30LEGY5IWG"}
{"meta_move": "drag_end", "rt": "894.0", "trial_number": "1", "pre_actions": "1", "move": "4@5", "instance": "prb10166", "distance_to_goal": "NA", "progress": "NA", "move_number": "9", "optimal_length": "16", "subject": "A214HWAW1PYWO8:34BBWHLWHBJ6SUL255PK30LEGY5IWG"}
{"meta_move": "drag_end", "rt": "561.0", "trial_number": "1", "pre_actions": "1", "move": "2@4", "instance": "prb10166", "distance_to_goal": "NA", "progress": "NA", "move_number": "10", "optimal_length": "16", "subject": "A214HWAW1PYWO8:34BBWHLWHBJ6SUL255PK30LEGY5IWG"}
{"meta_move": "drag_end", "rt": "649.0", "trial_number": "1", "pre_actions": "1", "move": "1@28", "instance": "prb10166", "distance_to_goal": "NA", "progress": "NA", "move_number": "11", "optimal_length": "16", "subject": "A214HWAW1PYWO8:34BBWHLWHBJ6SUL255PK30LEGY5IWG"}
{"meta_move": "drag_end", "rt": "515.0", "trial_number": "1", "pre_actions": "1", "move": "5@21", "instance": "prb10166", "distance_to_goal": "NA", "progress": "NA", "move_number": "12", "optimal_length": "16", "subject": "A214HWAW1PYWO8:34BBWHLWHBJ6SUL255PK30LEGY5IWG"}
{"meta_move": "drag_end", "rt": "412.0", "trial_number": "1", "pre_actions": "1", "move": "0@26", "instance": "prb10166", "distance_to_goal": "NA", "progress": "NA", "move_number": "13", "optimal_length": "16", "subject": "A214HWAW1PYWO8:34BBWHLWHBJ6SUL255PK30LEGY5IWG"}
{"meta_move": "drag_end", "rt": "566.0", "trial_number": "1", "pre_actions": "1", "move": "r@15", "instance": "prb10166", "distance_to_goal": "NA", "progress": "NA", "move_number": "14", "optimal_length": "16", "subject": "A214HWAW1PYWO8:34BBWHLWHBJ6SUL255PK30LEGY5IWG"}
{"meta_move": "drag_end", "rt": "1233.0", "trial_number": "1", "pre_actions": "1", "move": "r@13", "instance": "prb10166", "distance_to_goal": "NA", "progress": "NA", "move_number": "15", "optimal_length": "16", "subject": "A214HWAW1PYWO8:34BBWHLWHBJ6SUL255PK30LEGY5IWG"}
{"meta_move": "drag_end", "rt": "896.0", "trial_number": "1", "pre_actions": "1", "move": "r@15", "instance": "prb10166", "distance_to_goal": "NA", "progress": "NA", "move_number": "16", "optimal_length": "16", "subject": "A214HWAW1PYWO8:34BBWHLWHBJ6SUL255PK30LEGY5IWG"}
{"meta_move": "drag_end", "rt": "560.0", "trial_number": "1", "pre_actions": "1", "move": "6@7", "instance": "prb10166", "distance_to_goal": "NA", "progress": "NA", "move_number": "17", "optimal_length": "16", "subject": "A214HWAW1PYWO8:34BBWHLWHBJ6SUL255PK30LEGY5IWG"}
{"meta_move": "drag_end", "rt": "615.0", "trial_number": "1", "pre_actions": "1", "move": "0@26", "instance": "prb10166", "distance_to_goal": "NA", "progress": "NA", "move_number": "18", "optimal_length": "16", "subject": "A214HWAW1PYWO8:34BBWHLWHBJ6SUL255PK30LEGY5IWG"}
{"meta_move": "drag_end", "rt": "486.0", "trial_number": "1", "pre_actions": "1", "move": "6@25", "instance": "prb10166", "distance_to_goal": "NA", "progress": "NA", "move_number": "18", "optimal_length": "16", "subject": "A214HWAW1PYWO8:34BBWHLWHBJ6SUL255PK30LEGY5IWG"}
{"meta_move": "drag_end", "rt": "2397.0", "trial_number": "1", "pre_actions": "1", "move": "r@12", "instance": "prb10166", "distance_to_goal": "NA", "progress": "NA", "move_number": "19", "optimal_length": "16", "subject": "A214HWAW1PYWO8:34BBWHLWHBJ6SUL255PK30LEGY5IWG"}
{"meta_move": "drag_end", "rt": "2776.0", "trial_number": "1", "pre_actions": "1", "move": "r@14", "instance": "prb10166", "distance_to_goal": "NA", "progress": "NA", "move_number": "20", "optimal_length": "16", "subject": "A214HWAW1PYWO8:34BBWHLWHBJ6SUL255PK30LEGY5IWG"}
{"meta_move": "drag_end", "rt": "1058.0", "trial_number": "1", "pre_actions": "1", "move": "r@12", "instance": "prb10166", "distance_to_goal": "NA", "progress": "NA", "move_number": "21", "optimal_length": "16", "subject": "A214HWAW1PYWO8:34BBWHLWHBJ6SUL255PK30LEGY5IWG"}
{"meta_move": "drag_end", "rt": "1242.0", "trial_number": "1", "pre_actions": "1", "move": "2@16", "instance": "prb10166", "distance_to_goal": "NA", "progress": "NA", "move_number": "22", "optimal_length": "16", "subject": "A214HWAW1PYWO8:34BBWHLWHBJ6SUL255PK30LEGY5IWG"}
{"meta_move": "drag_end", "rt": "57260.0", "trial_number": "2", "pre_actions": "1", "move": "4@23", "instance": "prb10166", "distance_to_goal": "NA", "progress": "NA", "move_number": "0", "optimal_length": "16", "subject": "A214HWAW1PYWO8:34BBWHLWHBJ6SUL255PK30LEGY5IWG"}
{"meta_move": "drag_end", "rt": "1754.0", "trial_number": "2", "pre_actions": "1", "move": "7@3", "instance": "prb10166", "distance_to_goal": "NA", "progress": "NA", "move_number": "0", "optimal_length": "16", "subject": "A214HWAW1PYWO8:34BBWHLWHBJ6SUL255PK30LEGY5IWG"}
{"meta_move": "drag_end", "rt": "1507.0", "trial_number": "2", "pre_actions": "1", "move": "0@14", "instance": "prb10166", "distance_to_goal": "NA", "progress": "NA", "move_number": "1", "optimal_length": "16", "subject": "A214HWAW1PYWO8:34BBWHLWHBJ6SUL255PK30LEGY5IWG"}
{"meta_move": "drag_end", "rt": "511.0", "trial_number": "2", "pre_actions": "1", "move": "7@0", "instance": "prb10166", "distance_to_goal": "NA", "progress": "NA", "move_number": "2", "optimal_length": "16", "subject": "A214HWAW1PYWO8:34BBWHLWHBJ6SUL255PK30LEGY5IWG"}
{"meta_move": "drag_end", "rt": "608.0", "trial_number": "2", "pre_actions": "1", "move": "5@3", "instance": "prb10166", "distance_to_goal": "NA", "progress": "NA", "move_number": "3", "optimal_length": "16", "subject": "A214HWAW1PYWO8:34BBWHLWHBJ6SUL255PK30LEGY5IWG"}
{"meta_move": "drag_end", "rt": "983.0", "trial_number": "2", "pre_actions": "1", "move": "0@14", "instance": "prb10166", "distance_to_goal": "NA", "progress": "NA", "move_number": "4", "optimal_length": "16", "subject": "A214HWAW1PYWO8:34BBWHLWHBJ6SUL255PK30LEGY5IWG"}
{"meta_move": "drag_end", "rt": "1410.0", "trial_number": "2", "pre_actions": "1", "move": "5@9", "instance": "prb10166", "distance_to_goal": "NA", "progress": "NA", "move_number": "4", "optimal_length": "16", "subject": "A214HWAW1PYWO8:34BBWHLWHBJ6SUL255PK30LEGY5IWG"}
{"meta_move": "drag_end", "rt": "448.0", "trial_number": "2", "pre_actions": "1", "move": "0@8", "instance": "prb10166", "distance_to_goal": "NA", "progress": "NA", "move_number": "5", "optimal_length": "16", "subject": "A214HWAW1PYWO8:34BBWHLWHBJ6SUL255PK30LEGY5IWG"}
{"meta_move": "drag_end", "rt": "401.0", "trial_number": "2", "pre_actions": "1", "move": "7@3", "instance": "prb10166", "distance_to_goal": "NA", "progress": "NA", "move_number": "6", "optimal_length": "16", "subject": "A214HWAW1PYWO8:34BBWHLWHBJ6SUL255PK30LEGY5IWG"}
{"meta_move": "drag_end", "rt": "444.0", "trial_number": "2", "pre_actions": "1", "move": "0@2", "instance": "prb10166", "distance_to_goal": "NA", "progress": "NA", "move_number": "7", "optimal_length": "16", "subject": "A214HWAW1PYWO8:34BBWHLWHBJ6SUL255PK30LEGY5IWG"}
{"meta_move": "drag_end", "rt": "438.0", "trial_number": "2", "pre_actions": "1", "move": "r@13", "instance": "prb10166", "distance_to_goal": "NA", "progress": "NA", "move_number": "8", "optimal_length": "16", "subject": "A214HWAW1PYWO8:34BBWHLWHBJ6SUL255PK30LEGY5IWG"}
{"meta_move": "drag_end", "rt": "613.0", "trial_number": "2", "pre_actions": "1", "move": "3@0", "instance": "prb10166", "distance_to_goal": "NA", "progress": "NA", "move_number": "9", "optimal_length": "16", "subject": "A214HWAW1PYWO8:34BBWHLWHBJ6SUL255PK30LEGY5IWG"}
{"meta_move": "drag_end", "rt": "600.0", "trial_number": "2", "pre_actions": "1", "move": "r@12", "instance": "prb10166", "distance_to_goal": "NA", "progress": "NA", "move_number": "10", "optimal_length": "16", "subject": "A214HWAW1PYWO8:34BBWHLWHBJ6SUL255PK30LEGY5IWG"}
{"meta_move": "drag_end", "rt": "1163.0", "trial_number": "2", "pre_actions": "1", "move": "0@14", "instance": "prb10166", "distance_to_goal": "NA", "progress": "NA", "move_number": "11", "optimal_length": "16", "subject": "A214HWAW1PYWO8:34BBWHLWHBJ6SUL255PK30LEGY5IWG"}
{"meta_move": "drag_end", "rt": "1013.0", "trial_number": "2", "pre_actions": "1", "move": "7@1", "instance": "prb10166", "distance_to_goal": "NA", "progress": "NA", "move_number": "12", "optimal_length": "16", "subject": "A214HWAW1PYWO8:34BBWHLWHBJ6SUL255PK30LEGY5IWG"}
{"meta_move": "drag_end", "rt": "925.0", "trial_number": "2", "pre_actions": "1", "move": "2@4", "instance": "prb10166", "distance_to_goal": "NA", "progress": "NA", "move_number": "13", "optimal_length": "16", "subject": "A214HWAW1PYWO8:34BBWHLWHBJ6SUL255PK30LEGY5IWG"}
{"meta_move": "drag_end", "rt": "498.0", "trial_number": "2", "pre_actions": "1", "move": "4@5", "instance": "prb10166", "distance_to_goal": "NA", "progress": "NA", "move_number": "14", "optimal_length": "16", "subject": "A214HWAW1PYWO8:34BBWHLWHBJ6SUL255PK30LEGY5IWG"}
{"meta_move": "drag_end", "rt": "730.0", "trial_number": "2", "pre_actions": "1", "move": "1@28", "instance": "prb10166", "distance_to_goal": "NA", "progress": "NA", "move_number": "15", "optimal_length": "16", "subject": "A214HWAW1PYWO8:34BBWHLWHBJ6SUL255PK30LEGY5IWG"}
{"meta_move": "drag_end", "rt": "502.0", "trial_number": "2", "pre_actions": "1", "move": "5@21", "instance": "prb10166", "distance_to_goal": "NA", "progress": "NA", "move_number": "16", "optimal_length": "16", "subject": "A214HWAW1PYWO8:34BBWHLWHBJ6SUL255PK30LEGY5IWG"}
{"meta_move": "drag_end", "rt": "391.0", "trial_number": "2", "pre_actions": "1", "move": "0@26", "instance": "prb10166", "distance_to_goal": "NA", "progress": "NA", "move_number": "17", "optimal_length": "16", "subject": "A214HWAW1PYWO8:34BBWHLWHBJ6SUL255PK30LEGY5IWG"}
{"meta_move": "drag_end", "rt": "1678.0", "trial_number": "2", "pre_actions": "1", "move": "0@8", "instance": "prb10166", "distance_to_goal": "NA", "progress": "NA", "move_number": "18", "optimal_length": "16", "subject": "A214HWAW1PYWO8:34BBWHLWHBJ6SUL255PK30LEGY5IWG"}
{"meta_move": "drag_end", "rt": "866.0", "trial_number": "2", "pre_actions": "1", "move": "0@26", "instance": "prb10166", "distance_to_goal": "NA", "progress": "NA", "move_number": "19", "optimal_length": "16", "subject": "A214HWAW1PYWO8:34BBWHLWHBJ6SUL255PK30LEGY5IWG"}
{"meta_move": "drag_end", "rt": "950.0", "trial_number": "2", "pre_actions": "1", "move": "r@15", "instance": "prb10166", "distance_to_goal": "NA", "progress": "NA", "move_number": "20", "optimal_length": "16", "subject": "A214HWAW1PYWO8:34BBWHLWHBJ6SUL255PK30LEGY5IWG"}
{"meta_move": "drag_end", "rt": "1643.0", "trial_number": "2", "pre_actions": "1", "move": "0@8", "instance": "prb10166", "distance_to_goal": "NA", "progress": "NA", "move_number": "21", "optimal_length": "16", "subject": "A214HWAW1PYWO8:34BBWHLWHBJ6SUL255PK30LEGY5IWG"}
{"meta_move": "drag_end", "rt": "470.0", "trial_number": "2", "pre_actions": "1", "move": "6@7", "instance": "prb10166", "distance_to_goal": "NA", "progress": "NA", "move_number": "22", "optimal_length": "16", "subject": "A214HWAW1PYWO8:34BBWHLWHBJ6SUL255PK30LEGY5IWG"}
{"meta_move": "drag_end", "rt": "1076.0", "trial_number": "2", "pre_actions": "1", "move": "4@11", "instance": "prb10166", "distance_to_goal": "NA", "progress": "NA", "move_number": "23", "optimal_length": "16", "subject": "A214HWAW1PYWO8:34BBWHLWHBJ6SUL255PK30LEGY5IWG"}
{"meta_move": "drag_end", "rt": "75.0", "trial_number": "2", "pre_actions": "1", "move": "1@28", "instance": "prb10166", "distance_to_goal": "NA", "progress": "NA", "move_number": "24", "optimal_length": "16", "subject": "A214HWAW1PYWO8:34BBWHLWHBJ6SUL255PK30LEGY5IWG"}
{"meta_move": "drag_end", "rt": "461.0", "trial_number": "2", "pre_actions": "1", "move": "1@28", "instance": "prb10166", "distance_to_goal": "NA", "progress": "NA", "move_number": "24", "optimal_length": "16", "subject": "A214HWAW1PYWO8:34BBWHLWHBJ6SUL255PK30LEGY5IWG"}
{"meta_move": "drag_end", "rt": "341.0", "trial_number": "2", "pre_actions": "1", "move": "5@21", "instance": "prb10166", "distance_to_goal": "NA", "progress": "NA", "move_number": "24", "optimal_length": "16", "subject": "A214HWAW1PYWO8:34BBWHLWHBJ6SUL255PK30LEGY5IWG"}
{"meta_move": "drag_end", "rt": "437.0", "trial_number": "2", "pre_actions": "1", "move": "0@26", "instance": "prb10166", "distance_to_goal": "NA", "progress": "NA", "move_number": "24", "optimal_length": "16", "subject": "A214HWAW1PYWO8:34BBWHLWHBJ6SUL255PK30LEGY5IWG"}
{"meta_move": "drag_end", "rt": "460.0", "trial_number": "2", "pre_actions": "1", "move": "6@25", "instance": "prb10166", "distance_to_goal": "NA", "progress": "NA", "move_number": "25", "optimal_length": "16", "subject": "A214HWAW1PYWO8:34BBWHLWHBJ6SUL255PK30LEGY5IWG"}
{"meta_move": "drag_end", "rt": "487.0", "trial_number": "2", "pre_actions": "1", "move": "r@12", "instance": "prb10166", "distance_to_goal": "NA", "progress": "NA", "move_number": "26", "optimal_length": "16", "subject": "A214HWAW1PYWO8:34BBWHLWHBJ6SUL255PK30LEGY5IWG"}
{"meta_move": "drag_end", "rt": "1416.0", "trial_number": "2", "pre_actions": "1", "move": "r@14", "instance": "prb10166", "distance_to_goal": "NA", "progress": "NA", "move_number": "27", "optimal_length": "16", "subject": "A214HWAW1PYWO8:34BBWHLWHBJ6SUL255PK30LEGY5IWG"}
{"meta_move": "drag_end", "rt": "650.0", "trial_number": "2", "pre_actions": "1", "move": "3@24", "instance": "prb10166", "distance_to_goal": "NA", "progress": "NA", "move_number": "28", "optimal_length": "16", "subject": "A214HWAW1PYWO8:34BBWHLWHBJ6SUL255PK30LEGY5IWG"}
{"meta_move": "drag_end", "rt": "557.0", "trial_number": "2", "pre_actions": "1", "move": "7@0", "instance": "prb10166", "distance_to_goal": "NA", "progress": "NA", "move_number": "29", "optimal_length": "16", "subject": "A214HWAW1PYWO8:34BBWHLWHBJ6SUL255PK30LEGY5IWG"}
{"meta_move": "drag_end", "rt": "434.0", "trial_number": "2", "pre_actions": "1", "move": "r@13", "instance": "prb10166", "distance_to_goal": "NA", "progress": "NA", "move_number": "30", "optimal_length": "16", "subject": "A214HWAW1PYWO8:34BBWHLWHBJ6SUL255PK30LEGY5IWG"}
{"meta_move": "drag_end", "rt": "527.0", "trial_number": "2", "pre_actions": "1", "move": "5@3", "instance": "prb10166", "distance_to_goal": "NA", "progress": "NA", "move_number": "31", "optimal_length": "16", "subject": "A214HWAW1PYWO8:34BBWHLWHBJ6SUL255PK30LEGY5IWG"}
{"meta_move": "drag_end", "rt": "2819.0", "trial_number": "2", "pre_actions": "1", "move": "1@27", "instance": "prb10166", "distance_to_goal": "NA", "progress": "NA", "move_number": "32", "optimal_length": "16", "subject": "A214HWAW1PYWO8:34BBWHLWHBJ6SUL255PK30LEGY5IWG"}
{"meta_move": "drag_end", "rt": "857.0", "trial_number": "2", "pre_actions": "1", "move": "4@23", "instance": "prb10166", "distance_to_goal": "NA", "progress": "NA", "move_number": "33", "optimal_length": "16", "subject": "A214HWAW1PYWO8:34BBWHLWHBJ6SUL255PK30LEGY5IWG"}
{"meta_move": "drag_end", "rt": "1269.0", "trial_number": "2", "pre_actions": "1", "move": "2@16", "instance": "prb10166", "distance_to_goal": "NA", "progress": "NA", "move_number": "34", "optimal_length": "16", "subject": "A214HWAW1PYWO8:34BBWHLWHBJ6SUL255PK30LEGY5IWG"}
{"meta_move": "drag_end", "rt": "1315.0", "trial_number": "2", "pre_actions": "1", "move": "5@9", "instance": "prb10166", "distance_to_goal": "NA", "progress": "NA", "move_number": "35", "optimal_length": "16", "subject": "A214HWAW1PYWO8:34BBWHLWHBJ6SUL255PK30LEGY5IWG"}
{"meta_move": "drag_end", "rt": "672.0", "trial_number": "2", "pre_actions": "1", "move": "5@3", "instance": "prb10166", "distance_to_goal": "NA", "progress": "NA", "move_number": "36", "optimal_length": "16", "subject": "A214HWAW1PYWO8:34BBWHLWHBJ6SUL255PK30LEGY5IWG"}
{"meta_move": "drag_end", "rt": "3490.0", "trial_number": "2", "pre_actions": "1", "move": "3@6", "instance": "prb10166", "distance_to_goal": "NA", "progress": "NA", "move_number": "37", "optimal_length": "16", "subject": "A214HWAW1PYWO8:34BBWHLWHBJ6SUL255PK30LEGY5IWG"}
{"meta_move": "drag_end", "rt": "1327.0", "trial_number": "2", "pre_actions": "1", "move": "5@9", "instance": "prb10166", "distance_to_goal": "NA", "progress": "NA", "move_number": "38", "optimal_length": "16", "subject": "A214HWAW1PYWO8:34BBWHLWHBJ6SUL255PK30LEGY5IWG"}
{"meta_move": "drag_end", "rt": "1576.0", "trial_number": "17", "pre_actions": "1", "move": "4@5", "instance": "prb10166", "distance_to_goal": "NA", "progress": "NA", "move_number": "0", "optimal_length": "16", "subject": "A214HWAW1PYWO8:34BBWHLWHBJ6SUL255PK30LEGY5IWG"}
{"meta_move": "drag_end", "rt": "590.0", "trial_number": "17", "pre_actions": "1", "move": "5@3", "instance": "prb10166", "distance_to_goal": "NA", "progress": "NA", "move_number": "1", "optimal_length": "16", "subject": "A214HWAW1PYWO8:34BBWHLWHBJ6SUL255PK30LEGY5IWG"}
{"meta_move": "drag_end", "rt": "486.0", "trial_number": "17", "pre_actions": "1", "move": "0@14", "instance": "prb10166", "distance_to_goal": "NA", "progress": "NA", "move_number": "2", "optimal_length": "16", "subject": "A214HWAW1PYWO8:34BBWHLWHBJ6SUL255PK30LEGY5IWG"}
{"meta_move": "drag_end", "rt": "1202.0", "trial_number": "17", "pre_actions": "1", "move": "2@4", "instance": "prb10166", "distance_to_goal": "NA", "progress": "NA", "move_number": "3", "optimal_length": "16", "subject": "A214HWAW1PYWO8:34BBWHLWHBJ6SUL255PK30LEGY5IWG"}
{"meta_move": "drag_end", "rt": "508.0", "trial_number": "17", "pre_actions": "1", "move": "0@8", "instance": "prb10166", "distance_to_goal": "NA", "progress": "NA", "move_number": "4", "optimal_length": "16", "subject": "A214HWAW1PYWO8:34BBWHLWHBJ6SUL255PK30LEGY5IWG"}
{"meta_move": "drag_end", "rt": "640.0", "trial_number": "17", "pre_actions": "1", "move": "1@28", "instance": "prb10166", "distance_to_goal": "NA", "progress": "NA", "move_number": "5", "optimal_length": "16", "subject": "A214HWAW1PYWO8:34BBWHLWHBJ6SUL255PK30LEGY5IWG"}
{"meta_move": "drag_end", "rt": "689.0", "trial_number": "17", "pre_actions": "1", "move": "0@26", "instance": "prb10166", "distance_to_goal": "NA", "progress": "NA", "move_number": "6", "optimal_length": "16", "subject": "A214HWAW1PYWO8:34BBWHLWHBJ6SUL255PK30LEGY5IWG"}
{"meta_move": "drag_end", "rt": "406.0", "trial_number": "17", "pre_actions": "1", "move": "5@21", "instance": "prb10166", "distance_to_goal": "NA", "progress": "NA", "move_number": "7", "optimal_length": "16", "subject": "A214HWAW1PYWO8:34BBWHLWHBJ6SUL255PK30LEGY5IWG"}
{"meta_move": "drag_end", "rt": "755.0", "trial_number": "17", "pre_actions": "1", "move": "r@15", "instance": "prb10166", "distance_to_goal": "NA", "progress": "NA", "move_number": "8", "optimal_length": "16", "subject": "A214HWAW1PYWO8:34BBWHLWHBJ6SUL255PK30LEGY5IWG"}
{"meta_move": "drag_end", "rt": "6303.0", "trial_number": "18", "pre_actions": "1", "move": "2@4", "instance": "prb10166", "distance_to_goal": "NA", "progress": "NA", "move_number": "0", "optimal_length": "16", "subject": "A214HWAW1PYWO8:34BBWHLWHBJ6SUL255PK30LEGY5IWG"}
{"meta_move": "drag_end", "rt": "519.0", "trial_number": "18", "pre_actions": "1", "move": "4@5", "instance": "prb10166", "distance_to_goal": "NA", "progress": "NA", "move_number": "1", "optimal_length": "16", "subject": "A214HWAW1PYWO8:34BBWHLWHBJ6SUL255PK30LEGY5IWG"}
{"meta_move": "drag_end", "rt": "585.0", "trial_number": "18", "pre_actions": "1", "move": "1@28", "instance": "prb10166", "distance_to_goal": "NA", "progress": "NA", "move_number": "2", "optimal_length": "16", "subject": "A214HWAW1PYWO8:34BBWHLWHBJ6SUL255PK30LEGY5IWG"}
{"meta_move": "drag_end", "rt": "519.0", "trial_number": "18", "pre_actions": "1", "move": "5@21", "instance": "prb10166", "distance_to_goal": "NA", "progress": "NA", "move_number": "3", "optimal_length": "16", "subject": "A214HWAW1PYWO8:34BBWHLWHBJ6SUL255PK30LEGY5IWG"}
{"meta_move": "drag_end", "rt": "546.0", "trial_number": "18", "pre_actions": "1", "move": "0@26", "instance": "prb10166", "distance_to_goal": "NA", "progress": "NA", "move_number": "4", "optimal_length": "16", "subject": "A214HWAW1PYWO8:34BBWHLWHBJ6SUL255PK30LEGY5IWG"}
{"meta_move": "drag_end", "rt": "2228.0", "trial_number": "18", "pre_actions": "1", "move": "r@15", "instance": "prb10166", "distance_to_goal": "NA", "progress": "NA", "move_number": "5", "optimal_length": "16", "subject": "A214HWAW1PYWO8:34BBWHLWHBJ6SUL255PK30LEGY5IWG"}
{"meta_move": "drag_end", "rt": "2347.0", "trial_number": "18", "pre_actions": "1", "move": "r@13", "instance": "prb10166", "distance_to_goal": "NA", "progress": "NA", "move_number": "6", "optimal_length": "16", "subject": "A214HWAW1PYWO8:34BBWHLWHBJ6SUL255PK30LEGY5IWG"}
{"meta_move": "drag_end", "rt": "537.0", "trial_number": "18", "pre_actions": "1", "move": "5@3", "instance": "prb10166", "distance_to_goal": "NA", "progress": "NA", "move_number": "7", "optimal_length": "16", "subject": "A214HWAW1PYWO8:34BBWHLWHBJ6SUL255PK30LEGY5IWG"}
{"meta_move": "drag_end", "rt": "3363.0", "trial_number": "1", "pre_actions": "1", "move": "4@5", "instance": "prb10166", "distance_to_goal": "NA", "progress": "NA", "move_number": "0", "optimal_length": "16", "subject": "A21S7MA9DCW95E:3X87C8JFV7JQ2BSCY8KSFD9F2ILSQK"}
{"meta_move": "drag_end", "rt": "1594.0", "trial_number": "1", "pre_actions": "1", "move": "5@3", "instance": "prb10166", "distance_to_goal": "NA", "progress": "NA", "move_number": "1", "optimal_length": "16", "subject": "A21S7MA9DCW95E:3X87C8JFV7JQ2BSCY8KSFD9F2ILSQK"}
{"meta_move": "drag_end", "rt": "6560.0", "trial_number": "1", "pre_actions": "1", "move": "2@4", "instance": "prb10166", "distance_to_goal": "NA", "progress": "NA", "move_number": "2", "optimal_length": "16", "subject": "A21S7MA9DCW95E:3X87C8JFV7JQ2BSCY8KSFD9F2ILSQK"}
{"meta_move": "drag_end", "rt": "4515.0", "trial_number": "2", "pre_actions": "1", "move": "6@19", "instance": "prb10166", "distance_to_goal": "NA", "progress": "NA", "move_number": "0", "optimal_length": "16", "subject": "A21S7MA9DCW95E:3X87C8JFV7JQ2BSCY8KSFD9F2ILSQK"}
{"meta_move": "drag_end", "rt": "2062.0", "trial_number": "2", "pre_actions": "1", "move": "6@25", "instance": "prb10166", "distance_to_goal": "NA", "progress": "NA", "move_number": "1", "optimal_length": "16", "subject": "A21S7MA9DCW95E:3X87C8JFV7JQ2BSCY8KSFD9F2ILSQK"}
{"meta_move": "drag_end", "rt": "1517.0", "trial_number": "2", "pre_actions": "1", "move": "5@3", "instance": "prb10166", "distance_to_goal": "NA", "progress": "NA", "move_number": "2", "optimal_length": "16", "subject": "A21S7MA9DCW95E:3X87C8JFV7JQ2BSCY8KSFD9F2ILSQK"}
{"meta_move": "drag_end", "rt": "3715.0", "trial_number": "2", "pre_actions": "1", "move": "2@28", "instance": "prb10166", "distance_to_goal": "NA", "progress": "NA", "move_number": "3", "optimal_length": "16", "subject": "A21S7MA9DCW95E:3X87C8JFV7JQ2BSCY8KSFD9F2ILSQK"}
{"meta_move": "drag_end", "rt": "2411.0", "trial_number": "2", "pre_actions": "1", "move": "6@19", "instance": "prb10166", "distance_to_goal": "NA", "progress": "NA", "move_number": "3", "optimal_length": "16", "subject": "A21S7MA9DCW95E:3X87C8JFV7JQ2BSCY8KSFD9F2ILSQK"}
{"meta_move": "drag_end", "rt": "7585.0", "trial_number": "3", "pre_actions": "1", "move": "4@5", "instance": "prb10166", "distance_to_goal": "NA", "progress": "NA", "move_number": "0", "optimal_length": "16", "subject": "A21S7MA9DCW95E:3X87C8JFV7JQ2BSCY8KSFD9F2ILSQK"}
{"meta_move": "drag_end", "rt": "1018.0", "trial_number": "3", "pre_actions": "1", "move": "2@4", "instance": "prb10166", "distance_to_goal": "NA", "progress": "NA", "move_number": "1", "optimal_length": "16", "subject": "A21S7MA9DCW95E:3X87C8JFV7JQ2BSCY8KSFD9F2ILSQK"}
{"meta_move": "drag_end", "rt": "1105.0", "trial_number": "3", "pre_actions": "1", "move": "1@28", "instance": "prb10166", "distance_to_goal": "NA", "progress": "NA", "move_number": "2", "optimal_length": "16", "subject": "A21S7MA9DCW95E:3X87C8JFV7JQ2BSCY8KSFD9F2ILSQK"}
{"meta_move": "drag_end", "rt": "1903.0", "trial_number": "3", "pre_actions": "1", "move": "5@21", "instance": "prb10166", "distance_to_goal": "NA", "progress": "NA", "move_number": "3", "optimal_length": "16", "subject": "A21S7MA9DCW95E:3X87C8JFV7JQ2BSCY8KSFD9F2ILSQK"}
{"meta_move": "drag_end", "rt": "1662.0", "trial_number": "3", "pre_actions": "1", "move": "0@26", "instance": "prb10166", "distance_to_goal": "NA", "progress": "NA", "move_number": "4", "optimal_length": "16", "subject": "A21S7MA9DCW95E:3X87C8JFV7JQ2BSCY8KSFD9F2ILSQK"}
{"meta_move": "drag_end", "rt": "64.0", "trial_number": "3", "pre_actions": "1", "move": "0@26", "instance": "prb10166", "distance_to_goal": "NA", "progress": "NA", "move_number": "5", "optimal_length": "16", "subject": "A21S7MA9DCW95E:3X87C8JFV7JQ2BSCY8KSFD9F2ILSQK"}
{"meta_move": "drag_end", "rt": "144.0", "trial_number": "3", "pre_actions": "1", "move": "0@26", "instance": "prb10166", "distance_to_goal": "NA", "progress": "NA", "move_number": "5", "optimal_length": "16", "subject": "A21S7MA9DCW95E:3X87C8JFV7JQ2BSCY8KSFD9F2ILSQK"}
{"meta_move": "drag_end", "rt": "1371.0", "trial_number": "3", "pre_actions": "1", "move": "r@15", "instance": "prb10166", "distance_to_goal": "NA", "progress": "NA", "move_number": "5", "optimal_length": "16", "subject": "A21S7MA9DCW95E:3X87C8JFV7JQ2BSCY8KSFD9F2ILSQK"}
{"meta_move": "drag_end", "rt": "1484.0", "trial_number": "3", "pre_actions": "1", "move": "0@8", "instance": "prb10166", "distance_to_goal": "NA", "progress": "NA", "move_number": "6", "optimal_length": "16", "subject": "A21S7MA9DCW95E:3X87C8JFV7JQ2BSCY8KSFD9F2ILSQK"}
{"meta_move": "drag_end", "rt": "2001.0", "trial_number": "3", "pre_actions": "1", "move": "6@7", "instance": "prb10166", "distance_to_goal": "NA", "progress": "NA", "move_number": "7", "optimal_length": "16", "subject": "A21S7MA9DCW95E:3X87C8JFV7JQ2BSCY8KSFD9F2ILSQK"}
{"meta_move": "drag_end", "rt": "3123.0", "trial_number": "3", "pre_actions": "1", "move": "3@6", "instance": "prb10166", "distance_to_goal": "NA", "progress": "NA", "move_number": "8", "optimal_length": "16", "subject": "A21S7MA9DCW95E:3X87C8JFV7JQ2BSCY8KSFD9F2ILSQK"}
{"meta_move": "drag_end", "rt": "1544.0", "trial_number": "3", "pre_actions": "1", "move": "7@1", "instance": "prb10166", "distance_to_goal": "NA", "progress": "NA", "move_number": "9", "optimal_length": "16", "subject": "A21S7MA9DCW95E:3X87C8JFV7JQ2BSCY8KSFD9F2ILSQK"}
{"meta_move": "drag_end", "rt": "1098.0", "trial_number": "3", "pre_actions": "1", "move": "3@0", "instance": "prb10166", "distance_to_goal": "NA", "progress": "NA", "move_number": "10", "optimal_length": "16", "subject": "A21S7MA9DCW95E:3X87C8JFV7JQ2BSCY8KSFD9F2ILSQK"}
{"meta_move": "drag_end", "rt": "2951.0", "trial_number": "4", "pre_actions": "1", "move": "5@3", "instance": "prb10166", "distance_to_goal": "NA", "progress": "NA", "move_number": "0", "optimal_length": "16", "subject": "A21S7MA9DCW95E:3X87C8JFV7JQ2BSCY8KSFD9F2ILSQK"}
{"meta_move": "drag_end", "rt": "6376.0", "trial_number": "4", "pre_actions": "1", "move": "5@9", "instance": "prb10166", "distance_to_goal": "NA", "progress": "NA", "move_number": "1", "optimal_length": "16", "subject": "A21S7MA9DCW95E:3X87C8JFV7JQ2BSCY8KSFD9F2ILSQK"}
{"meta_move": "drag_end", "rt": "4372.0", "trial_number": "4", "pre_actions": "1", "move": "6@25", "instance": "prb10166", "distance_to_goal": "NA", "progress": "NA", "move_number": "2", "optimal_length": "16", "subject": "A21S7MA9DCW95E:3X87C8JFV7JQ2BSCY8KSFD9F2ILSQK"}
{"meta_move": "drag_end", "rt": "1806.0", "trial_number": "4", "pre_actions": "1", "move": "4@5", "instance": "prb10166", "distance_to_goal": "NA", "progress": "NA", "move_number": "2", "optimal_length": "16", "subject": "A21S7MA9DCW95E:3X87C8JFV7JQ2BSCY8KSFD9F2ILSQK"}
{"meta_move": "drag_end", "rt": "1104.0", "trial_number": "4", "pre_actions": "1", "move": "2@4", "instance": "prb10166", "distance_to_goal": "NA", "progress": "NA", "move_number": "3", "optimal_length": "16", "subject": "A21S7MA9DCW95E:3X87C8JFV7JQ2BSCY8KSFD9F2ILSQK"}
{"meta_move": "drag_end", "rt": "775.0", "trial_number": "4", "pre_actions": "1", "move": "4@5", "instance": "prb10166", "distance_to_goal": "NA", "progress": "NA", "move_number": "4", "optimal_length": "16", "subject": "A21S7MA9DCW95E:3X87C8JFV7JQ2BSCY8KSFD9F2ILSQK"}
{"meta_move": "drag_end", "rt": "1548.0", "trial_number": "4", "pre_actions": "1", "move": "1@28", "instance": "prb10166", "distance_to_goal": "NA", "progress": "NA", "move_number": "4", "optimal_length": "16", "subject": "A21S7MA9DCW95E:3X87C8JFV7JQ2BSCY8KSFD9F2ILSQK"}
{"meta_move": "drag_end", "rt": "1205.0", "trial_number": "4", "pre_actions": "1", "move": "5@21", "instance": "prb10166", "distance_to_goal": "NA", "progress": "NA", "move_number": "5", "optimal_length": "16", "subject": "A21S7MA9DCW95E:3X87C8JFV7JQ2BSCY8KSFD9F2ILSQK"}
{"meta_move": "drag_end", "rt": "1718.0", "trial_number": "4", "pre_actions": "1", "move": "0@26", "instance": "prb10166", "distance_to_goal": "NA", "progress": "NA", "move_number": "6", "optimal_length": "16", "subject": "A21S7MA9DCW95E:3X87C8JFV7JQ2BSCY8KSFD9F2ILSQK"}
{"meta_move": "drag_end", "rt": "6203.0", "trial_number": "4", "pre_actions": "1", "move": "r@12", "instance": "prb10166", "distance_to_goal": "NA", "progress": "NA", "move_number": "7", "optimal_length": "16", "subject": "A21S7MA9DCW95E:3X87C8JFV7JQ2BSCY8KSFD9F2ILSQK"}
{"meta_move": "drag_end", "rt": "1768.0", "trial_number": "4", "pre_actions": "1", "move": "2@10", "instance": "prb10166", "distance_to_goal": "NA", "progress": "NA", "move_number": "7", "optimal_length": "16", "subject": "A21S7MA9DCW95E:3X87C8JFV7JQ2BSCY8KSFD9F2ILSQK"}
{"meta_move": "drag_end", "rt": "844.0", "trial_number": "4", "pre_actions": "1", "move": "4@11", "instance": "prb10166", "distance_to_goal": "NA", "progress": "NA", "move_number": "8", "optimal_length": "16", "subject": "A21S7MA9DCW95E:3X87C8JFV7JQ2BSCY8KSFD9F2ILSQK"}
{"meta_move": "drag_end", "rt": "1634.0", "trial_number": "4", "pre_actions": "1", "move": "7@3", "instance": "prb10166", "distance_to_goal": "NA", "progress": "NA", "move_number": "9", "optimal_length": "16", "subject": "A21S7MA9DCW95E:3X87C8JFV7JQ2BSCY8KSFD9F2ILSQK"}
{"meta_move": "drag_end", "rt": "1532.0", "trial_number": "4", "pre_actions": "1", "move": "r@14", "instance": "prb10166", "distance_to_goal": "NA", "progress": "NA", "move_number": "10", "optimal_length": "16", "subject": "A21S7MA9DCW95E:3X87C8JFV7JQ2BSCY8KSFD9F2ILSQK"}
{"meta_move": "drag_end", "rt": "1572.0", "trial_number": "4", "pre_actions": "1", "move": "6@1", "instance": "prb10166", "distance_to_goal": "NA", "progress": "NA", "move_number": "11", "optimal_length": "16", "subject": "A21S7MA9DCW95E:3X87C8JFV7JQ2BSCY8KSFD9F2ILSQK"}
{"meta_move": "drag_end", "rt": "1810.0", "trial_number": "4", "pre_actions": "1", "move": "3@0", "instance": "prb10166", "distance_to_goal": "NA", "progress": "NA", "move_number": "12", "optimal_length": "16", "subject": "A21S7MA9DCW95E:3X87C8JFV7JQ2BSCY8KSFD9F2ILSQK"}
{"meta_move": "drag_end", "rt": "1654.0", "trial_number": "4", "pre_actions": "1", "move": "r@12", "instance": "prb10166", "distance_to_goal": "NA", "progress": "NA", "move_number": "13", "optimal_length": "16", "subject": "A21S7MA9DCW95E:3X87C8JFV7JQ2BSCY8KSFD9F2ILSQK"}
{"meta_move": "drag_end", "rt": "2197.0", "trial_number": "4", "pre_actions": "1", "move": "0@2", "instance": "prb10166", "distance_to_goal": "NA", "progress": "NA", "move_number": "14", "optimal_length": "16", "subject": "A21S7MA9DCW95E:3X87C8JFV7JQ2BSCY8KSFD9F2ILSQK"}
{"meta_move": "drag_end", "rt": "2376.0", "trial_number": "4", "pre_actions": "1", "move": "5@9", "instance": "prb10166", "distance_to_goal": "NA", "progress": "NA", "move_number": "15", "optimal_length": "16", "subject": "A21S7MA9DCW95E:3X87C8JFV7JQ2BSCY8KSFD9F2ILSQK"}
{"meta_move": "drag_end", "rt": "1159.0", "trial_number": "4", "pre_actions": "1", "move": "1@24", "instance": "prb10166", "distance_to_goal": "NA", "progress": "NA", "move_number": "16", "optimal_length": "16", "subject": "A21S7MA9DCW95E:3X87C8JFV7JQ2BSCY8KSFD9F2ILSQK"}
{"meta_move": "drag_end", "rt": "1032.0", "trial_number": "4", "pre_actions": "1", "move": "5@21", "instance": "prb10166", "distance_to_goal": "NA", "progress": "NA", "move_number": "17", "optimal_length": "16", "subject": "A21S7MA9DCW95E:3X87C8JFV7JQ2BSCY8KSFD9F2ILSQK"}
{"meta_move": "drag_end", "rt": "884.0", "trial_number": "4", "pre_actions": "1", "move": "2@28", "instance": "prb10166", "distance_to_goal": "NA", "progress": "NA", "move_number": "18", "optimal_length": "16", "subject": "A21S7MA9DCW95E:3X87C8JFV7JQ2BSCY8KSFD9F2ILSQK"}
{"meta_move": "drag_end", "rt": "808.0", "trial_number": "4", "pre_actions": "1", "move": "4@23", "instance": "prb10166", "distance_to_goal": "NA", "progress": "NA", "move_number": "19", "optimal_length": "16", "subject": "A21S7MA9DCW95E:3X87C8JFV7JQ2BSCY8KSFD9F2ILSQK"}
{"meta_move": "win", "rt": "1224.0", "trial_number": "4", "pre_actions": "1", "move": "r@12", "instance": "prb10166", "distance_to_goal": "1", "progress": "NA", "move_number": "20", "optimal_length": "16", "subject": "A21S7MA9DCW95E:3X87C8JFV7JQ2BSCY8KSFD9F2ILSQK"}
{"meta_move": "drag_end", "rt": "297.0", "trial_number": "0", "pre_actions": "0", "move": "r@16", "instance": "prb10166", "distance_to_goal": "NA", "progress": "NA", "move_number": "20", "optimal_length": "16", "subject": "A21S7MA9DCW95E:3X87C8JFV7JQ2BSCY8KSFD9F2ILSQK"}
{"meta_move": "drag_end", "rt": "215.0", "trial_number": "1", "pre_actions": "1", "move": "0@8", "instance": "prb10166", "distance_to_goal": "NA", "progress": "NA", "move_number": "0", "optimal_length": "16", "subject": "A23437BMZ5T1FH:3IHR8NYAM89M0EPM8U9LH53ZJDTP4U"}
{"meta_move": "drag_end", "rt": "1186.0", "trial_number": "1", "pre_actions": "1", "move": "5@3", "instance": "prb10166", "distance_to_goal": "NA", "progress": "NA", "move_number": "0", "optimal_length": "16", "subject": "A23437BMZ5T1FH:3IHR8NYAM89M0EPM8U9LH53ZJDTP4U"}
{"meta_move": "drag_end", "rt": "772.0", "trial_number": "1", "pre_actions": "1", "move": "2@4", "instance": "prb10166", "distance_to_goal": "NA", "progress": "NA", "move_number": "1", "optimal_length": "16", "subject": "A23437BMZ5T1FH:3IHR8NYAM89M0EPM8U9LH53ZJDTP4U"}
{"meta_move": "drag_end", "rt": "1166.0", "trial_number": "1", "pre_actions": "1", "move": "4@5", "instance": "prb10166", "distance_to_goal": "NA", "progress": "NA", "move_number": "2", "optimal_length": "16", "subject": "A23437BMZ5T1FH:3IHR8NYAM89M0EPM8U9LH53ZJDTP4U"}
{"meta_move": "drag_end", "rt": "743.0", "trial_number": "1", "pre_actions": "1", "move": "1@28", "instance": "prb10166", "distance_to_goal": "NA", "progress": "NA", "move_number": "3", "optimal_length": "16", "subject": "A23437BMZ5T1FH:3IHR8NYAM89M0EPM8U9LH53ZJDTP4U"}
{"meta_move": "drag_end", "rt": "766.0", "trial_number": "1", "pre_actions": "1", "move": "0@26", "instance": "prb10166", "distance_to_goal": "NA", "progress": "NA", "move_number": "4", "optimal_length": "16", "subject": "A23437BMZ5T1FH:3IHR8NYAM89M0EPM8U9LH53ZJDTP4U"}
{"meta_move": "drag_end", "rt": "1160.0", "trial_number": "1", "pre_actions": "1", "move": "5@21", "instance": "prb10166", "distance_to_goal": "NA", "progress": "NA", "move_number": "5", "optimal_length": "16", "subject": "A23437BMZ5T1FH:3IHR8NYAM89M0EPM8U9LH53ZJDTP4U"}
{"meta_move": "drag_end", "rt": "2944.0", "trial_number": "1", "pre_actions": "1", "move": "r@15", "instance": "prb10166", "distance_to_goal": "NA", "progress": "NA", "move_number": "6", "optimal_length": "16", "subject": "A23437BMZ5T1FH:3IHR8NYAM89M0EPM8U9LH53ZJDTP4U"}
{"meta_move": "drag_end", "rt": "923.0", "trial_number": "1", "pre_actions": "1", "move": "0@8", "instance": "prb10166", "distance_to_goal": "NA", "progress": "NA", "move_number": "7", "optimal_length": "16", "subject": "A23437BMZ5T1FH:3IHR8NYAM89M0EPM8U9LH53ZJDTP4U"}
{"meta_move": "drag_end", "rt": "1233.0", "trial_number": "1", "pre_actions": "1", "move": "6@7", "instance": "prb10166", "distance_to_goal": "NA", "progress": "NA", "move_number": "8", "optimal_length": "16", "subject": "A23437BMZ5T1FH:3IHR8NYAM89M0EPM8U9LH53ZJDTP4U"}
{"meta_move": "drag_end", "rt": "753.0", "trial_number": "1", "pre_actions": "1", "move": "3@6", "instance": "prb10166", "distance_to_goal": "NA", "progress": "NA", "move_number": "9", "optimal_length": "16", "subject": "A23437BMZ5T1FH:3IHR8NYAM89M0EPM8U9LH53ZJDTP4U"}
{"meta_move": "drag_end", "rt": "1825.0", "trial_number": "1", "pre_actions": "1", "move": "4@11", "instance": "prb10166", "distance_to_goal": "NA", "progress": "NA", "move_number": "10", "optimal_length": "16", "subject": "A23437BMZ5T1FH:3IHR8NYAM89M0EPM8U9LH53ZJDTP4U"}
{"meta_move": "drag_end", "rt": "847.0", "trial_number": "1", "pre_actions": "1", "move": "4@5", "instance": "prb10166", "distance_to_goal": "NA", "progress": "NA", "move_number": "11", "optimal_length": "16", "subject": "A23437BMZ5T1FH:3IHR8NYAM89M0EPM8U9LH53ZJDTP4U"}
{"meta_move": "drag_end", "rt": "981.0", "trial_number": "1", "pre_actions": "1", "move": "0@26", "instance": "prb10166", "distance_to_goal": "NA", "progress": "NA", "move_number": "12", "optimal_length": "16", "subject": "A23437BMZ5T1FH:3IHR8NYAM89M0EPM8U9LH53ZJDTP4U"}
{"meta_move": "drag_end", "rt": "660.0", "trial_number": "1", "pre_actions": "1", "move": "r@14", "instance": "prb10166", "distance_to_goal": "NA", "progress": "NA", "move_number": "13", "optimal_length": "16", "subject": "A23437BMZ5T1FH:3IHR8NYAM89M0EPM8U9LH53ZJDTP4U"}
{"meta_move": "drag_end", "rt": "563.0", "trial_number": "1", "pre_actions": "1", "move": "6@7", "instance": "prb10166", "distance_to_goal": "NA", "progress": "NA", "move_number": "14", "optimal_length": "16", "subject": "A23437BMZ5T1FH:3IHR8NYAM89M0EPM8U9LH53ZJDTP4U"}
{"meta_move": "drag_end", "rt": "401.0", "trial_number": "1", "pre_actions": "1", "move": "6@25", "instance": "prb10166", "distance_to_goal": "NA", "progress": "NA", "move_number": "14", "optimal_length": "16", "subject": "A23437BMZ5T1FH:3IHR8NYAM89M0EPM8U9LH53ZJDTP4U"}
{"meta_move": "drag_end", "rt": "494.0", "trial_number": "1", "pre_actions": "1", "move": "r@13", "instance": "prb10166", "distance_to_goal": "NA", "progress": "NA", "move_number": "15", "optimal_length": "16", "subject": "A23437BMZ5T1FH:3IHR8NYAM89M0EPM8U9LH53ZJDTP4U"}
{"meta_move": "drag_end", "rt": "652.0", "trial_number": "1", "pre_actions": "1", "move": "5@3", "instance": "prb10166", "distance_to_goal": "NA", "progress": "NA", "move_number": "16", "optimal_length": "16", "subject": "A23437BMZ5T1FH:3IHR8NYAM89M0EPM8U9LH53ZJDTP4U"}
{"meta_move": "drag_end", "rt": "752.0", "trial_number": "1", "pre_actions": "1", "move": "1@27", "instance": "prb10166", "distance_to_goal": "NA", "progress": "NA", "move_number": "17", "optimal_length": "16", "subject": "A23437BMZ5T1FH:3IHR8NYAM89M0EPM8U9LH53ZJDTP4U"}
{"meta_move": "drag_end", "rt": "780.0", "trial_number": "1", "pre_actions": "1", "move": "4@23", "instance": "prb10166", "distance_to_goal": "NA", "progress": "NA", "move_number": "18", "optimal_length": "16", "subject": "A23437BMZ5T1FH:3IHR8NYAM89M0EPM8U9LH53ZJDTP4U"}
{"meta_move": "drag_end", "rt": "2528.0", "trial_number": "1", "pre_actions": "1", "move": "6@19", "instance": "prb10166", "distance_to_goal": "NA", "progress": "NA", "move_number": "19", "optimal_length": "16", "subject": "A23437BMZ5T1FH:3IHR8NYAM89M0EPM8U9LH53ZJDTP4U"}
{"meta_move": "drag_end", "rt": "855.0", "trial_number": "1", "pre_actions": "1", "move": "0@20", "instance": "prb10166", "distance_to_goal": "NA", "progress": "NA", "move_number": "20", "optimal_length": "16", "subject": "A23437BMZ5T1FH:3IHR8NYAM89M0EPM8U9LH53ZJDTP4U"}
{"meta_move": "drag_end", "rt": "807.0", "trial_number": "1", "pre_actions": "1", "move": "4@5", "instance": "prb10166", "distance_to_goal": "NA", "progress": "NA", "move_number": "21", "optimal_length": "16", "subject": "A23437BMZ5T1FH:3IHR8NYAM89M0EPM8U9LH53ZJDTP4U"}
{"meta_move": "drag_end", "rt": "1994.0", "trial_number": "1", "pre_actions": "1", "move": "1@28", "instance": "prb10166", "distance_to_goal": "NA", "progress": "NA", "move_number": "22", "optimal_length": "16", "subject": "A23437BMZ5T1FH:3IHR8NYAM89M0EPM8U9LH53ZJDTP4U"}
{"meta_move": "drag_end", "rt": "623.0", "trial_number": "1", "pre_actions": "1", "move": "5@21", "instance": "prb10166", "distance_to_goal": "NA", "progress": "NA", "move_number": "23", "optimal_length": "16", "subject": "A23437BMZ5T1FH:3IHR8NYAM89M0EPM8U9LH53ZJDTP4U"}
{"meta_move": "drag_end", "rt": "678.0", "trial_number": "1", "pre_actions": "1", "move": "r@15", "instance": "prb10166", "distance_to_goal": "NA", "progress": "NA", "move_number": "24", "optimal_length": "16", "subject": "A23437BMZ5T1FH:3IHR8NYAM89M0EPM8U9LH53ZJDTP4U"}
{"meta_move": "drag_end", "rt": "643.0", "trial_number": "1", "pre_actions": "1", "move": "6@7", "instance": "prb10166", "distance_to_goal": "NA", "progress": "NA", "move_number": "25", "optimal_length": "16", "subject": "A23437BMZ5T1FH:3IHR8NYAM89M0EPM8U9LH53ZJDTP4U"}
{"meta_move": "drag_end", "rt": "1144.0", "trial_number": "1", "pre_actions": "1", "move": "0@20", "instance": "prb10166", "distance_to_goal": "NA", "progress": "NA", "move_number": "26", "optimal_length": "16", "subject": "A23437BMZ5T1FH:3IHR8NYAM89M0EPM8U9LH53ZJDTP4U"}
{"meta_move": "drag_end", "rt": "1119.0", "trial_number": "1", "pre_actions": "1", "move": "7@1", "instance": "prb10166", "distance_to_goal": "NA", "progress": "NA", "move_number": "26", "optimal_length": "16", "subject": "A23437BMZ5T1FH:3IHR8NYAM89M0EPM8U9LH53ZJDTP4U"}
{"meta_move": "drag_end", "rt": "623.0", "trial_number": "1", "pre_actions": "1", "move": "3@0", "instance": "prb10166", "distance_to_goal": "NA", "progress": "NA", "move_number": "27", "optimal_length": "16", "subject": "A23437BMZ5T1FH:3IHR8NYAM89M0EPM8U9LH53ZJDTP4U"}
{"meta_move": "drag_end", "rt": "1321.0", "trial_number": "1", "pre_actions": "1", "move": "6@25", "instance": "prb10166", "distance_to_goal": "NA", "progress": "NA", "move_number": "28", "optimal_length": "16", "subject": "A23437BMZ5T1FH:3IHR8NYAM89M0EPM8U9LH53ZJDTP4U"}
{"meta_move": "drag_end", "rt": "657.0", "trial_number": "1", "pre_actions": "1", "move": "r@12", "instance": "prb10166", "distance_to_goal": "NA", "progress": "NA", "move_number": "29", "optimal_length": "16", "subject": "A23437BMZ5T1FH:3IHR8NYAM89M0EPM8U9LH53ZJDTP4U"}
{"meta_move": "drag_end", "rt": "1740.0", "trial_number": "1", "pre_actions": "1", "move": "2@16", "instance": "prb10166", "distance_to_goal": "NA", "progress": "NA", "move_number": "30", "optimal_length": "16", "subject": "A23437BMZ5T1FH:3IHR8NYAM89M0EPM8U9LH53ZJDTP4U"}
{"meta_move": "drag_end", "rt": "634.0", "trial_number": "1", "pre_actions": "1", "move": "7@2", "instance": "prb10166", "distance_to_goal": "NA", "progress": "NA", "move_number": "31", "optimal_length": "16", "subject": "A23437BMZ5T1FH:3IHR8NYAM89M0EPM8U9LH53ZJDTP4U"}
{"meta_move": "drag_end", "rt": "757.0", "trial_number": "1", "pre_actions": "1", "move": "4@11", "instance": "prb10166", "distance_to_goal": "NA", "progress": "NA", "move_number": "32", "optimal_length": "16", "subject": "A23437BMZ5T1FH:3IHR8NYAM89M0EPM8U9LH53ZJDTP4U"}
{"meta_move": "drag_end", "rt": "547.0", "trial_number": "1", "pre_actions": "1", "move": "7@3", "instance": "prb10166", "distance_to_goal": "NA", "progress": "NA", "move_number": "33", "optimal_length": "16", "subject": "A23437BMZ5T1FH:3IHR8NYAM89M0EPM8U9LH53ZJDTP4U"}
{"meta_move": "drag_end", "rt": "1221.0", "trial_number": "1", "pre_actions": "1", "move": "0@2", "instance": "prb10166", "distance_to_goal": "NA", "progress": "NA", "move_number": "34", "optimal_length": "16", "subject": "A23437BMZ5T1FH:3IHR8NYAM89M0EPM8U9LH53ZJDTP4U"}
{"meta_move": "drag_end", "rt": "2274.0", "trial_number": "1", "pre_actions": "1", "move": "2@10", "instance": "prb10166", "distance_to_goal": "NA", "progress": "NA", "move_number": "35", "optimal_length": "16", "subject": "A23437BMZ5T1FH:3IHR8NYAM89M0EPM8U9LH53ZJDTP4U"}
{"meta_move": "drag_end", "rt": "956.0", "trial_number": "1", "pre_actions": "1", "move": "5@9", "instance": "prb10166", "distance_to_goal": "NA", "progress": "NA", "move_number": "36", "optimal_length": "16", "subject": "A23437BMZ5T1FH:3IHR8NYAM89M0EPM8U9LH53ZJDTP4U"}
{"meta_move": "drag_end", "rt": "2014.0", "trial_number": "1", "pre_actions": "1", "move": "r@13", "instance": "prb10166", "distance_to_goal": "NA", "progress": "NA", "move_number": "37", "optimal_length": "16", "subject": "A23437BMZ5T1FH:3IHR8NYAM89M0EPM8U9LH53ZJDTP4U"}
{"meta_move": "drag_end", "rt": "1918.0", "trial_number": "1", "pre_actions": "1", "move": "1@28", "instance": "prb10166", "distance_to_goal": "NA", "progress": "NA", "move_number": "38", "optimal_length": "16", "subject": "A23437BMZ5T1FH:3IHR8NYAM89M0EPM8U9LH53ZJDTP4U"}
{"meta_move": "drag_end", "rt": "400.0", "trial_number": "1", "pre_actions": "1", "move": "1@26", "instance": "prb10166", "distance_to_goal": "NA", "progress": "NA", "move_number": "38", "optimal_length": "16", "subject": "A23437BMZ5T1FH:3IHR8NYAM89M0EPM8U9LH53ZJDTP4U"}
{"meta_move": "drag_end", "rt": "747.0", "trial_number": "1", "pre_actions": "1", "move": "4@23", "instance": "prb10166", "distance_to_goal": "NA", "progress": "NA", "move_number": "39", "optimal_length": "16", "subject": "A23437BMZ5T1FH:3IHR8NYAM89M0EPM8U9LH53ZJDTP4U"}
{"meta_move": "drag_end", "rt": "635.0", "trial_number": "1", "pre_actions": "1", "move": "2@28", "instance": "prb10166", "distance_to_goal": "NA", "progress": "NA", "move_number": "40", "optimal_length": "16", "subject": "A23437BMZ5T1FH:3IHR8NYAM89M0EPM8U9LH53ZJDTP4U"}
{"meta_move": "drag_end", "rt": "2236.0", "trial_number": "1", "pre_actions": "1", "move": "6@19", "instance": "prb10166", "distance_to_goal": "NA", "progress": "NA", "move_number": "41", "optimal_length": "16", "subject": "A23437BMZ5T1FH:3IHR8NYAM89M0EPM8U9LH53ZJDTP4U"}
