{"meta_move": "drag_end", "rt": "29537.0", "trial_number": "1", "pre_actions": "1", "move": "3@24", "instance": "prb14651", "distance_to_goal": "NA", "progress": "NA", "move_number": "0", "optimal_length": "7", "subject": "A15781PHGW377Y:3YW4XOSQKRTI0K0Z2YPDTDJVFABU1I"}
{"meta_move": "drag_end", "rt": "1347.0", "trial_number": "1", "pre_actions": "1", "move": "1@27", "instance": "prb14651", "distance_to_goal": "NA", "progress": "NA", "move_number": "1", "optimal_length": "7", "subject": "A15781PHGW377Y:3YW4XOSQKRTI0K0Z2YPDTDJVFABU1I"}
{"meta_move": "drag_end", "rt": "1725.0", "trial_number": "1", "pre_actions": "1", "move": "5@22", "instance": "prb14651", "distance_to_goal": "NA", "progress": "NA", "move_number": "2", "optimal_length": "7", "subject": "A15781PHGW377Y:3YW4XOSQKRTI0K0Z2YPDTDJVFABU1I"}
{"meta_move": "drag_end", "rt": "1794.0", "trial_number": "1", "pre_actions": "1", "move": "1@15", "instance": "prb14651", "distance_to_goal": "NA", "progress": "NA", "move_number": "3", "optimal_length": "7", "subject": "A15781PHGW377Y:3YW4XOSQKRTI0K0Z2YPDTDJVFABU1I"}
{"meta_move": "drag_end", "rt": "1101.0", "trial_number": "1", "pre_actions": "1", "move": "3@26", "instance": "prb14651", "distance_to_goal": "NA", "progress": "NA", "move_number": "4", "optimal_length": "7", "subject": "A15781PHGW377Y:3YW4XOSQKRTI0K0Z2YPDTDJVFABU1I"}
{"meta_move": "drag_end", "rt": "1362.0", "trial_number": "1", "pre_actions": "1", "move": "3@24", "instance": "prb14651", "distance_to_goal": "NA", "progress": "NA", "move_number": "5", "optimal_length": "7", "subject": "A15781PHGW377Y:3YW4XOSQKRTI0K0Z2YPDTDJVFABU1I"}
{"meta_move": "drag_end", "rt": "1553.0", "trial_number": "1", "pre_actions": "1", "move": "2@33", "instance": "prb14651", "distance_to_goal": "NA", "progress": "NA", "move_number": "6", "optimal_length": "7", "subject": "A15781PHGW377Y:3YW4XOSQKRTI0K0Z2YPDTDJVFABU1I"}
{"meta_move": "drag_end", "rt": "790.0", "trial_number": "1", "pre_actions": "1", "move": "0@23", "instance": "prb14651", "distance_to_goal": "NA", "progress": "NA", "move_number": "7", "optimal_length": "7", "subject": "A15781PHGW377Y:3YW4XOSQKRTI0K0Z2YPDTDJVFABU1I"}
{"meta_move": "drag_end", "rt": "558.0", "trial_number": "1", "pre_actions": "1", "move": "1@21", "instance": "prb14651", "distance_to_goal": "NA", "progress": "NA", "move_number": "8", "optimal_length": "7", "subject": "A15781PHGW377Y:3YW4XOSQKRTI0K0Z2YPDTDJVFABU1I"}
{"meta_move": "win", "rt": "567.0", "trial_number": "1", "pre_actions": "1", "move": "r@13", "instance": "prb14651", "distance_to_goal": "1", "progress": "NA", "move_number": "9", "optimal_length": "7", "subject": "A15781PHGW377Y:3YW4XOSQKRTI0K0Z2YPDTDJVFABU1I"}
{"meta_move": "drag_end", "rt": "121.0", "trial_number": "0", "pre_actions": "0", "move": "r@16", "instance": "prb14651", "distance_to_goal": "NA", "progress": "NA", "move_number": "9", "optimal_length": "7", "subject": "A15781PHGW377Y:3YW4XOSQKRTI0K0Z2YPDTDJVFABU1I"}
{"meta_move": "drag_end", "rt": "9014.0", "trial_number": "1", "pre_actions": "1", "move": "4@1", "instance": "prb14651", "distance_to_goal": "NA", "progress": "NA", "move_number": "0", "optimal_length": "7", "subject": "A15FXHC1CVNW31:3TS1AR6UQRM7SOIBWPBN8N9589Y7FV"}
{"meta_move": "drag_end", "rt": "804.0", "trial_number": "1", "pre_actions": "1", "move": "1@3", "instance": "prb14651", "distance_to_goal": "NA", "progress": "NA", "move_number": "1", "optimal_length": "7", "subject": "A15FXHC1CVNW31:3TS1AR6UQRM7SOIBWPBN8N9589Y7FV"}
{"meta_move": "drag_end", "rt": "27.0", "trial_number": "6", "pre_actions": "0", "move": "5@10", "instance": "prb14651", "distance_to_goal": "NA", "progress": "NA", "move_number": "2", "optimal_length": "7", "subject": "A15FXHC1CVNW31:3TS1AR6UQRM7SOIBWPBN8N9589Y7FV"}
{"meta_move": "drag_end", "rt": "941.0", "trial_number": "10", "pre_actions": "1", "move": "5@10", "instance": "prb14651", "distance_to_goal": "NA", "progress": "NA", "move_number": "2", "optimal_length": "7", "subject": "A15FXHC1CVNW31:3TS1AR6UQRM7SOIBWPBN8N9589Y7FV"}
{"meta_move": "drag_end", "rt": "1273.0", "trial_number": "10", "pre_actions": "1", "move": "4@1", "instance": "prb14651", "distance_to_goal": "NA", "progress": "NA", "move_number": "2", "optimal_length": "7", "subject": "A15FXHC1CVNW31:3TS1AR6UQRM7SOIBWPBN8N9589Y7FV"}
{"meta_move": "drag_end", "rt": "482.0", "trial_number": "10", "pre_actions": "1", "move": "1@15", "instance": "prb14651", "distance_to_goal": "NA", "progress": "NA", "move_number": "2", "optimal_length": "7", "subject": "A15FXHC1CVNW31:3TS1AR6UQRM7SOIBWPBN8N9589Y7FV"}
{"meta_move": "drag_end", "rt": "788.0", "trial_number": "10", "pre_actions": "1", "move": "5@16", "instance": "prb14651", "distance_to_goal": "NA", "progress": "NA", "move_number": "3", "optimal_length": "7", "subject": "A15FXHC1CVNW31:3TS1AR6UQRM7SOIBWPBN8N9589Y7FV"}
{"meta_move": "drag_end", "rt": "13024.0", "trial_number": "11", "pre_actions": "1", "move": "3@24", "instance": "prb14651", "distance_to_goal": "NA", "progress": "NA", "move_number": "0", "optimal_length": "7", "subject": "A15FXHC1CVNW31:3TS1AR6UQRM7SOIBWPBN8N9589Y7FV"}
{"meta_move": "drag_end", "rt": "1001.0", "trial_number": "11", "pre_actions": "1", "move": "1@27", "instance": "prb14651", "distance_to_goal": "NA", "progress": "NA", "move_number": "1", "optimal_length": "7", "subject": "A15FXHC1CVNW31:3TS1AR6UQRM7SOIBWPBN8N9589Y7FV"}
{"meta_move": "drag_end", "rt": "542.0", "trial_number": "11", "pre_actions": "1", "move": "5@22", "instance": "prb14651", "distance_to_goal": "NA", "progress": "NA", "move_number": "2", "optimal_length": "7", "subject": "A15FXHC1CVNW31:3TS1AR6UQRM7SOIBWPBN8N9589Y7FV"}
{"meta_move": "drag_end", "rt": "616.0", "trial_number": "11", "pre_actions": "1", "move": "4@0", "instance": "prb14651", "distance_to_goal": "NA", "progress": "NA", "move_number": "3", "optimal_length": "7", "subject": "A15FXHC1CVNW31:3TS1AR6UQRM7SOIBWPBN8N9589Y7FV"}
{"meta_move": "drag_end", "rt": "1198.0", "trial_number": "11", "pre_actions": "1", "move": "5@4", "instance": "prb14651", "distance_to_goal": "NA", "progress": "NA", "move_number": "4", "optimal_length": "7", "subject": "A15FXHC1CVNW31:3TS1AR6UQRM7SOIBWPBN8N9589Y7FV"}
{"meta_move": "drag_end", "rt": "861.0", "trial_number": "11", "pre_actions": "1", "move": "0@5", "instance": "prb14651", "distance_to_goal": "NA", "progress": "NA", "move_number": "5", "optimal_length": "7", "subject": "A15FXHC1CVNW31:3TS1AR6UQRM7SOIBWPBN8N9589Y7FV"}
{"meta_move": "drag_end", "rt": "936.0", "trial_number": "11", "pre_actions": "1", "move": "1@3", "instance": "prb14651", "distance_to_goal": "NA", "progress": "NA", "move_number": "6", "optimal_length": "7", "subject": "A15FXHC1CVNW31:3TS1AR6UQRM7SOIBWPBN8N9589Y7FV"}
{"meta_move": "drag_end", "rt": "774.0", "trial_number": "11", "pre_actions": "1", "move": "2@33", "instance": "prb14651", "distance_to_goal": "NA", "progress": "NA", "move_number": "7", "optimal_length": "7", "subject": "A15FXHC1CVNW31:3TS1AR6UQRM7SOIBWPBN8N9589Y7FV"}
{"meta_move": "drag_end", "rt": "634.0", "trial_number": "11", "pre_actions": "1", "move": "0@23", "instance": "prb14651", "distance_to_goal": "NA", "progress": "NA", "move_number": "8", "optimal_length": "7", "subject": "A15FXHC1CVNW31:3TS1AR6UQRM7SOIBWPBN8N9589Y7FV"}
{"meta_move": "win", "rt": "626.0", "trial_number": "11", "pre_actions": "1", "move": "r@13", "instance": "prb14651", "distance_to_goal": "1", "progress": "NA", "move_number": "9", "optimal_length": "7", "subject": "A15FXHC1CVNW31:3TS1AR6UQRM7SOIBWPBN8N9589Y7FV"}
{"meta_move": "drag_end", "rt": "101.0", "trial_number": "0", "pre_actions": "0", "move": "r@16", "instance": "prb14651", "distance_to_goal": "NA", "progress": "NA", "move_number": "9", "optimal_length": "7", "subject": "A15FXHC1CVNW31:3TS1AR6UQRM7SOIBWPBN8N9589Y7FV"}
{"meta_move": "drag_end", "rt": "58977.0", "trial_number": "1", "pre_actions": "1", "move": "1@9", "instance": "prb14651", "distance_to_goal": "NA", "progress": "NA", "move_number": "0", "optimal_length": "7", "subject": "A18QU0YQB6Q8DF:3VE8AYVF8N5BS2NU6U3TMN50JMNF8V"}
{"meta_move": "drag_end", "rt": "1075.0", "trial_number": "1", "pre_actions": "1", "move": "3@24", "instance": "prb14651", "distance_to_goal": "NA", "progress": "NA", "move_number": "0", "optimal_length": "7", "subject": "A18QU0YQB6Q8DF:3VE8AYVF8N5BS2NU6U3TMN50JMNF8V"}
{"meta_move": "drag_end", "rt": "2370.0", "trial_number": "1", "pre_actions": "1", "move": "0@5", "instance": "prb14651", "distance_to_goal": "NA", "progress": "NA", "move_number": "1", "optimal_length": "7", "subject": "A18QU0YQB6Q8DF:3VE8AYVF8N5BS2NU6U3TMN50JMNF8V"}
{"meta_move": "drag_end", "rt": "1720.0", "trial_number": "1", "pre_actions": "1", "move": "3@24", "instance": "prb14651", "distance_to_goal": "NA", "progress": "NA", "move_number": "2", "optimal_length": "7", "subject": "A18QU0YQB6Q8DF:3VE8AYVF8N5BS2NU6U3TMN50JMNF8V"}
{"meta_move": "drag_end", "rt": "1250.0", "trial_number": "1", "pre_actions": "1", "move": "1@27", "instance": "prb14651", "distance_to_goal": "NA", "progress": "NA", "move_number": "2", "optimal_length": "7", "subject": "A18QU0YQB6Q8DF:3VE8AYVF8N5BS2NU6U3TMN50JMNF8V"}
{"meta_move": "drag_end", "rt": "1610.0", "trial_number": "1", "pre_actions": "1", "move": "r@14", "instance": "prb14651", "distance_to_goal": "NA", "progress": "NA", "move_number": "3", "optimal_length": "7", "subject": "A18QU0YQB6Q8DF:3VE8AYVF8N5BS2NU6U3TMN50JMNF8V"}
{"meta_move": "drag_end", "rt": "1353.0", "trial_number": "1", "pre_actions": "1", "move": "1@21", "instance": "prb14651", "distance_to_goal": "NA", "progress": "NA", "move_number": "4", "optimal_length": "7", "subject": "A18QU0YQB6Q8DF:3VE8AYVF8N5BS2NU6U3TMN50JMNF8V"}
{"meta_move": "drag_end", "rt": "817.0", "trial_number": "1", "pre_actions": "1", "move": "5@22", "instance": "prb14651", "distance_to_goal": "NA", "progress": "NA", "move_number": "5", "optimal_length": "7", "subject": "A18QU0YQB6Q8DF:3VE8AYVF8N5BS2NU6U3TMN50JMNF8V"}
{"meta_move": "drag_end", "rt": "1913.0", "trial_number": "1", "pre_actions": "1", "move": "2@33", "instance": "prb14651", "distance_to_goal": "NA", "progress": "NA", "move_number": "6", "optimal_length": "7", "subject": "A18QU0YQB6Q8DF:3VE8AYVF8N5BS2NU6U3TMN50JMNF8V"}
{"meta_move": "drag_end", "rt": "1152.0", "trial_number": "1", "pre_actions": "1", "move": "0@23", "instance": "prb14651", "distance_to_goal": "NA", "progress": "NA", "move_number": "7", "optimal_length": "7", "subject": "A18QU0YQB6Q8DF:3VE8AYVF8N5BS2NU6U3TMN50JMNF8V"}
{"meta_move": "win", "rt": "953.0", "trial_number": "1", "pre_actions": "1", "move": "r@14", "instance": "prb14651", "distance_to_goal": "1", "progress": "NA", "move_number": "8", "optimal_length": "7", "subject": "A18QU0YQB6Q8DF:3VE8AYVF8N5BS2NU6U3TMN50JMNF8V"}
{"meta_move": "drag_end", "rt": "183.0", "trial_number": "0", "pre_actions": "0", "move": "r@16", "instance": "prb14651", "distance_to_goal": "NA", "progress": "NA", "move_number": "8", "optimal_length": "7", "subject": "A18QU0YQB6Q8DF:3VE8AYVF8N5BS2NU6U3TMN50JMNF8V"}
{"meta_move": "drag_end", "rt": "1840.0", "trial_number": "1", "pre_actions": "1", "move": "3@24", "instance": "prb14651", "distance_to_goal": "NA", "progress": "NA", "move_number": "0", "optimal_length": "7", "subject": "A191V7PT3DQKDP:3PMBY0YE28B43VMUKKJ6EDF85RV9C8"}
{"meta_move": "drag_end", "rt": "1616.0", "trial_number": "1", "pre_actions": "1", "move": "2@33", "instance": "prb14651", "distance_to_goal": "NA", "progress": "NA", "move_number": "1", "optimal_length": "7", "subject": "A191V7PT3DQKDP:3PMBY0YE28B43VMUKKJ6EDF85RV9C8"}
{"meta_move": "drag_end", "rt": "512.0", "trial_number": "1", "pre_actions": "1", "move": "1@21", "instance": "prb14651", "distance_to_goal": "NA", "progress": "NA", "move_number": "2", "optimal_length": "7", "subject": "A191V7PT3DQKDP:3PMBY0YE28B43VMUKKJ6EDF85RV9C8"}
{"meta_move": "drag_end", "rt": "983.0", "trial_number": "1", "pre_actions": "1", "move": "5@22", "instance": "prb14651", "distance_to_goal": "NA", "progress": "NA", "move_number": "3", "optimal_length": "7", "subject": "A191V7PT3DQKDP:3PMBY0YE28B43VMUKKJ6EDF85RV9C8"}
{"meta_move": "drag_end", "rt": "490.0", "trial_number": "1", "pre_actions": "1", "move": "0@23", "instance": "prb14651", "distance_to_goal": "NA", "progress": "NA", "move_number": "4", "optimal_length": "7", "subject": "A191V7PT3DQKDP:3PMBY0YE28B43VMUKKJ6EDF85RV9C8"}
{"meta_move": "win", "rt": "863.0", "trial_number": "1", "pre_actions": "1", "move": "r@13", "instance": "prb14651", "distance_to_goal": "1", "progress": "NA", "move_number": "5", "optimal_length": "7", "subject": "A191V7PT3DQKDP:3PMBY0YE28B43VMUKKJ6EDF85RV9C8"}
{"meta_move": "drag_end", "rt": "207.0", "trial_number": "0", "pre_actions": "0", "move": "r@16", "instance": "prb14651", "distance_to_goal": "NA", "progress": "NA", "move_number": "5", "optimal_length": "7", "subject": "A191V7PT3DQKDP:3PMBY0YE28B43VMUKKJ6EDF85RV9C8"}
{"meta_move": "drag_end", "rt": "2252.0", "trial_number": "5", "pre_actions": "1", "move": "1@15", "instance": "prb14651", "distance_to_goal": "NA", "progress": "NA", "move_number": "0", "optimal_length": "7", "subject": "A1F4N58CAX8IMK:3TS1AR6UQRM7SOIBWPBN8N9589Y7FV"}
{"meta_move": "drag_end", "rt": "904.0", "trial_number": "5", "pre_actions": "1", "move": "1@9", "instance": "prb14651", "distance_to_goal": "NA", "progress": "NA", "move_number": "1", "optimal_length": "7", "subject": "A1F4N58CAX8IMK:3TS1AR6UQRM7SOIBWPBN8N9589Y7FV"}
{"meta_move": "drag_end", "rt": "960.0", "trial_number": "5", "pre_actions": "1", "move": "3@24", "instance": "prb14651", "distance_to_goal": "NA", "progress": "NA", "move_number": "2", "optimal_length": "7", "subject": "A1F4N58CAX8IMK:3TS1AR6UQRM7SOIBWPBN8N9589Y7FV"}
{"meta_move": "drag_end", "rt": "888.0", "trial_number": "5", "pre_actions": "1", "move": "5@22", "instance": "prb14651", "distance_to_goal": "NA", "progress": "NA", "move_number": "3", "optimal_length": "7", "subject": "A1F4N58CAX8IMK:3TS1AR6UQRM7SOIBWPBN8N9589Y7FV"}
{"meta_move": "drag_end", "rt": "912.0", "trial_number": "5", "pre_actions": "1", "move": "0@5", "instance": "prb14651", "distance_to_goal": "NA", "progress": "NA", "move_number": "4", "optimal_length": "7", "subject": "A1F4N58CAX8IMK:3TS1AR6UQRM7SOIBWPBN8N9589Y7FV"}
{"meta_move": "drag_end", "rt": "960.0", "trial_number": "5", "pre_actions": "1", "move": "1@27", "instance": "prb14651", "distance_to_goal": "NA", "progress": "NA", "move_number": "5", "optimal_length": "7", "subject": "A1F4N58CAX8IMK:3TS1AR6UQRM7SOIBWPBN8N9589Y7FV"}
{"meta_move": "drag_end", "rt": "992.0", "trial_number": "5", "pre_actions": "1", "move": "5@10", "instance": "prb14651", "distance_to_goal": "NA", "progress": "NA", "move_number": "6", "optimal_length": "7", "subject": "A1F4N58CAX8IMK:3TS1AR6UQRM7SOIBWPBN8N9589Y7FV"}
{"meta_move": "drag_end", "rt": "2304.0", "trial_number": "5", "pre_actions": "1", "move": "r@13", "instance": "prb14651", "distance_to_goal": "NA", "progress": "NA", "move_number": "7", "optimal_length": "7", "subject": "A1F4N58CAX8IMK:3TS1AR6UQRM7SOIBWPBN8N9589Y7FV"}
{"meta_move": "drag_end", "rt": "2736.0", "trial_number": "5", "pre_actions": "1", "move": "5@10", "instance": "prb14651", "distance_to_goal": "NA", "progress": "NA", "move_number": "7", "optimal_length": "7", "subject": "A1F4N58CAX8IMK:3TS1AR6UQRM7SOIBWPBN8N9589Y7FV"}
{"meta_move": "drag_end", "rt": "968.0", "trial_number": "5", "pre_actions": "1", "move": "4@0", "instance": "prb14651", "distance_to_goal": "NA", "progress": "NA", "move_number": "7", "optimal_length": "7", "subject": "A1F4N58CAX8IMK:3TS1AR6UQRM7SOIBWPBN8N9589Y7FV"}
{"meta_move": "drag_end", "rt": "1112.0", "trial_number": "5", "pre_actions": "1", "move": "5@22", "instance": "prb14651", "distance_to_goal": "NA", "progress": "NA", "move_number": "8", "optimal_length": "7", "subject": "A1F4N58CAX8IMK:3TS1AR6UQRM7SOIBWPBN8N9589Y7FV"}
{"meta_move": "drag_end", "rt": "1264.0", "trial_number": "5", "pre_actions": "1", "move": "0@5", "instance": "prb14651", "distance_to_goal": "NA", "progress": "NA", "move_number": "9", "optimal_length": "7", "subject": "A1F4N58CAX8IMK:3TS1AR6UQRM7SOIBWPBN8N9589Y7FV"}
{"meta_move": "drag_end", "rt": "1512.0", "trial_number": "5", "pre_actions": "1", "move": "0@17", "instance": "prb14651", "distance_to_goal": "NA", "progress": "NA", "move_number": "9", "optimal_length": "7", "subject": "A1F4N58CAX8IMK:3TS1AR6UQRM7SOIBWPBN8N9589Y7FV"}
{"meta_move": "drag_end", "rt": "1584.0", "trial_number": "5", "pre_actions": "1", "move": "r@15", "instance": "prb14651", "distance_to_goal": "NA", "progress": "NA", "move_number": "10", "optimal_length": "7", "subject": "A1F4N58CAX8IMK:3TS1AR6UQRM7SOIBWPBN8N9589Y7FV"}
{"meta_move": "drag_end", "rt": "520.0", "trial_number": "5", "pre_actions": "1", "move": "5@22", "instance": "prb14651", "distance_to_goal": "NA", "progress": "NA", "move_number": "11", "optimal_length": "7", "subject": "A1F4N58CAX8IMK:3TS1AR6UQRM7SOIBWPBN8N9589Y7FV"}
{"meta_move": "drag_end", "rt": "1305.0", "trial_number": "5", "pre_actions": "1", "move": "r@12", "instance": "prb14651", "distance_to_goal": "NA", "progress": "NA", "move_number": "11", "optimal_length": "7", "subject": "A1F4N58CAX8IMK:3TS1AR6UQRM7SOIBWPBN8N9589Y7FV"}
{"meta_move": "drag_end", "rt": "951.0", "trial_number": "5", "pre_actions": "1", "move": "5@10", "instance": "prb14651", "distance_to_goal": "NA", "progress": "NA", "move_number": "12", "optimal_length": "7", "subject": "A1F4N58CAX8IMK:3TS1AR6UQRM7SOIBWPBN8N9589Y7FV"}
{"meta_move": "drag_end", "rt": "1224.0", "trial_number": "5", "pre_actions": "1", "move": "1@21", "instance": "prb14651", "distance_to_goal": "NA", "progress": "NA", "move_number": "13", "optimal_length": "7", "subject": "A1F4N58CAX8IMK:3TS1AR6UQRM7SOIBWPBN8N9589Y7FV"}
{"meta_move": "drag_end", "rt": "1160.0", "trial_number": "5", "pre_actions": "1", "move": "5@4", "instance": "prb14651", "distance_to_goal": "NA", "progress": "NA", "move_number": "14", "optimal_length": "7", "subject": "A1F4N58CAX8IMK:3TS1AR6UQRM7SOIBWPBN8N9589Y7FV"}
{"meta_move": "drag_end", "rt": "800.0", "trial_number": "5", "pre_actions": "1", "move": "0@17", "instance": "prb14651", "distance_to_goal": "NA", "progress": "NA", "move_number": "15", "optimal_length": "7", "subject": "A1F4N58CAX8IMK:3TS1AR6UQRM7SOIBWPBN8N9589Y7FV"}
{"meta_move": "drag_end", "rt": "568.0", "trial_number": "5", "pre_actions": "1", "move": "2@33", "instance": "prb14651", "distance_to_goal": "NA", "progress": "NA", "move_number": "15", "optimal_length": "7", "subject": "A1F4N58CAX8IMK:3TS1AR6UQRM7SOIBWPBN8N9589Y7FV"}
{"meta_move": "drag_end", "rt": "584.0", "trial_number": "5", "pre_actions": "1", "move": "0@23", "instance": "prb14651", "distance_to_goal": "NA", "progress": "NA", "move_number": "16", "optimal_length": "7", "subject": "A1F4N58CAX8IMK:3TS1AR6UQRM7SOIBWPBN8N9589Y7FV"}
{"meta_move": "win", "rt": "724.0", "trial_number": "5", "pre_actions": "1", "move": "r@12", "instance": "prb14651", "distance_to_goal": "1", "progress": "NA", "move_number": "17", "optimal_length": "7", "subject": "A1F4N58CAX8IMK:3TS1AR6UQRM7SOIBWPBN8N9589Y7FV"}
{"meta_move": "drag_end", "rt": "124.0", "trial_number": "0", "pre_actions": "0", "move": "r@16", "instance": "prb14651", "distance_to_goal": "NA", "progress": "NA", "move_number": "17", "optimal_length": "7", "subject": "A1F4N58CAX8IMK:3TS1AR6UQRM7SOIBWPBN8N9589Y7FV"}
{"meta_move": "drag_end", "rt": "2059.0", "trial_number": "1", "pre_actions": "1", "move": "3@24", "instance": "prb14651", "distance_to_goal": "NA", "progress": "NA", "move_number": "0", "optimal_length": "7", "subject": "A1LR0VQIHQUJAM:3YW4XOSQKRTI0K0Z2YPDTDJVFABU1I"}
{"meta_move": "drag_end", "rt": "690.0", "trial_number": "1", "pre_actions": "1", "move": "1@27", "instance": "prb14651", "distance_to_goal": "NA", "progress": "NA", "move_number": "1", "optimal_length": "7", "subject": "A1LR0VQIHQUJAM:3YW4XOSQKRTI0K0Z2YPDTDJVFABU1I"}
{"meta_move": "drag_end", "rt": "669.0", "trial_number": "1", "pre_actions": "1", "move": "5@22", "instance": "prb14651", "distance_to_goal": "NA", "progress": "NA", "move_number": "2", "optimal_length": "7", "subject": "A1LR0VQIHQUJAM:3YW4XOSQKRTI0K0Z2YPDTDJVFABU1I"}
{"meta_move": "drag_end", "rt": "1798.0", "trial_number": "1", "pre_actions": "1", "move": "0@17", "instance": "prb14651", "distance_to_goal": "NA", "progress": "NA", "move_number": "3", "optimal_length": "7", "subject": "A1LR0VQIHQUJAM:3YW4XOSQKRTI0K0Z2YPDTDJVFABU1I"}
{"meta_move": "drag_end", "rt": "708.0", "trial_number": "1", "pre_actions": "1", "move": "1@21", "instance": "prb14651", "distance_to_goal": "NA", "progress": "NA", "move_number": "3", "optimal_length": "7", "subject": "A1LR0VQIHQUJAM:3YW4XOSQKRTI0K0Z2YPDTDJVFABU1I"}
{"meta_move": "drag_end", "rt": "689.0", "trial_number": "1", "pre_actions": "1", "move": "2@33", "instance": "prb14651", "distance_to_goal": "NA", "progress": "NA", "move_number": "4", "optimal_length": "7", "subject": "A1LR0VQIHQUJAM:3YW4XOSQKRTI0K0Z2YPDTDJVFABU1I"}
{"meta_move": "drag_end", "rt": "529.0", "trial_number": "1", "pre_actions": "1", "move": "0@23", "instance": "prb14651", "distance_to_goal": "NA", "progress": "NA", "move_number": "5", "optimal_length": "7", "subject": "A1LR0VQIHQUJAM:3YW4XOSQKRTI0K0Z2YPDTDJVFABU1I"}
{"meta_move": "win", "rt": "643.0", "trial_number": "1", "pre_actions": "1", "move": "r@13", "instance": "prb14651", "distance_to_goal": "1", "progress": "NA", "move_number": "6", "optimal_length": "7", "subject": "A1LR0VQIHQUJAM:3YW4XOSQKRTI0K0Z2YPDTDJVFABU1I"}
{"meta_move": "drag_end", "rt": "117.0", "trial_number": "0", "pre_actions": "0", "move": "r@16", "instance": "prb14651", "distance_to_goal": "NA", "progress": "NA", "move_number": "6", "optimal_length": "7", "subject": "A1LR0VQIHQUJAM:3YW4XOSQKRTI0K0Z2YPDTDJVFABU1I"}
{"meta_move": "drag_end", "rt": "7417.0", "trial_number": "1", "pre_actions": "1", "move": "3@25", "instance": "prb14651", "distance_to_goal": "NA", "progress": "NA", "move_number": "0", "optimal_length": "7", "subject": "A1XDMS0KFSF5JW:3M0BCWMB8W4W5M7WZVX3HDH1M3FBWL"}
{"meta_move": "drag_end", "rt": "1797.0", "trial_number": "1", "pre_actions": "1", "move": "1@27", "instance": "prb14651", "distance_to_goal": "NA", "progress": "NA", "move_number": "1", "optimal_length": "7", "subject": "A1XDMS0KFSF5JW:3M0BCWMB8W4W5M7WZVX3HDH1M3FBWL"}
{"meta_move": "drag_end", "rt": "1729.0", "trial_number": "1", "pre_actions": "1", "move": "5@22", "instance": "prb14651", "distance_to_goal": "NA", "progress": "NA", "move_number": "2", "optimal_length": "7", "subject": "A1XDMS0KFSF5JW:3M0BCWMB8W4W5M7WZVX3HDH1M3FBWL"}
{"meta_move": "drag_end", "rt": "1549.0", "trial_number": "1", "pre_actions": "1", "move": "r@15", "instance": "prb14651", "distance_to_goal": "NA", "progress": "NA", "move_number": "3", "optimal_length": "7", "subject": "A1XDMS0KFSF5JW:3M0BCWMB8W4W5M7WZVX3HDH1M3FBWL"}
{"meta_move": "drag_end", "rt": "7935.0", "trial_number": "1", "pre_actions": "1", "move": "0@17", "instance": "prb14651", "distance_to_goal": "NA", "progress": "NA", "move_number": "4", "optimal_length": "7", "subject": "A1XDMS0KFSF5JW:3M0BCWMB8W4W5M7WZVX3HDH1M3FBWL"}
{"meta_move": "drag_end", "rt": "2436.0", "trial_number": "1", "pre_actions": "1", "move": "r@13", "instance": "prb14651", "distance_to_goal": "NA", "progress": "NA", "move_number": "4", "optimal_length": "7", "subject": "A1XDMS0KFSF5JW:3M0BCWMB8W4W5M7WZVX3HDH1M3FBWL"}
{"meta_move": "drag_end", "rt": "929.0", "trial_number": "1", "pre_actions": "1", "move": "5@16", "instance": "prb14651", "distance_to_goal": "NA", "progress": "NA", "move_number": "5", "optimal_length": "7", "subject": "A1XDMS0KFSF5JW:3M0BCWMB8W4W5M7WZVX3HDH1M3FBWL"}
{"meta_move": "drag_end", "rt": "886.0", "trial_number": "1", "pre_actions": "1", "move": "1@15", "instance": "prb14651", "distance_to_goal": "NA", "progress": "NA", "move_number": "6", "optimal_length": "7", "subject": "A1XDMS0KFSF5JW:3M0BCWMB8W4W5M7WZVX3HDH1M3FBWL"}
{"meta_move": "drag_end", "rt": "1475.0", "trial_number": "1", "pre_actions": "1", "move": "2@33", "instance": "prb14651", "distance_to_goal": "NA", "progress": "NA", "move_number": "7", "optimal_length": "7", "subject": "A1XDMS0KFSF5JW:3M0BCWMB8W4W5M7WZVX3HDH1M3FBWL"}
{"meta_move": "drag_end", "rt": "1314.0", "trial_number": "1", "pre_actions": "1", "move": "0@23", "instance": "prb14651", "distance_to_goal": "NA", "progress": "NA", "move_number": "8", "optimal_length": "7", "subject": "A1XDMS0KFSF5JW:3M0BCWMB8W4W5M7WZVX3HDH1M3FBWL"}
{"meta_move": "drag_end", "rt": "785.0", "trial_number": "1", "pre_actions": "1", "move": "5@22", "instance": "prb14651", "distance_to_goal": "NA", "progress": "NA", "move_number": "9", "optimal_length": "7", "subject": "A1XDMS0KFSF5JW:3M0BCWMB8W4W5M7WZVX3HDH1M3FBWL"}
{"meta_move": "drag_end", "rt": "586.0", "trial_number": "1", "pre_actions": "1", "move": "1@21", "instance": "prb14651", "distance_to_goal": "NA", "progress": "NA", "move_number": "10", "optimal_length": "7", "subject": "A1XDMS0KFSF5JW:3M0BCWMB8W4W5M7WZVX3HDH1M3FBWL"}
{"meta_move": "win", "rt": "558.0", "trial_number": "1", "pre_actions": "1", "move": "r@13", "instance": "prb14651", "distance_to_goal": "1", "progress": "NA", "move_number": "11", "optimal_length": "7", "subject": "A1XDMS0KFSF5JW:3M0BCWMB8W4W5M7WZVX3HDH1M3FBWL"}
{"meta_move": "drag_end", "rt": "117.0", "trial_number": "0", "pre_actions": "0", "move": "r@16", "instance": "prb14651", "distance_to_goal": "NA", "progress": "NA", "move_number": "11", "optimal_length": "7", "subject": "A1XDMS0KFSF5JW:3M0BCWMB8W4W5M7WZVX3HDH1M3FBWL"}
{"meta_move": "drag_end", "rt": "2861.0", "trial_number": "1", "pre_actions": "1", "move": "3@24", "instance": "prb14651", "distance_to_goal": "NA", "progress": "NA", "move_number": "0", "optimal_length": "7", "subject": "A214HWAW1PYWO8:34BBWHLWHBJ6SUL255PK30LEGY5IWG"}
{"meta_move": "drag_end", "rt": "699.0", "trial_number": "1", "pre_actions": "1", "move": "0@5", "instance": "prb14651", "distance_to_goal": "NA", "progress": "NA", "move_number": "1", "optimal_length": "7", "subject": "A214HWAW1PYWO8:34BBWHLWHBJ6SUL255PK30LEGY5IWG"}
{"meta_move": "drag_end", "rt": "2294.0", "trial_number": "1", "pre_actions": "1", "move": "1@27", "instance": "prb14651", "distance_to_goal": "NA", "progress": "NA", "move_number": "2", "optimal_length": "7", "subject": "A214HWAW1PYWO8:34BBWHLWHBJ6SUL255PK30LEGY5IWG"}
{"meta_move": "drag_end", "rt": "1072.0", "trial_number": "1", "pre_actions": "1", "move": "5@10", "instance": "prb14651", "distance_to_goal": "NA", "progress": "NA", "move_number": "3", "optimal_length": "7", "subject": "A214HWAW1PYWO8:34BBWHLWHBJ6SUL255PK30LEGY5IWG"}
{"meta_move": "drag_end", "rt": "457.0", "trial_number": "1", "pre_actions": "1", "move": "1@9", "instance": "prb14651", "distance_to_goal": "NA", "progress": "NA", "move_number": "3", "optimal_length": "7", "subject": "A214HWAW1PYWO8:34BBWHLWHBJ6SUL255PK30LEGY5IWG"}
{"meta_move": "drag_end", "rt": "924.0", "trial_number": "1", "pre_actions": "1", "move": "2@33", "instance": "prb14651", "distance_to_goal": "NA", "progress": "NA", "move_number": "4", "optimal_length": "7", "subject": "A214HWAW1PYWO8:34BBWHLWHBJ6SUL255PK30LEGY5IWG"}
{"meta_move": "drag_end", "rt": "1219.0", "trial_number": "1", "pre_actions": "1", "move": "0@23", "instance": "prb14651", "distance_to_goal": "NA", "progress": "NA", "move_number": "5", "optimal_length": "7", "subject": "A214HWAW1PYWO8:34BBWHLWHBJ6SUL255PK30LEGY5IWG"}
{"meta_move": "drag_end", "rt": "561.0", "trial_number": "1", "pre_actions": "1", "move": "5@22", "instance": "prb14651", "distance_to_goal": "NA", "progress": "NA", "move_number": "6", "optimal_length": "7", "subject": "A214HWAW1PYWO8:34BBWHLWHBJ6SUL255PK30LEGY5IWG"}
{"meta_move": "drag_end", "rt": "373.0", "trial_number": "1", "pre_actions": "1", "move": "1@21", "instance": "prb14651", "distance_to_goal": "NA", "progress": "NA", "move_number": "7", "optimal_length": "7", "subject": "A214HWAW1PYWO8:34BBWHLWHBJ6SUL255PK30LEGY5IWG"}
{"meta_move": "win", "rt": "329.0", "trial_number": "1", "pre_actions": "1", "move": "r@13", "instance": "prb14651", "distance_to_goal": "1", "progress": "NA", "move_number": "8", "optimal_length": "7", "subject": "A214HWAW1PYWO8:34BBWHLWHBJ6SUL255PK30LEGY5IWG"}
{"meta_move": "drag_end", "rt": "10.0", "trial_number": "0", "pre_actions": "0", "move": "r@16", "instance": "prb14651", "distance_to_goal": "NA", "progress": "NA", "move_number": "8", "optimal_length": "7", "subject": "A214HWAW1PYWO8:34BBWHLWHBJ6SUL255PK30LEGY5IWG"}
{"meta_move": "drag_end", "rt": "2002.0", "trial_number": "1", "pre_actions": "1", "move": "3@24", "instance": "prb14651", "distance_to_goal": "NA", "progress": "NA", "move_number": "0", "optimal_length": "7", "subject": "A21S7MA9DCW95E:3X87C8JFV7JQ2BSCY8KSFD9F2ILSQK"}
{"meta_move": "drag_end", "rt": "3052.0", "trial_number": "1", "pre_actions": "1", "move": "1@27", "instance": "prb14651", "distance_to_goal": "NA", "progress": "NA", "move_number": "1", "optimal_length": "7", "subject": "A21S7MA9DCW95E:3X87C8JFV7JQ2BSCY8KSFD9F2ILSQK"}
{"meta_move": "drag_end", "rt": "1001.0", "trial_number": "1", "pre_actions": "1", "move": "5@22", "instance": "prb14651", "distance_to_goal": "NA", "progress": "NA", "move_number": "2", "optimal_length": "7", "subject": "A21S7MA9DCW95E:3X87C8JFV7JQ2BSCY8KSFD9F2ILSQK"}
{"meta_move": "drag_end", "rt": "1932.0", "trial_number": "1", "pre_actions": "1", "move": "4@0", "instance": "prb14651", "distance_to_goal": "NA", "progress": "NA", "move_number": "3", "optimal_length": "7", "subject": "A21S7MA9DCW95E:3X87C8JFV7JQ2BSCY8KSFD9F2ILSQK"}
{"meta_move": "drag_end", "rt": "1633.0", "trial_number": "1", "pre_actions": "1", "move": "0@5", "instance": "prb14651", "distance_to_goal": "NA", "progress": "NA", "move_number": "4", "optimal_length": "7", "subject": "A21S7MA9DCW95E:3X87C8JFV7JQ2BSCY8KSFD9F2ILSQK"}
{"meta_move": "drag_end", "rt": "1617.0", "trial_number": "1", "pre_actions": "1", "move": "1@21", "instance": "prb14651", "distance_to_goal": "NA", "progress": "NA", "move_number": "5", "optimal_length": "7", "subject": "A21S7MA9DCW95E:3X87C8JFV7JQ2BSCY8KSFD9F2ILSQK"}
{"meta_move": "drag_end", "rt": "1072.0", "trial_number": "1", "pre_actions": "1", "move": "2@33", "instance": "prb14651", "distance_to_goal": "NA", "progress": "NA", "move_number": "6", "optimal_length": "7", "subject": "A21S7MA9DCW95E:3X87C8JFV7JQ2BSCY8KSFD9F2ILSQK"}
{"meta_move": "drag_end", "rt": "1234.0", "trial_number": "1", "pre_actions": "1", "move": "0@23", "instance": "prb14651", "distance_to_goal": "NA", "progress": "NA", "move_number": "7", "optimal_length": "7", "subject": "A21S7MA9DCW95E:3X87C8JFV7JQ2BSCY8KSFD9F2ILSQK"}
{"meta_move": "win", "rt": "1879.0", "trial_number": "1", "pre_actions": "1", "move": "r@13", "instance": "prb14651", "distance_to_goal": "1", "progress": "NA", "move_number": "8", "optimal_length": "7", "subject": "A21S7MA9DCW95E:3X87C8JFV7JQ2BSCY8KSFD9F2ILSQK"}
{"meta_move": "drag_end", "rt": "220.0", "trial_number": "0", "pre_actions": "0", "move": "r@16", "instance": "prb14651", "distance_to_goal": "NA", "progress": "NA", "move_number": "8", "optimal_length": "7", "subject": "A21S7MA9DCW95E:3X87C8JFV7JQ2BSCY8KSFD9F2ILSQK"}
{"meta_move": "drag_end", "rt": "6731.0", "trial_number": "1", "pre_actions": "1", "move": "0@5", "instance": "prb14651", "distance_to_goal": "NA", "progress": "NA", "move_number": "0", "optimal_length": "7", "subject": "A23437BMZ5T1FH:3IHR8NYAM89M0EPM8U9LH53ZJDTP4U"}
{"meta_move": "drag_end", "rt": "1432.0", "trial_number": "1", "pre_actions": "1", "move": "3@24", "instance": "prb14651", "distance_to_goal": "NA", "progress": "NA", "move_number": "1", "optimal_length": "7", "subject": "A23437BMZ5T1FH:3IHR8NYAM89M0EPM8U9LH53ZJDTP4U"}
{"meta_move": "drag_end", "rt": "768.0", "trial_number": "1", "pre_actions": "1", "move": "1@27", "instance": "prb14651", "distance_to_goal": "NA", "progress": "NA", "move_number": "2", "optimal_length": "7", "subject": "A23437BMZ5T1FH:3IHR8NYAM89M0EPM8U9LH53ZJDTP4U"}
{"meta_move": "drag_end", "rt": "673.0", "trial_number": "1", "pre_actions": "1", "move": "5@22", "instance": "prb14651", "distance_to_goal": "NA", "progress": "NA", "move_number": "3", "optimal_length": "7", "subject": "A23437BMZ5T1FH:3IHR8NYAM89M0EPM8U9LH53ZJDTP4U"}
{"meta_move": "drag_end", "rt": "1120.0", "trial_number": "1", "pre_actions": "1", "move": "5@10", "instance": "prb14651", "distance_to_goal": "NA", "progress": "NA", "move_number": "4", "optimal_length": "7", "subject": "A23437BMZ5T1FH:3IHR8NYAM89M0EPM8U9LH53ZJDTP4U"}
{"meta_move": "drag_end", "rt": "615.0", "trial_number": "1", "pre_actions": "1", "move": "1@9", "instance": "prb14651", "distance_to_goal": "NA", "progress": "NA", "move_number": "5", "optimal_length": "7", "subject": "A23437BMZ5T1FH:3IHR8NYAM89M0EPM8U9LH53ZJDTP4U"}
{"meta_move": "drag_end", "rt": "904.0", "trial_number": "1", "pre_actions": "1", "move": "2@33", "instance": "prb14651", "distance_to_goal": "NA", "progress": "NA", "move_number": "6", "optimal_length": "7", "subject": "A23437BMZ5T1FH:3IHR8NYAM89M0EPM8U9LH53ZJDTP4U"}
{"meta_move": "drag_end", "rt": "952.0", "trial_number": "1", "pre_actions": "1", "move": "5@22", "instance": "prb14651", "distance_to_goal": "NA", "progress": "NA", "move_number": "7", "optimal_length": "7", "subject": "A23437BMZ5T1FH:3IHR8NYAM89M0EPM8U9LH53ZJDTP4U"}
{"meta_move": "drag_end", "rt": "1152.0", "trial_number": "1", "pre_actions": "1", "move": "1@21", "instance": "prb14651", "distance_to_goal": "NA", "progress": "NA", "move_number": "8", "optimal_length": "7", "subject": "A23437BMZ5T1FH:3IHR8NYAM89M0EPM8U9LH53ZJDTP4U"}
{"meta_move": "drag_end", "rt": "705.0", "trial_number": "1", "pre_actions": "1", "move": "r@15", "instance": "prb14651", "distance_to_goal": "NA", "progress": "NA", "move_number": "9", "optimal_length": "7", "subject": "A23437BMZ5T1FH:3IHR8NYAM89M0EPM8U9LH53ZJDTP4U"}
{"meta_move": "drag_end", "rt": "2023.0", "trial_number": "1", "pre_actions": "1", "move": "0@23", "instance": "prb14651", "distance_to_goal": "NA", "progress": "NA", "move_number": "10", "optimal_length": "7", "subject": "A23437BMZ5T1FH:3IHR8NYAM89M0EPM8U9LH53ZJDTP4U"}
{"meta_move": "win", "rt": "1060.0", "trial_number": "1", "pre_actions": "1", "move": "r@15", "instance": "prb14651", "distance_to_goal": "1", "progress": "NA", "move_number": "11", "optimal_length": "7", "subject": "A23437BMZ5T1FH:3IHR8NYAM89M0EPM8U9LH53ZJDTP4U"}
{"meta_move": "drag_end", "rt": "91.0", "trial_number": "0", "pre_actions": "0", "move": "r@16", "instance": "prb14651", "distance_to_goal": "NA", "progress": "NA", "move_number": "11", "optimal_length": "7", "subject": "A23437BMZ5T1FH:3IHR8NYAM89M0EPM8U9LH53ZJDTP4U"}
{"meta_move": "drag_end", "rt": "10001.0", "trial_number": "1", "pre_actions": "1", "move": "3@24", "instance": "prb14651", "distance_to_goal": "NA", "progress": "NA", "move_number": "0", "optimal_length": "7", "subject": "A289D98Z4GAZ28:3ZV9H2YQQEFR2R3JK2IXZUJPXAF3WW"}
{"meta_move": "drag_end", "rt": "1474.0", "trial_number": "1", "pre_actions": "1", "move": "1@27", "instance": "prb14651", "distance_to_goal": "NA", "progress": "NA", "move_number": "1", "optimal_length": "7", "subject": "A289D98Z4GAZ28:3ZV9H2YQQEFR2R3JK2IXZUJPXAF3WW"}
{"meta_move": "drag_end", "rt": "1269.0", "trial_number": "1", "pre_actions": "1", "move": "0@5", "instance": "prb14651", "distance_to_goal": "NA", "progress": "NA", "move_number": "2", "optimal_length": "7", "subject": "A289D98Z4GAZ28:3ZV9H2YQQEFR2R3JK2IXZUJPXAF3WW"}
{"meta_move": "drag_end", "rt": "3986.0", "trial_number": "1", "pre_actions": "1", "move": "5@22", "instance": "prb14651", "distance_to_goal": "NA", "progress": "NA", "move_number": "3", "optimal_length": "7", "subject": "A289D98Z4GAZ28:3ZV9H2YQQEFR2R3JK2IXZUJPXAF3WW"}
{"meta_move": "drag_end", "rt": "2264.0", "trial_number": "1", "pre_actions": "1", "move": "0@5", "instance": "prb14651", "distance_to_goal": "NA", "progress": "NA", "move_number": "4", "optimal_length": "7", "subject": "A289D98Z4GAZ28:3ZV9H2YQQEFR2R3JK2IXZUJPXAF3WW"}
{"meta_move": "drag_end", "rt": "3312.0", "trial_number": "1", "pre_actions": "1", "move": "5@16", "instance": "prb14651", "distance_to_goal": "NA", "progress": "NA", "move_number": "4", "optimal_length": "7", "subject": "A289D98Z4GAZ28:3ZV9H2YQQEFR2R3JK2IXZUJPXAF3WW"}
{"meta_move": "drag_end", "rt": "569.0", "trial_number": "1", "pre_actions": "1", "move": "1@15", "instance": "prb14651", "distance_to_goal": "NA", "progress": "NA", "move_number": "5", "optimal_length": "7", "subject": "A289D98Z4GAZ28:3ZV9H2YQQEFR2R3JK2IXZUJPXAF3WW"}
{"meta_move": "drag_end", "rt": "945.0", "trial_number": "1", "pre_actions": "1", "move": "2@33", "instance": "prb14651", "distance_to_goal": "NA", "progress": "NA", "move_number": "6", "optimal_length": "7", "subject": "A289D98Z4GAZ28:3ZV9H2YQQEFR2R3JK2IXZUJPXAF3WW"}
{"meta_move": "drag_end", "rt": "1335.0", "trial_number": "1", "pre_actions": "1", "move": "0@5", "instance": "prb14651", "distance_to_goal": "NA", "progress": "NA", "move_number": "7", "optimal_length": "7", "subject": "A289D98Z4GAZ28:3ZV9H2YQQEFR2R3JK2IXZUJPXAF3WW"}
{"meta_move": "drag_end", "rt": "816.0", "trial_number": "1", "pre_actions": "1", "move": "3@24", "instance": "prb14651", "distance_to_goal": "NA", "progress": "NA", "move_number": "7", "optimal_length": "7", "subject": "A289D98Z4GAZ28:3ZV9H2YQQEFR2R3JK2IXZUJPXAF3WW"}
{"meta_move": "drag_end", "rt": "4089.0", "trial_number": "1", "pre_actions": "1", "move": "3@24", "instance": "prb14651", "distance_to_goal": "NA", "progress": "NA", "move_number": "7", "optimal_length": "7", "subject": "A289D98Z4GAZ28:3ZV9H2YQQEFR2R3JK2IXZUJPXAF3WW"}
{"meta_move": "drag_end", "rt": "5494.0", "trial_number": "1", "pre_actions": "1", "move": "0@23", "instance": "prb14651", "distance_to_goal": "NA", "progress": "NA", "move_number": "7", "optimal_length": "7", "subject": "A289D98Z4GAZ28:3ZV9H2YQQEFR2R3JK2IXZUJPXAF3WW"}
{"meta_move": "drag_end", "rt": "857.0", "trial_number": "1", "pre_actions": "1", "move": "5@22", "instance": "prb14651", "distance_to_goal": "NA", "progress": "NA", "move_number": "8", "optimal_length": "7", "subject": "A289D98Z4GAZ28:3ZV9H2YQQEFR2R3JK2IXZUJPXAF3WW"}
{"meta_move": "drag_end", "rt": "629.0", "trial_number": "1", "pre_actions": "1", "move": "1@21", "instance": "prb14651", "distance_to_goal": "NA", "progress": "NA", "move_number": "9", "optimal_length": "7", "subject": "A289D98Z4GAZ28:3ZV9H2YQQEFR2R3JK2IXZUJPXAF3WW"}
{"meta_move": "win", "rt": "1134.0", "trial_number": "1", "pre_actions": "1", "move": "r@13", "instance": "prb14651", "distance_to_goal": "1", "progress": "NA", "move_number": "10", "optimal_length": "7", "subject": "A289D98Z4GAZ28:3ZV9H2YQQEFR2R3JK2IXZUJPXAF3WW"}
{"meta_move": "drag_end", "rt": "128.0", "trial_number": "0", "pre_actions": "0", "move": "r@16", "instance": "prb14651", "distance_to_goal": "NA", "progress": "NA", "move_number": "10", "optimal_length": "7", "subject": "A289D98Z4GAZ28:3ZV9H2YQQEFR2R3JK2IXZUJPXAF3WW"}
{"meta_move": "drag_end", "rt": "3332.0", "trial_number": "1", "pre_actions": "1", "move": "1@15", "instance": "prb14651", "distance_to_goal": "NA", "progress": "NA", "move_number": "0", "optimal_length": "7", "subject": "A2EPBSY0VPI38S:37WLF8U1WQYZ4AWKEQXSIM1ELVEK6W"}
{"meta_move": "drag_end", "rt": "1214.0", "trial_number": "1", "pre_actions": "1", "move": "5@16", "instance": "prb14651", "distance_to_goal": "NA", "progress": "NA", "move_number": "1", "optimal_length": "7", "subject": "A2EPBSY0VPI38S:37WLF8U1WQYZ4AWKEQXSIM1ELVEK6W"}
{"meta_move": "drag_end", "rt": "899.0", "trial_number": "1", "pre_actions": "1", "move": "3@24", "instance": "prb14651", "distance_to_goal": "NA", "progress": "NA", "move_number": "2", "optimal_length": "7", "subject": "A2EPBSY0VPI38S:37WLF8U1WQYZ4AWKEQXSIM1ELVEK6W"}
{"meta_move": "drag_end", "rt": "1372.0", "trial_number": "1", "pre_actions": "1", "move": "1@27", "instance": "prb14651", "distance_to_goal": "NA", "progress": "NA", "move_number": "3", "optimal_length": "7", "subject": "A2EPBSY0VPI38S:37WLF8U1WQYZ4AWKEQXSIM1ELVEK6W"}
{"meta_move": "drag_end", "rt": "943.0", "trial_number": "1", "pre_actions": "1", "move": "5@22", "instance": "prb14651", "distance_to_goal": "NA", "progress": "NA", "move_number": "4", "optimal_length": "7", "subject": "A2EPBSY0VPI38S:37WLF8U1WQYZ4AWKEQXSIM1ELVEK6W"}
{"meta_move": "drag_end", "rt": "949.0", "trial_number": "1", "pre_actions": "1", "move": "0@5", "instance": "prb14651", "distance_to_goal": "NA", "progress": "NA", "move_number": "5", "optimal_length": "7", "subject": "A2EPBSY0VPI38S:37WLF8U1WQYZ4AWKEQXSIM1ELVEK6W"}
{"meta_move": "drag_end", "rt": "3195.0", "trial_number": "1", "pre_actions": "1", "move": "6@8", "instance": "prb14651", "distance_to_goal": "NA", "progress": "NA", "move_number": "6", "optimal_length": "7", "subject": "A2EPBSY0VPI38S:37WLF8U1WQYZ4AWKEQXSIM1ELVEK6W"}
{"meta_move": "drag_end", "rt": "3164.0", "trial_number": "1", "pre_actions": "1", "move": "1@15", "instance": "prb14651", "distance_to_goal": "NA", "progress": "NA", "move_number": "7", "optimal_length": "7", "subject": "A2EPBSY0VPI38S:37WLF8U1WQYZ4AWKEQXSIM1ELVEK6W"}
{"meta_move": "drag_end", "rt": "1033.0", "trial_number": "1", "pre_actions": "1", "move": "2@33", "instance": "prb14651", "distance_to_goal": "NA", "progress": "NA", "move_number": "8", "optimal_length": "7", "subject": "A2EPBSY0VPI38S:37WLF8U1WQYZ4AWKEQXSIM1ELVEK6W"}
{"meta_move": "drag_end", "rt": "1404.0", "trial_number": "1", "pre_actions": "1", "move": "0@23", "instance": "prb14651", "distance_to_goal": "NA", "progress": "NA", "move_number": "9", "optimal_length": "7", "subject": "A2EPBSY0VPI38S:37WLF8U1WQYZ4AWKEQXSIM1ELVEK6W"}
{"meta_move": "drag_end", "rt": "739.0", "trial_number": "1", "pre_actions": "1", "move": "1@21", "instance": "prb14651", "distance_to_goal": "NA", "progress": "NA", "move_number": "10", "optimal_length": "7", "subject": "A2EPBSY0VPI38S:37WLF8U1WQYZ4AWKEQXSIM1ELVEK6W"}
{"meta_move": "win", "rt": "923.0", "trial_number": "1", "pre_actions": "1", "move": "r@13", "instance": "prb14651", "distance_to_goal": "1", "progress": "NA", "move_number": "11", "optimal_length": "7", "subject": "A2EPBSY0VPI38S:37WLF8U1WQYZ4AWKEQXSIM1ELVEK6W"}
{"meta_move": "drag_end", "rt": "277.0", "trial_number": "0", "pre_actions": "0", "move": "r@16", "instance": "prb14651", "distance_to_goal": "NA", "progress": "NA", "move_number": "11", "optimal_length": "7", "subject": "A2EPBSY0VPI38S:37WLF8U1WQYZ4AWKEQXSIM1ELVEK6W"}
{"meta_move": "drag_end", "rt": "8517.0", "trial_number": "1", "pre_actions": "1", "move": "3@24", "instance": "prb14651", "distance_to_goal": "NA", "progress": "NA", "move_number": "0", "optimal_length": "7", "subject": "A2MYB6MLQW0IGN:3TYCR1GOTDRCCQYD1V64UK7OE48LZS"}
{"meta_move": "drag_end", "rt": "1339.0", "trial_number": "1", "pre_actions": "1", "move": "2@33", "instance": "prb14651", "distance_to_goal": "NA", "progress": "NA", "move_number": "1", "optimal_length": "7", "subject": "A2MYB6MLQW0IGN:3TYCR1GOTDRCCQYD1V64UK7OE48LZS"}
{"meta_move": "drag_end", "rt": "1083.0", "trial_number": "1", "pre_actions": "1", "move": "0@23", "instance": "prb14651", "distance_to_goal": "NA", "progress": "NA", "move_number": "2", "optimal_length": "7", "subject": "A2MYB6MLQW0IGN:3TYCR1GOTDRCCQYD1V64UK7OE48LZS"}
{"meta_move": "drag_end", "rt": "1538.0", "trial_number": "1", "pre_actions": "1", "move": "4@0", "instance": "prb14651", "distance_to_goal": "NA", "progress": "NA", "move_number": "3", "optimal_length": "7", "subject": "A2MYB6MLQW0IGN:3TYCR1GOTDRCCQYD1V64UK7OE48LZS"}
{"meta_move": "drag_end", "rt": "1078.0", "trial_number": "1", "pre_actions": "1", "move": "5@4", "instance": "prb14651", "distance_to_goal": "NA", "progress": "NA", "move_number": "4", "optimal_length": "7", "subject": "A2MYB6MLQW0IGN:3TYCR1GOTDRCCQYD1V64UK7OE48LZS"}
{"meta_move": "drag_end", "rt": "966.0", "trial_number": "1", "pre_actions": "1", "move": "1@3", "instance": "prb14651", "distance_to_goal": "NA", "progress": "NA", "move_number": "5", "optimal_length": "7", "subject": "A2MYB6MLQW0IGN:3TYCR1GOTDRCCQYD1V64UK7OE48LZS"}
{"meta_move": "win", "rt": "1920.0", "trial_number": "1", "pre_actions": "1", "move": "r@13", "instance": "prb14651", "distance_to_goal": "1", "progress": "NA", "move_number": "6", "optimal_length": "7", "subject": "A2MYB6MLQW0IGN:3TYCR1GOTDRCCQYD1V64UK7OE48LZS"}
{"meta_move": "drag_end", "rt": "210.0", "trial_number": "0", "pre_actions": "0", "move": "r@16", "instance": "prb14651", "distance_to_goal": "NA", "progress": "NA", "move_number": "6", "optimal_length": "7", "subject": "A2MYB6MLQW0IGN:3TYCR1GOTDRCCQYD1V64UK7OE48LZS"}
{"meta_move": "drag_end", "rt": "2073.0", "trial_number": "1", "pre_actions": "1", "move": "3@26", "instance": "prb14651", "distance_to_goal": "NA", "progress": "NA", "move_number": "0", "optimal_length": "7", "subject": "A2RTJ6BDY0DZVZ:3IJXV6UZ1YR1KY4G6BFEG1DXP7SRI1"}
{"meta_move": "drag_end", "rt": "943.0", "trial_number": "1", "pre_actions": "1", "move": "2@33", "instance": "prb14651", "distance_to_goal": "NA", "progress": "NA", "move_number": "1", "optimal_length": "7", "subject": "A2RTJ6BDY0DZVZ:3IJXV6UZ1YR1KY4G6BFEG1DXP7SRI1"}
{"meta_move": "drag_end", "rt": "1216.0", "trial_number": "1", "pre_actions": "1", "move": "0@23", "instance": "prb14651", "distance_to_goal": "NA", "progress": "NA", "move_number": "2", "optimal_length": "7", "subject": "A2RTJ6BDY0DZVZ:3IJXV6UZ1YR1KY4G6BFEG1DXP7SRI1"}
{"meta_move": "drag_end", "rt": "876.0", "trial_number": "1", "pre_actions": "1", "move": "3@25", "instance": "prb14651", "distance_to_goal": "NA", "progress": "NA", "move_number": "3", "optimal_length": "7", "subject": "A2RTJ6BDY0DZVZ:3IJXV6UZ1YR1KY4G6BFEG1DXP7SRI1"}
{"meta_move": "drag_end", "rt": "714.0", "trial_number": "1", "pre_actions": "1", "move": "1@21", "instance": "prb14651", "distance_to_goal": "NA", "progress": "NA", "move_number": "4", "optimal_length": "7", "subject": "A2RTJ6BDY0DZVZ:3IJXV6UZ1YR1KY4G6BFEG1DXP7SRI1"}
{"meta_move": "drag_end", "rt": "658.0", "trial_number": "1", "pre_actions": "1", "move": "5@22", "instance": "prb14651", "distance_to_goal": "NA", "progress": "NA", "move_number": "5", "optimal_length": "7", "subject": "A2RTJ6BDY0DZVZ:3IJXV6UZ1YR1KY4G6BFEG1DXP7SRI1"}
{"meta_move": "win", "rt": "871.0", "trial_number": "1", "pre_actions": "1", "move": "r@13", "instance": "prb14651", "distance_to_goal": "1", "progress": "NA", "move_number": "6", "optimal_length": "7", "subject": "A2RTJ6BDY0DZVZ:3IJXV6UZ1YR1KY4G6BFEG1DXP7SRI1"}
{"meta_move": "drag_end", "rt": "343.0", "trial_number": "0", "pre_actions": "0", "move": "r@16", "instance": "prb14651", "distance_to_goal": "NA", "progress": "NA", "move_number": "6", "optimal_length": "7", "subject": "A2RTJ6BDY0DZVZ:3IJXV6UZ1YR1KY4G6BFEG1DXP7SRI1"}
{"meta_move": "drag_end", "rt": "2685.0", "trial_number": "1", "pre_actions": "1", "move": "0@5", "instance": "prb14651", "distance_to_goal": "NA", "progress": "NA", "move_number": "0", "optimal_length": "7", "subject": "A2TQNX64349OZ9:3WSELTNVR4AZUVYAYCSWZIQW0J4ATB"}
{"meta_move": "drag_end", "rt": "2790.0", "trial_number": "1", "pre_actions": "1", "move": "7@30", "instance": "prb14651", "distance_to_goal": "NA", "progress": "NA", "move_number": "1", "optimal_length": "7", "subject": "A2TQNX64349OZ9:3WSELTNVR4AZUVYAYCSWZIQW0J4ATB"}
{"meta_move": "drag_end", "rt": "738.0", "trial_number": "1", "pre_actions": "1", "move": "2@34", "instance": "prb14651", "distance_to_goal": "NA", "progress": "NA", "move_number": "1", "optimal_length": "7", "subject": "A2TQNX64349OZ9:3WSELTNVR4AZUVYAYCSWZIQW0J4ATB"}
{"meta_move": "drag_end", "rt": "479.0", "trial_number": "1", "pre_actions": "1", "move": "3@28", "instance": "prb14651", "distance_to_goal": "NA", "progress": "NA", "move_number": "1", "optimal_length": "7", "subject": "A2TQNX64349OZ9:3WSELTNVR4AZUVYAYCSWZIQW0J4ATB"}
{"meta_move": "drag_end", "rt": "1251.0", "trial_number": "1", "pre_actions": "1", "move": "1@27", "instance": "prb14651", "distance_to_goal": "NA", "progress": "NA", "move_number": "2", "optimal_length": "7", "subject": "A2TQNX64349OZ9:3WSELTNVR4AZUVYAYCSWZIQW0J4ATB"}
{"meta_move": "drag_end", "rt": "1482.0", "trial_number": "1", "pre_actions": "1", "move": "4@0", "instance": "prb14651", "distance_to_goal": "NA", "progress": "NA", "move_number": "3", "optimal_length": "7", "subject": "A2TQNX64349OZ9:3WSELTNVR4AZUVYAYCSWZIQW0J4ATB"}
{"meta_move": "drag_end", "rt": "1095.0", "trial_number": "1", "pre_actions": "1", "move": "5@4", "instance": "prb14651", "distance_to_goal": "NA", "progress": "NA", "move_number": "4", "optimal_length": "7", "subject": "A2TQNX64349OZ9:3WSELTNVR4AZUVYAYCSWZIQW0J4ATB"}
{"meta_move": "drag_end", "rt": "1675.0", "trial_number": "1", "pre_actions": "1", "move": "7@30", "instance": "prb14651", "distance_to_goal": "NA", "progress": "NA", "move_number": "5", "optimal_length": "7", "subject": "A2TQNX64349OZ9:3WSELTNVR4AZUVYAYCSWZIQW0J4ATB"}
{"meta_move": "drag_end", "rt": "1571.0", "trial_number": "1", "pre_actions": "1", "move": "6@7", "instance": "prb14651", "distance_to_goal": "NA", "progress": "NA", "move_number": "5", "optimal_length": "7", "subject": "A2TQNX64349OZ9:3WSELTNVR4AZUVYAYCSWZIQW0J4ATB"}
{"meta_move": "drag_end", "rt": "3014.0", "trial_number": "1", "pre_actions": "1", "move": "5@4", "instance": "prb14651", "distance_to_goal": "NA", "progress": "NA", "move_number": "6", "optimal_length": "7", "subject": "A2TQNX64349OZ9:3WSELTNVR4AZUVYAYCSWZIQW0J4ATB"}
{"meta_move": "drag_end", "rt": "751.0", "trial_number": "1", "pre_actions": "1", "move": "0@5", "instance": "prb14651", "distance_to_goal": "NA", "progress": "NA", "move_number": "6", "optimal_length": "7", "subject": "A2TQNX64349OZ9:3WSELTNVR4AZUVYAYCSWZIQW0J4ATB"}
{"meta_move": "drag_end", "rt": "639.0", "trial_number": "1", "pre_actions": "1", "move": "r@15", "instance": "prb14651", "distance_to_goal": "NA", "progress": "NA", "move_number": "6", "optimal_length": "7", "subject": "A2TQNX64349OZ9:3WSELTNVR4AZUVYAYCSWZIQW0J4ATB"}
{"meta_move": "drag_end", "rt": "1760.0", "trial_number": "1", "pre_actions": "1", "move": "6@6", "instance": "prb14651", "distance_to_goal": "NA", "progress": "NA", "move_number": "7", "optimal_length": "7", "subject": "A2TQNX64349OZ9:3WSELTNVR4AZUVYAYCSWZIQW0J4ATB"}
{"meta_move": "drag_end", "rt": "936.0", "trial_number": "1", "pre_actions": "1", "move": "5@4", "instance": "prb14651", "distance_to_goal": "NA", "progress": "NA", "move_number": "8", "optimal_length": "7", "subject": "A2TQNX64349OZ9:3WSELTNVR4AZUVYAYCSWZIQW0J4ATB"}
{"meta_move": "drag_end", "rt": "605.0", "trial_number": "1", "pre_actions": "1", "move": "r@12", "instance": "prb14651", "distance_to_goal": "NA", "progress": "NA", "move_number": "8", "optimal_length": "7", "subject": "A2TQNX64349OZ9:3WSELTNVR4AZUVYAYCSWZIQW0J4ATB"}
{"meta_move": "drag_end", "rt": "1448.0", "trial_number": "1", "pre_actions": "1", "move": "1@3", "instance": "prb14651", "distance_to_goal": "NA", "progress": "NA", "move_number": "9", "optimal_length": "7", "subject": "A2TQNX64349OZ9:3WSELTNVR4AZUVYAYCSWZIQW0J4ATB"}
{"meta_move": "drag_end", "rt": "1793.0", "trial_number": "1", "pre_actions": "1", "move": "3@24", "instance": "prb14651", "distance_to_goal": "NA", "progress": "NA", "move_number": "10", "optimal_length": "7", "subject": "A2TQNX64349OZ9:3WSELTNVR4AZUVYAYCSWZIQW0J4ATB"}
{"meta_move": "drag_end", "rt": "1083.0", "trial_number": "1", "pre_actions": "1", "move": "2@33", "instance": "prb14651", "distance_to_goal": "NA", "progress": "NA", "move_number": "11", "optimal_length": "7", "subject": "A2TQNX64349OZ9:3WSELTNVR4AZUVYAYCSWZIQW0J4ATB"}
{"meta_move": "drag_end", "rt": "922.0", "trial_number": "1", "pre_actions": "1", "move": "0@23", "instance": "prb14651", "distance_to_goal": "NA", "progress": "NA", "move_number": "12", "optimal_length": "7", "subject": "A2TQNX64349OZ9:3WSELTNVR4AZUVYAYCSWZIQW0J4ATB"}
{"meta_move": "win", "rt": "733.0", "trial_number": "1", "pre_actions": "1", "move": "r@12", "instance": "prb14651", "distance_to_goal": "1", "progress": "NA", "move_number": "13", "optimal_length": "7", "subject": "A2TQNX64349OZ9:3WSELTNVR4AZUVYAYCSWZIQW0J4ATB"}
{"meta_move": "drag_end", "rt": "39.0", "trial_number": "0", "pre_actions": "0", "move": "r@16", "instance": "prb14651", "distance_to_goal": "NA", "progress": "NA", "move_number": "13", "optimal_length": "7", "subject": "A2TQNX64349OZ9:3WSELTNVR4AZUVYAYCSWZIQW0J4ATB"}
{"meta_move": "drag_end", "rt": "2329.0", "trial_number": "1", "pre_actions": "1", "move": "3@24", "instance": "prb14651", "distance_to_goal": "NA", "progress": "NA", "move_number": "0", "optimal_length": "7", "subject": "A3Q0XAGQ7TD7MP:3X87C8JFV7JQ2BSCY8KSFD9F2ILSQK"}
{"meta_move": "drag_end", "rt": "1104.0", "trial_number": "1", "pre_actions": "1", "move": "2@34", "instance": "prb14651", "distance_to_goal": "NA", "progress": "NA", "move_number": "1", "optimal_length": "7", "subject": "A3Q0XAGQ7TD7MP:3X87C8JFV7JQ2BSCY8KSFD9F2ILSQK"}
{"meta_move": "drag_end", "rt": "595.0", "trial_number": "1", "pre_actions": "1", "move": "2@33", "instance": "prb14651", "distance_to_goal": "NA", "progress": "NA", "move_number": "1", "optimal_length": "7", "subject": "A3Q0XAGQ7TD7MP:3X87C8JFV7JQ2BSCY8KSFD9F2ILSQK"}
{"meta_move": "drag_end", "rt": "2269.0", "trial_number": "1", "pre_actions": "1", "move": "0@23", "instance": "prb14651", "distance_to_goal": "NA", "progress": "NA", "move_number": "2", "optimal_length": "7", "subject": "A3Q0XAGQ7TD7MP:3X87C8JFV7JQ2BSCY8KSFD9F2ILSQK"}
{"meta_move": "drag_end", "rt": "998.0", "trial_number": "1", "pre_actions": "1", "move": "1@21", "instance": "prb14651", "distance_to_goal": "NA", "progress": "NA", "move_number": "3", "optimal_length": "7", "subject": "A3Q0XAGQ7TD7MP:3X87C8JFV7JQ2BSCY8KSFD9F2ILSQK"}
{"meta_move": "drag_end", "rt": "1242.0", "trial_number": "1", "pre_actions": "1", "move": "5@22", "instance": "prb14651", "distance_to_goal": "NA", "progress": "NA", "move_number": "4", "optimal_length": "7", "subject": "A3Q0XAGQ7TD7MP:3X87C8JFV7JQ2BSCY8KSFD9F2ILSQK"}
{"meta_move": "win", "rt": "953.0", "trial_number": "1", "pre_actions": "1", "move": "r@13", "instance": "prb14651", "distance_to_goal": "1", "progress": "NA", "move_number": "5", "optimal_length": "7", "subject": "A3Q0XAGQ7TD7MP:3X87C8JFV7JQ2BSCY8KSFD9F2ILSQK"}
{"meta_move": "drag_end", "rt": "108.0", "trial_number": "0", "pre_actions": "0", "move": "r@16", "instance": "prb14651", "distance_to_goal": "NA", "progress": "NA", "move_number": "5", "optimal_length": "7", "subject": "A3Q0XAGQ7TD7MP:3X87C8JFV7JQ2BSCY8KSFD9F2ILSQK"}
