{"rt": "9065.0", "trial_number": "0", "skipped": "False", "complete": "True", "assignment": "3TYCR1GOTDRCCQYD1V64UK7OHTBZLQ", "start_time": "1.51753735523e+12", "human_length": "9", "nodes_expanded": "999", "instance": "prb1707", "end_time": "1.51753736429e+12", "optimal_length": "7", "subject": "A13BZCNJ0WR1T7"}
{"rt": "0.0", "trial_number": "0", "skipped": "False", "complete": "False", "assignment": "3YW4XOSQKRTI0K0Z2YPDTDJVFABU1I", "start_time": "1.51682445888e+12", "human_length": "1", "nodes_expanded": "999", "instance": "prb1707", "end_time": "1.51682445888e+12", "optimal_length": "7", "subject": "A15781PHGW377Y"}
{"rt": "14307.0", "trial_number": "1", "skipped": "False", "complete": "True", "assignment": "3YW4XOSQKRTI0K0Z2YPDTDJVFABU1I", "start_time": "1.51682445888e+12", "human_length": "7", "nodes_expanded": "999", "instance": "prb1707", "end_time": "1.51682447319e+12", "optimal_length": "7", "subject": "A15781PHGW377Y"}
{"rt": "14307.0", "trial_number": "0", "skipped": "False", "complete": "True", "assignment": "3YW4XOSQKRTI0K0Z2YPDTDJVFABU1I", "start_time": "1.51682445888e+12", "human_length": "7", "nodes_expanded": "999", "instance": "prb1707", "end_time": "1.51682447319e+12", "optimal_length": "7", "subject": "A15781PHGW377Y"}
{"rt": "0.0", "trial_number": "0", "skipped": "False", "complete": "False", "assignment": "3VE8AYVF8N5BS2NU6U3TMN50JMNF8V", "start_time": "1.51673833917e+12", "human_length": "1", "nodes_expanded": "999", "instance": "prb1707", "end_time": "1.51673833917e+12", "optimal_length": "7", "subject": "A18QU0YQB6Q8DF"}
{"rt": "0.0", "trial_number": "1", "skipped": "False", "complete": "False", "assignment": "3VE8AYVF8N5BS2NU6U3TMN50JMNF8V", "start_time": "1.51673833917e+12", "human_length": "1", "nodes_expanded": "999", "instance": "prb1707", "end_time": "1.51673833917e+12", "optimal_length": "7", "subject": "A18QU0YQB6Q8DF"}
{"rt": "12624.0", "trial_number": "2", "skipped": "False", "complete": "True", "assignment": "3VE8AYVF8N5BS2NU6U3TMN50JMNF8V", "start_time": "1.51673833917e+12", "human_length": "8", "nodes_expanded": "999", "instance": "prb1707", "end_time": "1.51673835179e+12", "optimal_length": "7", "subject": "A18QU0YQB6Q8DF"}
{"rt": "12624.0", "trial_number": "0", "skipped": "False", "complete": "True", "assignment": "3VE8AYVF8N5BS2NU6U3TMN50JMNF8V", "start_time": "1.51673833917e+12", "human_length": "8", "nodes_expanded": "999", "instance": "prb1707", "end_time": "1.51673835179e+12", "optimal_length": "7", "subject": "A18QU0YQB6Q8DF"}
{"rt": "6369.0", "trial_number": "0", "skipped": "False", "complete": "True", "assignment": "3IJXV6UZ1YR1KY4G6BFEG1DXR47RIC", "start_time": "1.51797225148e+12", "human_length": "8", "nodes_expanded": "999", "instance": "prb1707", "end_time": "1.51797225785e+12", "optimal_length": "7", "subject": "A18T3WK7J16C1B"}
{"rt": "7301.0", "trial_number": "0", "skipped": "False", "complete": "True", "assignment": "3PMBY0YE28B43VMUKKJ6EDF85RV9C8", "start_time": "1.51638717825e+12", "human_length": "7", "nodes_expanded": "999", "instance": "prb1707", "end_time": "1.51638718555e+12", "optimal_length": "7", "subject": "A191V7PT3DQKDP"}
{"rt": "58633.0", "trial_number": "0", "skipped": "False", "complete": "True", "assignment": "3ZSANO2JCGFTBM23KS9Y3E51YP4FSQ", "start_time": "1.5181425905e+12", "human_length": "58", "nodes_expanded": "999", "instance": "prb1707", "end_time": "1.51814264913e+12", "optimal_length": "7", "subject": "A1F42D4L22K5ND"}
{"rt": "25572.0", "trial_number": "0", "skipped": "False", "complete": "True", "assignment": "3TS1AR6UQRM7SOIBWPBN8N9589Y7FV", "start_time": "1.51683743022e+12", "human_length": "18", "nodes_expanded": "999", "instance": "prb1707", "end_time": "1.51683745579e+12", "optimal_length": "7", "subject": "A1F4N58CAX8IMK"}
{"rt": "15388.0", "trial_number": "1", "skipped": "False", "complete": "True", "assignment": "35DR22AR5ES6RR89U7EJ1DXW91AX3P", "start_time": "1.51795379686e+12", "human_length": "13", "nodes_expanded": "999", "instance": "prb1707", "end_time": "1.51795381224e+12", "optimal_length": "7", "subject": "A1F4N58CAX8IMK"}
{"rt": "26299.0", "trial_number": "0", "skipped": "False", "complete": "True", "assignment": "33F859I567LE8WC74WB3GA7E94XBHW", "start_time": "1.51796974876e+12", "human_length": "19", "nodes_expanded": "999", "instance": "prb1707", "end_time": "1.51796977506e+12", "optimal_length": "7", "subject": "A1GQS6USF2JEYG"}
{"rt": "7038.0", "trial_number": "0", "skipped": "False", "complete": "True", "assignment": "3XLBSAQ9Z5KDX59BX15UBFPNNHYZ7Q", "start_time": "1.5181461518e+12", "human_length": "7", "nodes_expanded": "999", "instance": "prb1707", "end_time": "1.51814615884e+12", "optimal_length": "7", "subject": "A1HFNOKU591WCY"}
{"rt": "5492.0", "trial_number": "0", "skipped": "False", "complete": "True", "assignment": "3FTF2T8WLSQDHTSZ1BJ7Q7MB14SW9H", "start_time": "1.51813612678e+12", "human_length": "7", "nodes_expanded": "999", "instance": "prb1707", "end_time": "1.51813613228e+12", "optimal_length": "7", "subject": "A1IUH9D7N69VS"}
{"rt": "0.0", "trial_number": "0", "skipped": "False", "complete": "False", "assignment": "3YW4XOSQKRTI0K0Z2YPDTDJVFABU1I", "start_time": "1.51683170448e+12", "human_length": "1", "nodes_expanded": "999", "instance": "prb1707", "end_time": "1.51683170448e+12", "optimal_length": "7", "subject": "A1LR0VQIHQUJAM"}
{"rt": "6959.0", "trial_number": "1", "skipped": "False", "complete": "True", "assignment": "3YW4XOSQKRTI0K0Z2YPDTDJVFABU1I", "start_time": "1.51683170448e+12", "human_length": "7", "nodes_expanded": "999", "instance": "prb1707", "end_time": "1.51683171144e+12", "optimal_length": "7", "subject": "A1LR0VQIHQUJAM"}
{"rt": "13482.0", "trial_number": "0", "skipped": "False", "complete": "True", "assignment": "3R5F3LQFV3SKIB1AENMWM1BICT5OZB", "start_time": "1.5179603956e+12", "human_length": "12", "nodes_expanded": "999", "instance": "prb1707", "end_time": "1.51796040908e+12", "optimal_length": "7", "subject": "A1N1EF0MIRSEZZ"}
{"rt": "13124.0", "trial_number": "0", "skipped": "False", "complete": "True", "assignment": "31LM9EDVOM0C0BWUVMJXJINN3QPJNI", "start_time": "1.51752389878e+12", "human_length": "15", "nodes_expanded": "999", "instance": "prb1707", "end_time": "1.5175239119e+12", "optimal_length": "7", "subject": "A1NT8BT94ME6F5"}
{"rt": "7839.0", "trial_number": "0", "skipped": "False", "complete": "True", "assignment": "3SB5N7Y3O4CZODEMMAWWBTZU4C90GB", "start_time": "1.51813904018e+12", "human_length": "7", "nodes_expanded": "999", "instance": "prb1707", "end_time": "1.51813904801e+12", "optimal_length": "7", "subject": "A1RVMADIZE3BXK"}
{"rt": "21899.0", "trial_number": "0", "skipped": "False", "complete": "True", "assignment": "3RUIQRXJBCWS71H9MUFVM5WQ3SCLLJ", "start_time": "1.51815674677e+12", "human_length": "11", "nodes_expanded": "999", "instance": "prb1707", "end_time": "1.51815676867e+12", "optimal_length": "7", "subject": "A1SJRFJWFXSDH4"}
{"rt": "16985.0", "trial_number": "0", "skipped": "False", "complete": "True", "assignment": "3I02618YA1ELHCJ1N003U91TLSLUPX", "start_time": "1.51814401507e+12", "human_length": "7", "nodes_expanded": "999", "instance": "prb1707", "end_time": "1.51814403206e+12", "optimal_length": "7", "subject": "A1SLM4JRDIM430"}
{"rt": "7843.0", "trial_number": "0", "skipped": "False", "complete": "True", "assignment": "3PB5A5BD0WED6OE679H5Q89HBDGG71", "start_time": "1.51795267109e+12", "human_length": "7", "nodes_expanded": "999", "instance": "prb1707", "end_time": "1.51795267893e+12", "optimal_length": "7", "subject": "A1USR9JCAMDGM3"}
{"rt": "59638.0", "trial_number": "0", "skipped": "False", "complete": "True", "assignment": "3M0BCWMB8W4W5M7WZVX3HDH1M3FBWL", "start_time": "1.51683951882e+12", "human_length": "35", "nodes_expanded": "999", "instance": "prb1707", "end_time": "1.51683957846e+12", "optimal_length": "7", "subject": "A1XDMS0KFSF5JW"}
{"rt": "26913.0", "trial_number": "0", "skipped": "False", "complete": "True", "assignment": "3XC1O3LBOTUGQEPEV3HM8W67X4RTLL", "start_time": "1.51813864009e+12", "human_length": "21", "nodes_expanded": "999", "instance": "prb1707", "end_time": "1.51813866701e+12", "optimal_length": "7", "subject": "A1ZTSCPETU3UJW"}
{"rt": "9837.0", "trial_number": "0", "skipped": "False", "complete": "True", "assignment": "34BBWHLWHBJ6SUL255PK30LEGY5IWG", "start_time": "1.51639351049e+12", "human_length": "10", "nodes_expanded": "999", "instance": "prb1707", "end_time": "1.51639352033e+12", "optimal_length": "7", "subject": "A214HWAW1PYWO8"}
{"rt": "7136.0", "trial_number": "0", "skipped": "False", "complete": "False", "assignment": "3X87C8JFV7JQ2BSCY8KSFD9F2ILSQK", "start_time": "1.51674502975e+12", "human_length": "5", "nodes_expanded": "999", "instance": "prb1707", "end_time": "1.51674503689e+12", "optimal_length": "7", "subject": "A21S7MA9DCW95E"}
{"rt": "0.0", "trial_number": "1", "skipped": "False", "complete": "False", "assignment": "3X87C8JFV7JQ2BSCY8KSFD9F2ILSQK", "start_time": "1.51674503967e+12", "human_length": "1", "nodes_expanded": "999", "instance": "prb1707", "end_time": "1.51674503967e+12", "optimal_length": "7", "subject": "A21S7MA9DCW95E"}
{"rt": "0.0", "trial_number": "2", "skipped": "False", "complete": "False", "assignment": "3X87C8JFV7JQ2BSCY8KSFD9F2ILSQK", "start_time": "1.51674502975e+12", "human_length": "1", "nodes_expanded": "999", "instance": "prb1707", "end_time": "1.51674502975e+12", "optimal_length": "7", "subject": "A21S7MA9DCW95E"}
{"rt": "0.0", "trial_number": "3", "skipped": "False", "complete": "False", "assignment": "3X87C8JFV7JQ2BSCY8KSFD9F2ILSQK", "start_time": "1.51674503967e+12", "human_length": "1", "nodes_expanded": "999", "instance": "prb1707", "end_time": "1.51674503967e+12", "optimal_length": "7", "subject": "A21S7MA9DCW95E"}
{"rt": "0.0", "trial_number": "4", "skipped": "False", "complete": "False", "assignment": "3X87C8JFV7JQ2BSCY8KSFD9F2ILSQK", "start_time": "1.51674502975e+12", "human_length": "1", "nodes_expanded": "999", "instance": "prb1707", "end_time": "1.51674502975e+12", "optimal_length": "7", "subject": "A21S7MA9DCW95E"}
{"rt": "11087.0", "trial_number": "5", "skipped": "False", "complete": "True", "assignment": "3X87C8JFV7JQ2BSCY8KSFD9F2ILSQK", "start_time": "1.51674503967e+12", "human_length": "7", "nodes_expanded": "999", "instance": "prb1707", "end_time": "1.51674505075e+12", "optimal_length": "7", "subject": "A21S7MA9DCW95E"}
{"rt": "7136.0", "trial_number": "0", "skipped": "False", "complete": "False", "assignment": "3X87C8JFV7JQ2BSCY8KSFD9F2ILSQK", "start_time": "1.51674502975e+12", "human_length": "5", "nodes_expanded": "999", "instance": "prb1707", "end_time": "1.51674503689e+12", "optimal_length": "7", "subject": "A21S7MA9DCW95E"}
{"rt": "11087.0", "trial_number": "1", "skipped": "False", "complete": "True", "assignment": "3X87C8JFV7JQ2BSCY8KSFD9F2ILSQK", "start_time": "1.51674503967e+12", "human_length": "7", "nodes_expanded": "999", "instance": "prb1707", "end_time": "1.51674505075e+12", "optimal_length": "7", "subject": "A21S7MA9DCW95E"}
{"rt": "0.0", "trial_number": "0", "skipped": "False", "complete": "False", "assignment": "3IHR8NYAM89M0EPM8U9LH53ZJDTP4U", "start_time": "1.51682689410e+12", "human_length": "1", "nodes_expanded": "999", "instance": "prb1707", "end_time": "1.51682689410e+12", "optimal_length": "7", "subject": "A23437BMZ5T1FH"}
{"rt": "7566.0", "trial_number": "1", "skipped": "False", "complete": "True", "assignment": "3IHR8NYAM89M0EPM8U9LH53ZJDTP4U", "start_time": "1.51682689410e+12", "human_length": "7", "nodes_expanded": "999", "instance": "prb1707", "end_time": "1.51682690167e+12", "optimal_length": "7", "subject": "A23437BMZ5T1FH"}
{"rt": "17868.0", "trial_number": "0", "skipped": "False", "complete": "True", "assignment": "30IQTZXKALEAAZ9CBKW0ZFZP6O5X07", "start_time": "1.51794497003e+12", "human_length": "10", "nodes_expanded": "999", "instance": "prb1707", "end_time": "1.5179449879e+12", "optimal_length": "7", "subject": "A23XJ8I86R0O3B"}
{"rt": "0.0", "trial_number": "0", "skipped": "False", "complete": "False", "assignment": "3X4MXAO0BHWJLTOLVSJTHSM54OHWRG", "start_time": "1.51682395607e+12", "human_length": "1", "nodes_expanded": "999", "instance": "prb1707", "end_time": "1.51682395607e+12", "optimal_length": "7", "subject": "A2IBQA01NR5N76"}
{"rt": "11445.0", "trial_number": "1", "skipped": "False", "complete": "True", "assignment": "3X4MXAO0BHWJLTOLVSJTHSM54OHWRG", "start_time": "1.51682395607e+12", "human_length": "10", "nodes_expanded": "999", "instance": "prb1707", "end_time": "1.51682396751e+12", "optimal_length": "7", "subject": "A2IBQA01NR5N76"}
{"rt": "11445.0", "trial_number": "0", "skipped": "False", "complete": "True", "assignment": "3X4MXAO0BHWJLTOLVSJTHSM54OHWRG", "start_time": "1.51682395607e+12", "human_length": "10", "nodes_expanded": "999", "instance": "prb1707", "end_time": "1.51682396751e+12", "optimal_length": "7", "subject": "A2IBQA01NR5N76"}
{"rt": "28367.0", "trial_number": "0", "skipped": "False", "complete": "True", "assignment": "3TYCR1GOTDRCCQYD1V64UK7OE48LZS", "start_time": "1.51638931549e+12", "human_length": "16", "nodes_expanded": "999", "instance": "prb1707", "end_time": "1.51638934385e+12", "optimal_length": "7", "subject": "A2MYB6MLQW0IGN"}
{"rt": "22012.0", "trial_number": "0", "skipped": "False", "complete": "True", "assignment": "3TAYZSBPLMG9ASQRWXURJVBCPLN2SH", "start_time": "1.51813658234e+12", "human_length": "11", "nodes_expanded": "999", "instance": "prb1707", "end_time": "1.51813660435e+12", "optimal_length": "7", "subject": "A2RCYLKY072XXO"}
{"rt": "0.0", "trial_number": "0", "skipped": "False", "complete": "False", "assignment": "3IJXV6UZ1YR1KY4G6BFEG1DXP7SRI1", "start_time": "1.51674964393e+12", "human_length": "1", "nodes_expanded": "999", "instance": "prb1707", "end_time": "1.51674964393e+12", "optimal_length": "7", "subject": "A2RTJ6BDY0DZVZ"}
{"rt": "0.0", "trial_number": "1", "skipped": "False", "complete": "False", "assignment": "3IJXV6UZ1YR1KY4G6BFEG1DXP7SRI1", "start_time": "1.51674964393e+12", "human_length": "1", "nodes_expanded": "999", "instance": "prb1707", "end_time": "1.51674964393e+12", "optimal_length": "7", "subject": "A2RTJ6BDY0DZVZ"}
{"rt": "55642.0", "trial_number": "2", "skipped": "False", "complete": "True", "assignment": "3IJXV6UZ1YR1KY4G6BFEG1DXP7SRI1", "start_time": "1.51674964393e+12", "human_length": "32", "nodes_expanded": "999", "instance": "prb1707", "end_time": "1.51674969957e+12", "optimal_length": "7", "subject": "A2RTJ6BDY0DZVZ"}
{"rt": "55642.0", "trial_number": "0", "skipped": "False", "complete": "True", "assignment": "3IJXV6UZ1YR1KY4G6BFEG1DXP7SRI1", "start_time": "1.51674964393e+12", "human_length": "32", "nodes_expanded": "999", "instance": "prb1707", "end_time": "1.51674969957e+12", "optimal_length": "7", "subject": "A2RTJ6BDY0DZVZ"}
{"rt": "0.0", "trial_number": "0", "skipped": "False", "complete": "False", "assignment": "3WSELTNVR4AZUVYAYCSWZIQW0J4ATB", "start_time": "1.51673818703e+12", "human_length": "1", "nodes_expanded": "999", "instance": "prb1707", "end_time": "1.51673818703e+12", "optimal_length": "7", "subject": "A2TQNX64349OZ9"}
{"rt": "0.0", "trial_number": "1", "skipped": "False", "complete": "False", "assignment": "3WSELTNVR4AZUVYAYCSWZIQW0J4ATB", "start_time": "1.51673818703e+12", "human_length": "1", "nodes_expanded": "999", "instance": "prb1707", "end_time": "1.51673818703e+12", "optimal_length": "7", "subject": "A2TQNX64349OZ9"}
{"rt": "15744.0", "trial_number": "2", "skipped": "False", "complete": "True", "assignment": "3WSELTNVR4AZUVYAYCSWZIQW0J4ATB", "start_time": "1.51673818703e+12", "human_length": "11", "nodes_expanded": "999", "instance": "prb1707", "end_time": "1.51673820278e+12", "optimal_length": "7", "subject": "A2TQNX64349OZ9"}
{"rt": "15744.0", "trial_number": "0", "skipped": "False", "complete": "True", "assignment": "3WSELTNVR4AZUVYAYCSWZIQW0J4ATB", "start_time": "1.51673818703e+12", "human_length": "11", "nodes_expanded": "999", "instance": "prb1707", "end_time": "1.51673820278e+12", "optimal_length": "7", "subject": "A2TQNX64349OZ9"}
{"rt": "32567.0", "trial_number": "0", "skipped": "False", "complete": "True", "assignment": "3JCG6DTRV4YEPVDZ64VNKDUEMPGQQ1", "start_time": "1.51794745369e+12", "human_length": "7", "nodes_expanded": "999", "instance": "prb1707", "end_time": "1.51794748626e+12", "optimal_length": "7", "subject": "A2V7KYLBCBTI3B"}
{"rt": "18753.0", "trial_number": "0", "skipped": "False", "complete": "True", "assignment": "37TD41K0AIHM8AITTQJXV8KY05QCSB", "start_time": "1.51752435683e+12", "human_length": "8", "nodes_expanded": "999", "instance": "prb1707", "end_time": "1.51752437558e+12", "optimal_length": "7", "subject": "A30KYQGABO7JER"}
{"rt": "34241.0", "trial_number": "0", "skipped": "False", "complete": "True", "assignment": "3TXD01ZLD5PZSJXIPG8FRBQYTI9U4X", "start_time": "1.51794473449e+12", "human_length": "12", "nodes_expanded": "999", "instance": "prb1707", "end_time": "1.51794476873e+12", "optimal_length": "7", "subject": "A3BPRPN10HJD4B"}
{"rt": "10043.0", "trial_number": "0", "skipped": "False", "complete": "True", "assignment": "34HJIJKLP64Z5YMIU6IKNXSH7PDV4I", "start_time": "1.51794108409e+12", "human_length": "8", "nodes_expanded": "999", "instance": "prb1707", "end_time": "1.51794109413e+12", "optimal_length": "7", "subject": "A3CTXNQ2GXIQSP"}
{"rt": "13673.0", "trial_number": "0", "skipped": "False", "complete": "True", "assignment": "3TPWUS5F8A9FFRZ2DVTYSXNJ6BWWC6", "start_time": "1.5179416713e+12", "human_length": "8", "nodes_expanded": "999", "instance": "prb1707", "end_time": "1.51794168498e+12", "optimal_length": "7", "subject": "A3GXC3VG37CQ3G"}
{"rt": "34553.0", "trial_number": "0", "skipped": "False", "complete": "True", "assignment": "3V5Q80FXIYZ5QB5C6ITQBN30WY823U", "start_time": "1.51753419358e+12", "human_length": "22", "nodes_expanded": "999", "instance": "prb1707", "end_time": "1.51753422814e+12", "optimal_length": "7", "subject": "A3NMQ3019X6YE0"}
{"rt": "34553.0", "trial_number": "0", "skipped": "False", "complete": "True", "assignment": "3V5Q80FXIYZ5QB5C6ITQBN30WY823U", "start_time": "1.51753419358e+12", "human_length": "22", "nodes_expanded": "999", "instance": "prb1707", "end_time": "1.51753422814e+12", "optimal_length": "7", "subject": "A3NMQ3019X6YE0"}
{"rt": "0.0", "trial_number": "0", "skipped": "False", "complete": "False", "assignment": "3X87C8JFV7JQ2BSCY8KSFD9F2ILSQK", "start_time": "1.51673851526e+12", "human_length": "1", "nodes_expanded": "999", "instance": "prb1707", "end_time": "1.51673851526e+12", "optimal_length": "7", "subject": "A3Q0XAGQ7TD7MP"}
{"rt": "0.0", "trial_number": "1", "skipped": "False", "complete": "False", "assignment": "3X87C8JFV7JQ2BSCY8KSFD9F2ILSQK", "start_time": "1.51673851526e+12", "human_length": "1", "nodes_expanded": "999", "instance": "prb1707", "end_time": "1.51673851526e+12", "optimal_length": "7", "subject": "A3Q0XAGQ7TD7MP"}
{"rt": "15091.0", "trial_number": "2", "skipped": "False", "complete": "True", "assignment": "3X87C8JFV7JQ2BSCY8KSFD9F2ILSQK", "start_time": "1.51673851526e+12", "human_length": "8", "nodes_expanded": "999", "instance": "prb1707", "end_time": "1.51673853035e+12", "optimal_length": "7", "subject": "A3Q0XAGQ7TD7MP"}
{"rt": "15680.0", "trial_number": "3", "skipped": "False", "complete": "True", "assignment": "3GLB5JMZFY3TNXFGYMKRQ0JDXNTDGZ", "start_time": "1.51794619403e+12", "human_length": "7", "nodes_expanded": "999", "instance": "prb1707", "end_time": "1.51794620971e+12", "optimal_length": "7", "subject": "A3Q0XAGQ7TD7MP"}
{"rt": "15091.0", "trial_number": "0", "skipped": "False", "complete": "True", "assignment": "3X87C8JFV7JQ2BSCY8KSFD9F2ILSQK", "start_time": "1.51673851526e+12", "human_length": "8", "nodes_expanded": "999", "instance": "prb1707", "end_time": "1.51673853035e+12", "optimal_length": "7", "subject": "A3Q0XAGQ7TD7MP"}
{"rt": "15680.0", "trial_number": "1", "skipped": "False", "complete": "True", "assignment": "3GLB5JMZFY3TNXFGYMKRQ0JDXNTDGZ", "start_time": "1.51794619403e+12", "human_length": "7", "nodes_expanded": "999", "instance": "prb1707", "end_time": "1.51794620971e+12", "optimal_length": "7", "subject": "A3Q0XAGQ7TD7MP"}
{"rt": "35807.0", "trial_number": "0", "skipped": "False", "complete": "True", "assignment": "3M0BCWMB8W4W5M7WZVX3HDH1P53WB1", "start_time": "1.51815872275e+12", "human_length": "26", "nodes_expanded": "999", "instance": "prb1707", "end_time": "1.51815875856e+12", "optimal_length": "7", "subject": "A53S7J4JGWG38"}
{"rt": "6407.0", "trial_number": "0", "skipped": "False", "complete": "True", "assignment": "3IXEICO793RY7TM78ZBKJDOA7ADT6Q", "start_time": "1.51816828360e+12", "human_length": "7", "nodes_expanded": "999", "instance": "prb1707", "end_time": "1.51816829001e+12", "optimal_length": "7", "subject": "ALH1K6ZAQQMN7"}
{"rt": "12326.0", "trial_number": "0", "skipped": "False", "complete": "True", "assignment": "37QW5D2ZRHUKW7SGCE3STMOFBMK8SX", "start_time": "1.51815655209e+12", "human_length": "7", "nodes_expanded": "999", "instance": "prb1707", "end_time": "1.51815656442e+12", "optimal_length": "7", "subject": "AMW2XLD9443OH"}
{"rt": "8355.0", "trial_number": "0", "skipped": "False", "complete": "True", "assignment": "3AZHRG4CU5SYU12YRVPCSZALW5003R", "start_time": "1.51630559011e+12", "human_length": "9", "nodes_expanded": "999", "instance": "prb1707", "end_time": "1.51630559847e+12", "optimal_length": "7", "subject": "ARWF605I7RWM7"}
{"rt": "7817.0", "trial_number": "0", "skipped": "False", "complete": "True", "assignment": "3ZSY5X72NYJBGKFJ46SJ0Y9J0RLROB", "start_time": "1.51638783129e+12", "human_length": "7", "nodes_expanded": "999", "instance": "prb1707", "end_time": "1.51638783911e+12", "optimal_length": "7", "subject": "AU4KK3OYS2UZF"}
{"rt": "23284.0", "trial_number": "0", "skipped": "False", "complete": "True", "assignment": "33PPO7FECWN7JOLBOAKUBCWTC0AIDL", "start_time": "1.51794906599e+12", "human_length": "7", "nodes_expanded": "999", "instance": "prb1707", "end_time": "1.51794908928e+12", "optimal_length": "7", "subject": "AXKM02NVXNGOM"}
