{"rt": "9701.0", "trial_number": "0", "skipped": "False", "complete": "True", "assignment": "3TYCR1GOTDRCCQYD1V64UK7OHTBZLQ", "start_time": "1.51753555346e+12", "human_length": "9", "nodes_expanded": "999", "instance": "prb14651", "end_time": "1.51753556316e+12", "optimal_length": "7", "subject": "A13BZCNJ0WR1T7"}
{"rt": "0.0", "trial_number": "0", "skipped": "False", "complete": "False", "assignment": "3YW4XOSQKRTI0K0Z2YPDTDJVFABU1I", "start_time": "1.51682356741e+12", "human_length": "1", "nodes_expanded": "999", "instance": "prb14651", "end_time": "1.51682356741e+12", "optimal_length": "7", "subject": "A15781PHGW377Y"}
{"rt": "40455.0", "trial_number": "1", "skipped": "False", "complete": "True", "assignment": "3YW4XOSQKRTI0K0Z2YPDTDJVFABU1I", "start_time": "1.51682356741e+12", "human_length": "11", "nodes_expanded": "999", "instance": "prb14651", "end_time": "1.51682360786e+12", "optimal_length": "7", "subject": "A15781PHGW377Y"}
{"rt": "40455.0", "trial_number": "0", "skipped": "False", "complete": "True", "assignment": "3YW4XOSQKRTI0K0Z2YPDTDJVFABU1I", "start_time": "1.51682356741e+12", "human_length": "11", "nodes_expanded": "999", "instance": "prb14651", "end_time": "1.51682360786e+12", "optimal_length": "7", "subject": "A15781PHGW377Y"}
{"rt": "9818.0", "trial_number": "0", "skipped": "False", "complete": "False", "assignment": "3TS1AR6UQRM7SOIBWPBN8N9589Y7FV", "start_time": "1.51684470968e+12", "human_length": "3", "nodes_expanded": "999", "instance": "prb14651", "end_time": "1.5168447195e+12", "optimal_length": "7", "subject": "A15FXHC1CVNW31"}
{"rt": "0.0", "trial_number": "1", "skipped": "False", "complete": "False", "assignment": "3TS1AR6UQRM7SOIBWPBN8N9589Y7FV", "start_time": "1.51684471976e+12", "human_length": "1", "nodes_expanded": "999", "instance": "prb14651", "end_time": "1.51684471976e+12", "optimal_length": "7", "subject": "A15FXHC1CVNW31"}
{"rt": "0.0", "trial_number": "2", "skipped": "False", "complete": "False", "assignment": "3TS1AR6UQRM7SOIBWPBN8N9589Y7FV", "start_time": "1.51684471986e+12", "human_length": "1", "nodes_expanded": "999", "instance": "prb14651", "end_time": "1.51684471986e+12", "optimal_length": "7", "subject": "A15FXHC1CVNW31"}
{"rt": "0.0", "trial_number": "3", "skipped": "False", "complete": "False", "assignment": "3TS1AR6UQRM7SOIBWPBN8N9589Y7FV", "start_time": "1.51684471992e+12", "human_length": "1", "nodes_expanded": "999", "instance": "prb14651", "end_time": "1.51684471992e+12", "optimal_length": "7", "subject": "A15FXHC1CVNW31"}
{"rt": "0.0", "trial_number": "4", "skipped": "False", "complete": "False", "assignment": "3TS1AR6UQRM7SOIBWPBN8N9589Y7FV", "start_time": "1.51684472e+12", "human_length": "1", "nodes_expanded": "999", "instance": "prb14651", "end_time": "1.51684472e+12", "optimal_length": "7", "subject": "A15FXHC1CVNW31"}
{"rt": "0.0", "trial_number": "5", "skipped": "False", "complete": "False", "assignment": "3TS1AR6UQRM7SOIBWPBN8N9589Y7FV", "start_time": "1.51684472004e+12", "human_length": "1", "nodes_expanded": "999", "instance": "prb14651", "end_time": "1.51684472004e+12", "optimal_length": "7", "subject": "A15FXHC1CVNW31"}
{"rt": "0.0", "trial_number": "6", "skipped": "False", "complete": "False", "assignment": "3TS1AR6UQRM7SOIBWPBN8N9589Y7FV", "start_time": "1.5168447201e+12", "human_length": "1", "nodes_expanded": "999", "instance": "prb14651", "end_time": "1.5168447201e+12", "optimal_length": "7", "subject": "A15FXHC1CVNW31"}
{"rt": "0.0", "trial_number": "7", "skipped": "False", "complete": "False", "assignment": "3TS1AR6UQRM7SOIBWPBN8N9589Y7FV", "start_time": "1.51684472014e+12", "human_length": "1", "nodes_expanded": "999", "instance": "prb14651", "end_time": "1.51684472014e+12", "optimal_length": "7", "subject": "A15FXHC1CVNW31"}
{"rt": "0.0", "trial_number": "8", "skipped": "False", "complete": "False", "assignment": "3TS1AR6UQRM7SOIBWPBN8N9589Y7FV", "start_time": "1.51684472022e+12", "human_length": "1", "nodes_expanded": "999", "instance": "prb14651", "end_time": "1.51684472022e+12", "optimal_length": "7", "subject": "A15FXHC1CVNW31"}
{"rt": "3484.0", "trial_number": "9", "skipped": "False", "complete": "False", "assignment": "3TS1AR6UQRM7SOIBWPBN8N9589Y7FV", "start_time": "1.51684472024e+12", "human_length": "4", "nodes_expanded": "999", "instance": "prb14651", "end_time": "1.51684472372e+12", "optimal_length": "7", "subject": "A15FXHC1CVNW31"}
{"rt": "20313.0", "trial_number": "10", "skipped": "False", "complete": "True", "assignment": "3TS1AR6UQRM7SOIBWPBN8N9589Y7FV", "start_time": "1.51684474931e+12", "human_length": "11", "nodes_expanded": "999", "instance": "prb14651", "end_time": "1.51684476962e+12", "optimal_length": "7", "subject": "A15FXHC1CVNW31"}
{"rt": "0.0", "trial_number": "0", "skipped": "False", "complete": "False", "assignment": "3VE8AYVF8N5BS2NU6U3TMN50JMNF8V", "start_time": "1.51673801191e+12", "human_length": "1", "nodes_expanded": "999", "instance": "prb14651", "end_time": "1.51673801191e+12", "optimal_length": "7", "subject": "A18QU0YQB6Q8DF"}
{"rt": "0.0", "trial_number": "1", "skipped": "False", "complete": "False", "assignment": "3VE8AYVF8N5BS2NU6U3TMN50JMNF8V", "start_time": "1.51673801191e+12", "human_length": "1", "nodes_expanded": "999", "instance": "prb14651", "end_time": "1.51673801191e+12", "optimal_length": "7", "subject": "A18QU0YQB6Q8DF"}
{"rt": "73373.0", "trial_number": "2", "skipped": "False", "complete": "True", "assignment": "3VE8AYVF8N5BS2NU6U3TMN50JMNF8V", "start_time": "1.51673801191e+12", "human_length": "10", "nodes_expanded": "999", "instance": "prb14651", "end_time": "1.51673808528e+12", "optimal_length": "7", "subject": "A18QU0YQB6Q8DF"}
{"rt": "73373.0", "trial_number": "0", "skipped": "False", "complete": "True", "assignment": "3VE8AYVF8N5BS2NU6U3TMN50JMNF8V", "start_time": "1.51673801191e+12", "human_length": "10", "nodes_expanded": "999", "instance": "prb14651", "end_time": "1.51673808528e+12", "optimal_length": "7", "subject": "A18QU0YQB6Q8DF"}
{"rt": "20911.0", "trial_number": "0", "skipped": "False", "complete": "True", "assignment": "3IJXV6UZ1YR1KY4G6BFEG1DXR47RIC", "start_time": "1.517973787e+12", "human_length": "9", "nodes_expanded": "999", "instance": "prb14651", "end_time": "1.51797380791e+12", "optimal_length": "7", "subject": "A18T3WK7J16C1B"}
{"rt": "6511.0", "trial_number": "0", "skipped": "False", "complete": "True", "assignment": "3PMBY0YE28B43VMUKKJ6EDF85RV9C8", "start_time": "1.51638771958e+12", "human_length": "7", "nodes_expanded": "999", "instance": "prb14651", "end_time": "1.51638772609e+12", "optimal_length": "7", "subject": "A191V7PT3DQKDP"}
{"rt": "46568.0", "trial_number": "0", "skipped": "False", "complete": "True", "assignment": "3H0W84IWBLAP4T2UASPNVMF5ZH7ER9", "start_time": "1.51755385364e+12", "human_length": "8", "nodes_expanded": "999", "instance": "prb14651", "end_time": "1.51755390021e+12", "optimal_length": "7", "subject": "A1AKX1C8GCVCTP"}
{"rt": "5747.0", "trial_number": "0", "skipped": "False", "complete": "True", "assignment": "3ZSANO2JCGFTBM23KS9Y3E51YP4FSQ", "start_time": "1.51814370927e+12", "human_length": "8", "nodes_expanded": "999", "instance": "prb14651", "end_time": "1.51814371501e+12", "optimal_length": "7", "subject": "A1F42D4L22K5ND"}
{"rt": "27308.0", "trial_number": "0", "skipped": "False", "complete": "True", "assignment": "3TS1AR6UQRM7SOIBWPBN8N9589Y7FV", "start_time": "1.51683725234e+12", "human_length": "19", "nodes_expanded": "999", "instance": "prb14651", "end_time": "1.51683727965e+12", "optimal_length": "7", "subject": "A1F4N58CAX8IMK"}
{"rt": "9210.0", "trial_number": "1", "skipped": "False", "complete": "True", "assignment": "35DR22AR5ES6RR89U7EJ1DXW91AX3P", "start_time": "1.51795341894e+12", "human_length": "9", "nodes_expanded": "999", "instance": "prb14651", "end_time": "1.51795342815e+12", "optimal_length": "7", "subject": "A1F4N58CAX8IMK"}
{"rt": "10254.0", "trial_number": "0", "skipped": "False", "complete": "True", "assignment": "33F859I567LE8WC74WB3GA7E94XBHW", "start_time": "1.51796973606e+12", "human_length": "12", "nodes_expanded": "999", "instance": "prb14651", "end_time": "1.51796974632e+12", "optimal_length": "7", "subject": "A1GQS6USF2JEYG"}
{"rt": "12279.0", "trial_number": "0", "skipped": "False", "complete": "True", "assignment": "3XLBSAQ9Z5KDX59BX15UBFPNNHYZ7Q", "start_time": "1.5181452164e+12", "human_length": "10", "nodes_expanded": "999", "instance": "prb14651", "end_time": "1.51814522868e+12", "optimal_length": "7", "subject": "A1HFNOKU591WCY"}
{"rt": "5491.0", "trial_number": "0", "skipped": "False", "complete": "True", "assignment": "3FTF2T8WLSQDHTSZ1BJ7Q7MB14SW9H", "start_time": "1.51813740166e+12", "human_length": "7", "nodes_expanded": "999", "instance": "prb14651", "end_time": "1.51813740716e+12", "optimal_length": "7", "subject": "A1IUH9D7N69VS"}
{"rt": "7866.0", "trial_number": "0", "skipped": "False", "complete": "True", "assignment": "3VE8AYVF8N5BS2NU6U3TMN50MV38FP", "start_time": "1.51814516192e+12", "human_length": "7", "nodes_expanded": "999", "instance": "prb14651", "end_time": "1.51814516979e+12", "optimal_length": "7", "subject": "A1JN13098RIE78"}
{"rt": "7902.0", "trial_number": "0", "skipped": "False", "complete": "True", "assignment": "3YW4XOSQKRTI0K0Z2YPDTDJVFABU1I", "start_time": "1.51683359108e+12", "human_length": "8", "nodes_expanded": "999", "instance": "prb14651", "end_time": "1.51683359898e+12", "optimal_length": "7", "subject": "A1LR0VQIHQUJAM"}
{"rt": "9341.0", "trial_number": "0", "skipped": "False", "complete": "True", "assignment": "31LM9EDVOM0C0BWUVMJXJINN3QPJNI", "start_time": "1.51752413863e+12", "human_length": "8", "nodes_expanded": "999", "instance": "prb14651", "end_time": "1.51752414798e+12", "optimal_length": "7", "subject": "A1NT8BT94ME6F5"}
{"rt": "29513.0", "trial_number": "0", "skipped": "False", "complete": "True", "assignment": "3M0BCWMB8W4W5M7WZVX3HDH1M3FBWL", "start_time": "1.51683903007e+12", "human_length": "13", "nodes_expanded": "999", "instance": "prb14651", "end_time": "1.51683905959e+12", "optimal_length": "7", "subject": "A1XDMS0KFSF5JW"}
{"rt": "24559.0", "trial_number": "0", "skipped": "False", "complete": "True", "assignment": "3XC1O3LBOTUGQEPEV3HM8W67X4RTLL", "start_time": "1.51813920436e+12", "human_length": "10", "nodes_expanded": "999", "instance": "prb14651", "end_time": "1.51813922892e+12", "optimal_length": "7", "subject": "A1ZTSCPETU3UJW"}
{"rt": "10799.0", "trial_number": "0", "skipped": "False", "complete": "True", "assignment": "34BBWHLWHBJ6SUL255PK30LEGY5IWG", "start_time": "1.51639425694e+12", "human_length": "10", "nodes_expanded": "999", "instance": "prb14651", "end_time": "1.51639426774e+12", "optimal_length": "7", "subject": "A214HWAW1PYWO8"}
{"rt": "0.0", "trial_number": "0", "skipped": "False", "complete": "False", "assignment": "3X87C8JFV7JQ2BSCY8KSFD9F2ILSQK", "start_time": "1.51674571263e+12", "human_length": "1", "nodes_expanded": "999", "instance": "prb14651", "end_time": "1.51674571263e+12", "optimal_length": "7", "subject": "A21S7MA9DCW95E"}
{"rt": "0.0", "trial_number": "1", "skipped": "False", "complete": "False", "assignment": "3X87C8JFV7JQ2BSCY8KSFD9F2ILSQK", "start_time": "1.51674571263e+12", "human_length": "1", "nodes_expanded": "999", "instance": "prb14651", "end_time": "1.51674571263e+12", "optimal_length": "7", "subject": "A21S7MA9DCW95E"}
{"rt": "15642.0", "trial_number": "2", "skipped": "False", "complete": "True", "assignment": "3X87C8JFV7JQ2BSCY8KSFD9F2ILSQK", "start_time": "1.51674571263e+12", "human_length": "10", "nodes_expanded": "999", "instance": "prb14651", "end_time": "1.51674572828e+12", "optimal_length": "7", "subject": "A21S7MA9DCW95E"}
{"rt": "15642.0", "trial_number": "0", "skipped": "False", "complete": "True", "assignment": "3X87C8JFV7JQ2BSCY8KSFD9F2ILSQK", "start_time": "1.51674571263e+12", "human_length": "10", "nodes_expanded": "999", "instance": "prb14651", "end_time": "1.51674572828e+12", "optimal_length": "7", "subject": "A21S7MA9DCW95E"}
{"rt": "0.0", "trial_number": "0", "skipped": "False", "complete": "False", "assignment": "3IHR8NYAM89M0EPM8U9LH53ZJDTP4U", "start_time": "1.51682516651e+12", "human_length": "1", "nodes_expanded": "999", "instance": "prb14651", "end_time": "1.51682516651e+12", "optimal_length": "7", "subject": "A23437BMZ5T1FH"}
{"rt": "18226.0", "trial_number": "1", "skipped": "False", "complete": "True", "assignment": "3IHR8NYAM89M0EPM8U9LH53ZJDTP4U", "start_time": "1.51682516651e+12", "human_length": "13", "nodes_expanded": "999", "instance": "prb14651", "end_time": "1.51682518474e+12", "optimal_length": "7", "subject": "A23437BMZ5T1FH"}
{"rt": "12117.0", "trial_number": "0", "skipped": "False", "complete": "True", "assignment": "30IQTZXKALEAAZ9CBKW0ZFZP6O5X07", "start_time": "1.51794664379e+12", "human_length": "10", "nodes_expanded": "999", "instance": "prb14651", "end_time": "1.51794665591e+12", "optimal_length": "7", "subject": "A23XJ8I86R0O3B"}
{"rt": "38302.0", "trial_number": "0", "skipped": "False", "complete": "True", "assignment": "3ZV9H2YQQEFR2R3JK2IXZUJPXAF3WW", "start_time": "1.51630670562e+12", "human_length": "12", "nodes_expanded": "999", "instance": "prb14651", "end_time": "1.51630674393e+12", "optimal_length": "7", "subject": "A289D98Z4GAZ28"}
{"rt": "8649.0", "trial_number": "0", "skipped": "False", "complete": "True", "assignment": "3SITXWYCNWHBUMCM90TPJWV8Y7AXBW", "start_time": "1.51816664696e+12", "human_length": "10", "nodes_expanded": "999", "instance": "prb14651", "end_time": "1.51816665561e+12", "optimal_length": "7", "subject": "A28RX7L0QZ993M"}
{"rt": "16950.0", "trial_number": "0", "skipped": "False", "complete": "True", "assignment": "3IAS3U3I0GOAT69PLB8WT61CKJ22BO", "start_time": "1.51793956319e+12", "human_length": "13", "nodes_expanded": "999", "instance": "prb14651", "end_time": "1.51793958014e+12", "optimal_length": "7", "subject": "A2C84POENS2UNY"}
{"rt": "19444.0", "trial_number": "0", "skipped": "False", "complete": "True", "assignment": "37WLF8U1WQYZ4AWKEQXSIM1ELVEK6W", "start_time": "1.516832036e+12", "human_length": "13", "nodes_expanded": "999", "instance": "prb14651", "end_time": "1.51683205544e+12", "optimal_length": "7", "subject": "A2EPBSY0VPI38S"}
{"rt": "16651.0", "trial_number": "0", "skipped": "False", "complete": "True", "assignment": "3TYCR1GOTDRCCQYD1V64UK7OE48LZS", "start_time": "1.51638953496e+12", "human_length": "8", "nodes_expanded": "999", "instance": "prb14651", "end_time": "1.51638955161e+12", "optimal_length": "7", "subject": "A2MYB6MLQW0IGN"}
{"rt": "12166.0", "trial_number": "0", "skipped": "False", "complete": "True", "assignment": "3FUI0JHJPY6UBT1VAI7VUX8S3KH33W", "start_time": "1.51815197974e+12", "human_length": "11", "nodes_expanded": "999", "instance": "prb14651", "end_time": "1.51815199191e+12", "optimal_length": "7", "subject": "A2QIZ31TMHU0GD"}
{"rt": "13608.0", "trial_number": "0", "skipped": "False", "complete": "True", "assignment": "3TAYZSBPLMG9ASQRWXURJVBCPLN2SH", "start_time": "1.51813806396e+12", "human_length": "10", "nodes_expanded": "999", "instance": "prb14651", "end_time": "1.51813807756e+12", "optimal_length": "7", "subject": "A2RCYLKY072XXO"}
{"rt": "0.0", "trial_number": "0", "skipped": "False", "complete": "False", "assignment": "3IJXV6UZ1YR1KY4G6BFEG1DXP7SRI1", "start_time": "1.51675238356e+12", "human_length": "1", "nodes_expanded": "999", "instance": "prb14651", "end_time": "1.51675238356e+12", "optimal_length": "7", "subject": "A2RTJ6BDY0DZVZ"}
{"rt": "0.0", "trial_number": "1", "skipped": "False", "complete": "False", "assignment": "3IJXV6UZ1YR1KY4G6BFEG1DXP7SRI1", "start_time": "1.51675238356e+12", "human_length": "1", "nodes_expanded": "999", "instance": "prb14651", "end_time": "1.51675238356e+12", "optimal_length": "7", "subject": "A2RTJ6BDY0DZVZ"}
{"rt": "7694.0", "trial_number": "2", "skipped": "False", "complete": "True", "assignment": "3IJXV6UZ1YR1KY4G6BFEG1DXP7SRI1", "start_time": "1.51675238356e+12", "human_length": "8", "nodes_expanded": "999", "instance": "prb14651", "end_time": "1.51675239126e+12", "optimal_length": "7", "subject": "A2RTJ6BDY0DZVZ"}
{"rt": "7694.0", "trial_number": "0", "skipped": "False", "complete": "True", "assignment": "3IJXV6UZ1YR1KY4G6BFEG1DXP7SRI1", "start_time": "1.51675238356e+12", "human_length": "8", "nodes_expanded": "999", "instance": "prb14651", "end_time": "1.51675239126e+12", "optimal_length": "7", "subject": "A2RTJ6BDY0DZVZ"}
{"rt": "0.0", "trial_number": "0", "skipped": "False", "complete": "False", "assignment": "3WSELTNVR4AZUVYAYCSWZIQW0J4ATB", "start_time": "1.51673777558e+12", "human_length": "1", "nodes_expanded": "999", "instance": "prb14651", "end_time": "1.51673777558e+12", "optimal_length": "7", "subject": "A2TQNX64349OZ9"}
{"rt": "0.0", "trial_number": "1", "skipped": "False", "complete": "False", "assignment": "3WSELTNVR4AZUVYAYCSWZIQW0J4ATB", "start_time": "1.51673777558e+12", "human_length": "1", "nodes_expanded": "999", "instance": "prb14651", "end_time": "1.51673777558e+12", "optimal_length": "7", "subject": "A2TQNX64349OZ9"}
{"rt": "27489.0", "trial_number": "2", "skipped": "False", "complete": "True", "assignment": "3WSELTNVR4AZUVYAYCSWZIQW0J4ATB", "start_time": "1.51673777558e+12", "human_length": "15", "nodes_expanded": "999", "instance": "prb14651", "end_time": "1.51673780307e+12", "optimal_length": "7", "subject": "A2TQNX64349OZ9"}
{"rt": "27489.0", "trial_number": "0", "skipped": "False", "complete": "True", "assignment": "3WSELTNVR4AZUVYAYCSWZIQW0J4ATB", "start_time": "1.51673777558e+12", "human_length": "15", "nodes_expanded": "999", "instance": "prb14651", "end_time": "1.51673780307e+12", "optimal_length": "7", "subject": "A2TQNX64349OZ9"}
{"rt": "29881.0", "trial_number": "0", "skipped": "False", "complete": "True", "assignment": "3JCG6DTRV4YEPVDZ64VNKDUEMPGQQ1", "start_time": "1.51794771427e+12", "human_length": "8", "nodes_expanded": "999", "instance": "prb14651", "end_time": "1.51794774415e+12", "optimal_length": "7", "subject": "A2V7KYLBCBTI3B"}
{"rt": "0.0", "trial_number": "0", "skipped": "False", "complete": "False", "assignment": "3EWIJTFFVPF14ZIVGF68BQEIRXP0ER", "start_time": "1.51814933106e+12", "human_length": "1", "nodes_expanded": "999", "instance": "prb14651", "end_time": "1.51814933106e+12", "optimal_length": "7", "subject": "A30AGR5KF8IEL"}
{"rt": "5522.0", "trial_number": "1", "skipped": "False", "complete": "False", "assignment": "3EWIJTFFVPF14ZIVGF68BQEIRXP0ER", "start_time": "1.51814933149e+12", "human_length": "2", "nodes_expanded": "999", "instance": "prb14651", "end_time": "1.51814933701e+12", "optimal_length": "7", "subject": "A30AGR5KF8IEL"}
{"rt": "21452.0", "trial_number": "2", "skipped": "False", "complete": "True", "assignment": "3EWIJTFFVPF14ZIVGF68BQEIRXP0ER", "start_time": "1.51814935798e+12", "human_length": "7", "nodes_expanded": "999", "instance": "prb14651", "end_time": "1.51814937944e+12", "optimal_length": "7", "subject": "A30AGR5KF8IEL"}
{"rt": "10103.0", "trial_number": "0", "skipped": "False", "complete": "True", "assignment": "37TD41K0AIHM8AITTQJXV8KY05QCSB", "start_time": "1.51752366147e+12", "human_length": "7", "nodes_expanded": "999", "instance": "prb14651", "end_time": "1.51752367157e+12", "optimal_length": "7", "subject": "A30KYQGABO7JER"}
{"rt": "8577.0", "trial_number": "0", "skipped": "False", "complete": "True", "assignment": "34HJIJKLP64Z5YMIU6IKNXSH7PDV4I", "start_time": "1.51794244365e+12", "human_length": "8", "nodes_expanded": "999", "instance": "prb14651", "end_time": "1.51794245223e+12", "optimal_length": "7", "subject": "A3CTXNQ2GXIQSP"}
{"rt": "12620.0", "trial_number": "0", "skipped": "False", "complete": "True", "assignment": "3TMFV4NEP9MD3O9PWJDTQBR0HZYW8I", "start_time": "1.51814478954e+12", "human_length": "10", "nodes_expanded": "999", "instance": "prb14651", "end_time": "1.51814480216e+12", "optimal_length": "7", "subject": "A3GOOI75XOF24V"}
{"rt": "8488.0", "trial_number": "0", "skipped": "False", "complete": "True", "assignment": "3TPWUS5F8A9FFRZ2DVTYSXNJ6BWWC6", "start_time": "1.51794173488e+12", "human_length": "7", "nodes_expanded": "999", "instance": "prb14651", "end_time": "1.51794174337e+12", "optimal_length": "7", "subject": "A3GXC3VG37CQ3G"}
{"rt": "76293.0", "trial_number": "0", "skipped": "False", "complete": "True", "assignment": "3V5Q80FXIYZ5QB5C6ITQBN30WY823U", "start_time": "1.51753429145e+12", "human_length": "15", "nodes_expanded": "999", "instance": "prb14651", "end_time": "1.51753436774e+12", "optimal_length": "7", "subject": "A3NMQ3019X6YE0"}
{"rt": "76293.0", "trial_number": "0", "skipped": "False", "complete": "True", "assignment": "3V5Q80FXIYZ5QB5C6ITQBN30WY823U", "start_time": "1.51753429145e+12", "human_length": "15", "nodes_expanded": "999", "instance": "prb14651", "end_time": "1.51753436774e+12", "optimal_length": "7", "subject": "A3NMQ3019X6YE0"}
{"rt": "0.0", "trial_number": "0", "skipped": "False", "complete": "False", "assignment": "3X87C8JFV7JQ2BSCY8KSFD9F2ILSQK", "start_time": "1.51673900327e+12", "human_length": "1", "nodes_expanded": "999", "instance": "prb14651", "end_time": "1.51673900327e+12", "optimal_length": "7", "subject": "A3Q0XAGQ7TD7MP"}
{"rt": "0.0", "trial_number": "1", "skipped": "False", "complete": "False", "assignment": "3X87C8JFV7JQ2BSCY8KSFD9F2ILSQK", "start_time": "1.51673900327e+12", "human_length": "1", "nodes_expanded": "999", "instance": "prb14651", "end_time": "1.51673900327e+12", "optimal_length": "7", "subject": "A3Q0XAGQ7TD7MP"}
{"rt": "9598.0", "trial_number": "2", "skipped": "False", "complete": "True", "assignment": "3X87C8JFV7JQ2BSCY8KSFD9F2ILSQK", "start_time": "1.51673900327e+12", "human_length": "7", "nodes_expanded": "999", "instance": "prb14651", "end_time": "1.51673901286e+12", "optimal_length": "7", "subject": "A3Q0XAGQ7TD7MP"}
{"rt": "10278.0", "trial_number": "3", "skipped": "False", "complete": "True", "assignment": "3GLB5JMZFY3TNXFGYMKRQ0JDXNTDGZ", "start_time": "1.51794696072e+12", "human_length": "7", "nodes_expanded": "999", "instance": "prb14651", "end_time": "1.51794697099e+12", "optimal_length": "7", "subject": "A3Q0XAGQ7TD7MP"}
{"rt": "9598.0", "trial_number": "0", "skipped": "False", "complete": "True", "assignment": "3X87C8JFV7JQ2BSCY8KSFD9F2ILSQK", "start_time": "1.51673900327e+12", "human_length": "7", "nodes_expanded": "999", "instance": "prb14651", "end_time": "1.51673901286e+12", "optimal_length": "7", "subject": "A3Q0XAGQ7TD7MP"}
{"rt": "10278.0", "trial_number": "1", "skipped": "False", "complete": "True", "assignment": "3GLB5JMZFY3TNXFGYMKRQ0JDXNTDGZ", "start_time": "1.51794696072e+12", "human_length": "7", "nodes_expanded": "999", "instance": "prb14651", "end_time": "1.51794697099e+12", "optimal_length": "7", "subject": "A3Q0XAGQ7TD7MP"}
{"rt": "11012.0", "trial_number": "0", "skipped": "False", "complete": "True", "assignment": "3M0BCWMB8W4W5M7WZVX3HDH1P53WB1", "start_time": "1.51816056569e+12", "human_length": "7", "nodes_expanded": "999", "instance": "prb14651", "end_time": "1.5181605767e+12", "optimal_length": "7", "subject": "A53S7J4JGWG38"}
{"rt": "7410.0", "trial_number": "0", "skipped": "False", "complete": "True", "assignment": "3IXEICO793RY7TM78ZBKJDOA7ADT6Q", "start_time": "1.51816928420e+12", "human_length": "8", "nodes_expanded": "999", "instance": "prb14651", "end_time": "1.51816929162e+12", "optimal_length": "7", "subject": "ALH1K6ZAQQMN7"}
{"rt": "40243.0", "trial_number": "0", "skipped": "False", "complete": "True", "assignment": "37QW5D2ZRHUKW7SGCE3STMOFBMK8SX", "start_time": "1.51815862986e+12", "human_length": "13", "nodes_expanded": "999", "instance": "prb14651", "end_time": "1.5181586701e+12", "optimal_length": "7", "subject": "AMW2XLD9443OH"}
{"rt": "22741.0", "trial_number": "0", "skipped": "False", "complete": "True", "assignment": "3HWRJOOET6A15827PHPSLWK1MOYSEU", "start_time": "1.51814400832e+12", "human_length": "14", "nodes_expanded": "999", "instance": "prb14651", "end_time": "1.51814403106e+12", "optimal_length": "7", "subject": "AO1QGAUZ85T6L"}
{"rt": "13439.0", "trial_number": "0", "skipped": "False", "complete": "True", "assignment": "33PPO7FECWN7JOLBOAKUBCWTC0AIDL", "start_time": "1.5179483867e+12", "human_length": "9", "nodes_expanded": "999", "instance": "prb14651", "end_time": "1.51794840014e+12", "optimal_length": "7", "subject": "AXKM02NVXNGOM"}
