{"rt": "29724.0", "trial_number": "0", "skipped": "True", "complete": "False", "assignment": "3TYCR1GOTDRCCQYD1V64UK7OHTBZLQ", "start_time": "1.51753707727e+12", "human_length": "25", "nodes_expanded": "999", "instance": "prb10166", "end_time": "1.51753710699e+12", "optimal_length": "16", "subject": "A13BZCNJ0WR1T7"}
{"rt": "23015.0", "trial_number": "0", "skipped": "False", "complete": "True", "assignment": "3TS1AR6UQRM7SOIBWPBN8N9589Y7FV", "start_time": "1.51684349601e+12", "human_length": "23", "nodes_expanded": "999", "instance": "prb10166", "end_time": "1.51684351902e+12", "optimal_length": "16", "subject": "A15FXHC1CVNW31"}
{"rt": "0.0", "trial_number": "0", "skipped": "False", "complete": "False", "assignment": "3VE8AYVF8N5BS2NU6U3TMN50JMNF8V", "start_time": "1.51673769783e+12", "human_length": "1", "nodes_expanded": "999", "instance": "prb10166", "end_time": "1.51673769783e+12", "optimal_length": "16", "subject": "A18QU0YQB6Q8DF"}
{"rt": "0.0", "trial_number": "1", "skipped": "False", "complete": "False", "assignment": "3VE8AYVF8N5BS2NU6U3TMN50JMNF8V", "start_time": "1.51673769783e+12", "human_length": "1", "nodes_expanded": "999", "instance": "prb10166", "end_time": "1.51673769783e+12", "optimal_length": "16", "subject": "A18QU0YQB6Q8DF"}
{"rt": "44700.0", "trial_number": "2", "skipped": "True", "complete": "False", "assignment": "3VE8AYVF8N5BS2NU6U3TMN50JMNF8V", "start_time": "1.51673769783e+12", "human_length": "42", "nodes_expanded": "999", "instance": "prb10166", "end_time": "1.51673774253e+12", "optimal_length": "16", "subject": "A18QU0YQB6Q8DF"}
{"rt": "44700.0", "trial_number": "0", "skipped": "True", "complete": "False", "assignment": "3VE8AYVF8N5BS2NU6U3TMN50JMNF8V", "start_time": "1.51673769783e+12", "human_length": "18", "nodes_expanded": "999", "instance": "prb10166", "end_time": "1.51673774253e+12", "optimal_length": "16", "subject": "A18QU0YQB6Q8DF"}
{"rt": "24042.0", "trial_number": "0", "skipped": "False", "complete": "True", "assignment": "3IJXV6UZ1YR1KY4G6BFEG1DXR47RIC", "start_time": "1.51797177575e+12", "human_length": "23", "nodes_expanded": "999", "instance": "prb10166", "end_time": "1.51797179979e+12", "optimal_length": "16", "subject": "A18T3WK7J16C1B"}
{"rt": "27235.0", "trial_number": "0", "skipped": "False", "complete": "True", "assignment": "3PMBY0YE28B43VMUKKJ6EDF85RV9C8", "start_time": "1.51638694028e+12", "human_length": "26", "nodes_expanded": "999", "instance": "prb10166", "end_time": "1.51638696751e+12", "optimal_length": "16", "subject": "A191V7PT3DQKDP"}
{"rt": "88273.0", "trial_number": "0", "skipped": "True", "complete": "False", "assignment": "3H0W84IWBLAP4T2UASPNVMF5ZH7ER9", "start_time": "1.51755318975e+12", "human_length": "57", "nodes_expanded": "999", "instance": "prb10166", "end_time": "1.51755327803e+12", "optimal_length": "16", "subject": "A1AKX1C8GCVCTP"}
{"rt": "42829.0", "trial_number": "0", "skipped": "False", "complete": "True", "assignment": "3ZSANO2JCGFTBM23KS9Y3E51YP4FSQ", "start_time": "1.51814307791e+12", "human_length": "39", "nodes_expanded": "999", "instance": "prb10166", "end_time": "1.51814312074e+12", "optimal_length": "16", "subject": "A1F42D4L22K5ND"}
{"rt": "86436.0", "trial_number": "0", "skipped": "False", "complete": "False", "assignment": "3TS1AR6UQRM7SOIBWPBN8N9589Y7FV", "start_time": "1.51683757075e+12", "human_length": "59", "nodes_expanded": "999", "instance": "prb10166", "end_time": "1.51683765719e+12", "optimal_length": "16", "subject": "A1F4N58CAX8IMK"}
{"rt": "104991.0", "trial_number": "1", "skipped": "False", "complete": "True", "assignment": "35DR22AR5ES6RR89U7EJ1DXW91AX3P", "start_time": "1.51795297044e+12", "human_length": "92", "nodes_expanded": "999", "instance": "prb10166", "end_time": "1.51795307543e+12", "optimal_length": "16", "subject": "A1F4N58CAX8IMK"}
{"rt": "177104.0", "trial_number": "0", "skipped": "True", "complete": "False", "assignment": "33F859I567LE8WC74WB3GA7E94XBHW", "start_time": "1.51796805381e+12", "human_length": "107", "nodes_expanded": "999", "instance": "prb10166", "end_time": "1.51796823091e+12", "optimal_length": "16", "subject": "A1GQS6USF2JEYG"}
{"rt": "44250.0", "trial_number": "0", "skipped": "False", "complete": "True", "assignment": "3XLBSAQ9Z5KDX59BX15UBFPNNHYZ7Q", "start_time": "1.51814692611e+12", "human_length": "40", "nodes_expanded": "999", "instance": "prb10166", "end_time": "1.51814697036e+12", "optimal_length": "16", "subject": "A1HFNOKU591WCY"}
{"rt": "132245.0", "trial_number": "0", "skipped": "False", "complete": "False", "assignment": "3FTF2T8WLSQDHTSZ1BJ7Q7MB14SW9H", "start_time": "1.51813764383e+12", "human_length": "86", "nodes_expanded": "999", "instance": "prb10166", "end_time": "1.51813777607e+12", "optimal_length": "16", "subject": "A1IUH9D7N69VS"}
{"rt": "0.0", "trial_number": "1", "skipped": "False", "complete": "False", "assignment": "3FTF2T8WLSQDHTSZ1BJ7Q7MB14SW9H", "start_time": "1.51813782539e+12", "human_length": "1", "nodes_expanded": "999", "instance": "prb10166", "end_time": "1.51813782539e+12", "optimal_length": "16", "subject": "A1IUH9D7N69VS"}
{"rt": "1888.0", "trial_number": "2", "skipped": "False", "complete": "False", "assignment": "3FTF2T8WLSQDHTSZ1BJ7Q7MB14SW9H", "start_time": "1.51813782796e+12", "human_length": "2", "nodes_expanded": "999", "instance": "prb10166", "end_time": "1.51813782984e+12", "optimal_length": "16", "subject": "A1IUH9D7N69VS"}
{"rt": "1912.0", "trial_number": "3", "skipped": "False", "complete": "False", "assignment": "3FTF2T8WLSQDHTSZ1BJ7Q7MB14SW9H", "start_time": "1.51813783018e+12", "human_length": "2", "nodes_expanded": "999", "instance": "prb10166", "end_time": "1.51813783209e+12", "optimal_length": "16", "subject": "A1IUH9D7N69VS"}
{"rt": "60547.0", "trial_number": "4", "skipped": "False", "complete": "True", "assignment": "3FTF2T8WLSQDHTSZ1BJ7Q7MB14SW9H", "start_time": "1.51813783571e+12", "human_length": "42", "nodes_expanded": "999", "instance": "prb10166", "end_time": "1.51813789626e+12", "optimal_length": "16", "subject": "A1IUH9D7N69VS"}
{"rt": "49642.0", "trial_number": "0", "skipped": "True", "complete": "False", "assignment": "3VE8AYVF8N5BS2NU6U3TMN50MV38FP", "start_time": "1.51814483908e+12", "human_length": "20", "nodes_expanded": "999", "instance": "prb10166", "end_time": "1.51814488873e+12", "optimal_length": "16", "subject": "A1JN13098RIE78"}
{"rt": "68004.0", "trial_number": "0", "skipped": "False", "complete": "True", "assignment": "3YW4XOSQKRTI0K0Z2YPDTDJVFABU1I", "start_time": "1.51683191334e+12", "human_length": "48", "nodes_expanded": "999", "instance": "prb10166", "end_time": "1.51683198134e+12", "optimal_length": "16", "subject": "A1LR0VQIHQUJAM"}
{"rt": "201079.0", "trial_number": "0", "skipped": "True", "complete": "False", "assignment": "3R5F3LQFV3SKIB1AENMWM1BICT5OZB", "start_time": "1.51795725355e+12", "human_length": "119", "nodes_expanded": "999", "instance": "prb10166", "end_time": "1.51795745463e+12", "optimal_length": "16", "subject": "A1N1EF0MIRSEZZ"}
{"rt": "183938.0", "trial_number": "0", "skipped": "True", "complete": "False", "assignment": "31LM9EDVOM0C0BWUVMJXJINN3QPJNI", "start_time": "1.51752520116e+12", "human_length": "7", "nodes_expanded": "999", "instance": "prb10166", "end_time": "1.5175253851e+12", "optimal_length": "16", "subject": "A1NT8BT94ME6F5"}
{"rt": "103329.0", "trial_number": "0", "skipped": "False", "complete": "True", "assignment": "3PB5A5BD0WED6OE679H5Q89HBDGG71", "start_time": "1.51795283466e+12", "human_length": "72", "nodes_expanded": "999", "instance": "prb10166", "end_time": "1.51795293799e+12", "optimal_length": "16", "subject": "A1USR9JCAMDGM3"}
{"rt": "156459.0", "trial_number": "0", "skipped": "True", "complete": "False", "assignment": "3XC1O3LBOTUGQEPEV3HM8W67X4RTLL", "start_time": "1.51813691288e+12", "human_length": "70", "nodes_expanded": "999", "instance": "prb10166", "end_time": "1.51813706934e+12", "optimal_length": "16", "subject": "A1ZTSCPETU3UJW"}
{"rt": "30333.0", "trial_number": "0", "skipped": "False", "complete": "False", "assignment": "34BBWHLWHBJ6SUL255PK30LEGY5IWG", "start_time": "1.51639245269e+12", "human_length": "24", "nodes_expanded": "999", "instance": "prb10166", "end_time": "1.51639248303e+12", "optimal_length": "16", "subject": "A214HWAW1PYWO8"}
{"rt": "96476.0", "trial_number": "1", "skipped": "False", "complete": "False", "assignment": "34BBWHLWHBJ6SUL255PK30LEGY5IWG", "start_time": "1.51639248391e+12", "human_length": "40", "nodes_expanded": "999", "instance": "prb10166", "end_time": "1.51639258038e+12", "optimal_length": "16", "subject": "A214HWAW1PYWO8"}
{"rt": "0.0", "trial_number": "2", "skipped": "False", "complete": "False", "assignment": "34BBWHLWHBJ6SUL255PK30LEGY5IWG", "start_time": "1.51639258218e+12", "human_length": "1", "nodes_expanded": "999", "instance": "prb10166", "end_time": "1.51639258218e+12", "optimal_length": "16", "subject": "A214HWAW1PYWO8"}
{"rt": "0.0", "trial_number": "3", "skipped": "False", "complete": "False", "assignment": "34BBWHLWHBJ6SUL255PK30LEGY5IWG", "start_time": "1.51639259928e+12", "human_length": "1", "nodes_expanded": "999", "instance": "prb10166", "end_time": "1.51639259928e+12", "optimal_length": "16", "subject": "A214HWAW1PYWO8"}
{"rt": "0.0", "trial_number": "4", "skipped": "False", "complete": "False", "assignment": "34BBWHLWHBJ6SUL255PK30LEGY5IWG", "start_time": "1.5163926003e+12", "human_length": "1", "nodes_expanded": "999", "instance": "prb10166", "end_time": "1.5163926003e+12", "optimal_length": "16", "subject": "A214HWAW1PYWO8"}
{"rt": "0.0", "trial_number": "5", "skipped": "False", "complete": "False", "assignment": "34BBWHLWHBJ6SUL255PK30LEGY5IWG", "start_time": "1.51639260095e+12", "human_length": "1", "nodes_expanded": "999", "instance": "prb10166", "end_time": "1.51639260095e+12", "optimal_length": "16", "subject": "A214HWAW1PYWO8"}
{"rt": "0.0", "trial_number": "6", "skipped": "False", "complete": "False", "assignment": "34BBWHLWHBJ6SUL255PK30LEGY5IWG", "start_time": "1.51639260107e+12", "human_length": "1", "nodes_expanded": "999", "instance": "prb10166", "end_time": "1.51639260107e+12", "optimal_length": "16", "subject": "A214HWAW1PYWO8"}
{"rt": "0.0", "trial_number": "7", "skipped": "False", "complete": "False", "assignment": "34BBWHLWHBJ6SUL255PK30LEGY5IWG", "start_time": "1.5163926014e+12", "human_length": "1", "nodes_expanded": "999", "instance": "prb10166", "end_time": "1.5163926014e+12", "optimal_length": "16", "subject": "A214HWAW1PYWO8"}
{"rt": "0.0", "trial_number": "8", "skipped": "False", "complete": "False", "assignment": "34BBWHLWHBJ6SUL255PK30LEGY5IWG", "start_time": "1.51639260156e+12", "human_length": "1", "nodes_expanded": "999", "instance": "prb10166", "end_time": "1.51639260156e+12", "optimal_length": "16", "subject": "A214HWAW1PYWO8"}
{"rt": "0.0", "trial_number": "9", "skipped": "False", "complete": "False", "assignment": "34BBWHLWHBJ6SUL255PK30LEGY5IWG", "start_time": "1.51639260193e+12", "human_length": "1", "nodes_expanded": "999", "instance": "prb10166", "end_time": "1.51639260193e+12", "optimal_length": "16", "subject": "A214HWAW1PYWO8"}
{"rt": "0.0", "trial_number": "10", "skipped": "False", "complete": "False", "assignment": "34BBWHLWHBJ6SUL255PK30LEGY5IWG", "start_time": "1.51639260601e+12", "human_length": "1", "nodes_expanded": "999", "instance": "prb10166", "end_time": "1.51639260601e+12", "optimal_length": "16", "subject": "A214HWAW1PYWO8"}
{"rt": "0.0", "trial_number": "11", "skipped": "False", "complete": "False", "assignment": "34BBWHLWHBJ6SUL255PK30LEGY5IWG", "start_time": "1.51639260647e+12", "human_length": "1", "nodes_expanded": "999", "instance": "prb10166", "end_time": "1.51639260647e+12", "optimal_length": "16", "subject": "A214HWAW1PYWO8"}
{"rt": "0.0", "trial_number": "12", "skipped": "False", "complete": "False", "assignment": "34BBWHLWHBJ6SUL255PK30LEGY5IWG", "start_time": "1.51639260662e+12", "human_length": "1", "nodes_expanded": "999", "instance": "prb10166", "end_time": "1.51639260662e+12", "optimal_length": "16", "subject": "A214HWAW1PYWO8"}
{"rt": "0.0", "trial_number": "13", "skipped": "False", "complete": "False", "assignment": "34BBWHLWHBJ6SUL255PK30LEGY5IWG", "start_time": "1.51639260756e+12", "human_length": "1", "nodes_expanded": "999", "instance": "prb10166", "end_time": "1.51639260756e+12", "optimal_length": "16", "subject": "A214HWAW1PYWO8"}
{"rt": "0.0", "trial_number": "14", "skipped": "False", "complete": "False", "assignment": "34BBWHLWHBJ6SUL255PK30LEGY5IWG", "start_time": "1.51639260771e+12", "human_length": "1", "nodes_expanded": "999", "instance": "prb10166", "end_time": "1.51639260771e+12", "optimal_length": "16", "subject": "A214HWAW1PYWO8"}
{"rt": "0.0", "trial_number": "15", "skipped": "False", "complete": "False", "assignment": "34BBWHLWHBJ6SUL255PK30LEGY5IWG", "start_time": "1.51639260858e+12", "human_length": "1", "nodes_expanded": "999", "instance": "prb10166", "end_time": "1.51639260858e+12", "optimal_length": "16", "subject": "A214HWAW1PYWO8"}
{"rt": "6852.0", "trial_number": "16", "skipped": "False", "complete": "False", "assignment": "34BBWHLWHBJ6SUL255PK30LEGY5IWG", "start_time": "1.51639260872e+12", "human_length": "10", "nodes_expanded": "999", "instance": "prb10166", "end_time": "1.51639261558e+12", "optimal_length": "16", "subject": "A214HWAW1PYWO8"}
{"rt": "13584.0", "trial_number": "17", "skipped": "True", "complete": "False", "assignment": "34BBWHLWHBJ6SUL255PK30LEGY5IWG", "start_time": "1.51639261661e+12", "human_length": "9", "nodes_expanded": "999", "instance": "prb10166", "end_time": "1.5163926302e+12", "optimal_length": "16", "subject": "A214HWAW1PYWO8"}
{"rt": "11517.0", "trial_number": "0", "skipped": "False", "complete": "False", "assignment": "3X87C8JFV7JQ2BSCY8KSFD9F2ILSQK", "start_time": "1.51674491867e+12", "human_length": "4", "nodes_expanded": "999", "instance": "prb10166", "end_time": "1.51674493019e+12", "optimal_length": "16", "subject": "A21S7MA9DCW95E"}
{"rt": "14220.0", "trial_number": "1", "skipped": "False", "complete": "False", "assignment": "3X87C8JFV7JQ2BSCY8KSFD9F2ILSQK", "start_time": "1.51674493333e+12", "human_length": "5", "nodes_expanded": "999", "instance": "prb10166", "end_time": "1.51674494755e+12", "optimal_length": "16", "subject": "A21S7MA9DCW95E"}
{"rt": "24102.0", "trial_number": "2", "skipped": "False", "complete": "False", "assignment": "3X87C8JFV7JQ2BSCY8KSFD9F2ILSQK", "start_time": "1.51674495037e+12", "human_length": "12", "nodes_expanded": "999", "instance": "prb10166", "end_time": "1.51674497447e+12", "optimal_length": "16", "subject": "A21S7MA9DCW95E"}
{"rt": "0.0", "trial_number": "3", "skipped": "False", "complete": "False", "assignment": "3X87C8JFV7JQ2BSCY8KSFD9F2ILSQK", "start_time": "1.51674497888e+12", "human_length": "1", "nodes_expanded": "999", "instance": "prb10166", "end_time": "1.51674497888e+12", "optimal_length": "16", "subject": "A21S7MA9DCW95E"}
{"rt": "0.0", "trial_number": "4", "skipped": "False", "complete": "False", "assignment": "3X87C8JFV7JQ2BSCY8KSFD9F2ILSQK", "start_time": "1.51674491867e+12", "human_length": "1", "nodes_expanded": "999", "instance": "prb10166", "end_time": "1.51674491867e+12", "optimal_length": "16", "subject": "A21S7MA9DCW95E"}
{"rt": "0.0", "trial_number": "5", "skipped": "False", "complete": "False", "assignment": "3X87C8JFV7JQ2BSCY8KSFD9F2ILSQK", "start_time": "1.51674493333e+12", "human_length": "1", "nodes_expanded": "999", "instance": "prb10166", "end_time": "1.51674493333e+12", "optimal_length": "16", "subject": "A21S7MA9DCW95E"}
{"rt": "0.0", "trial_number": "6", "skipped": "False", "complete": "False", "assignment": "3X87C8JFV7JQ2BSCY8KSFD9F2ILSQK", "start_time": "1.51674495037e+12", "human_length": "1", "nodes_expanded": "999", "instance": "prb10166", "end_time": "1.51674495037e+12", "optimal_length": "16", "subject": "A21S7MA9DCW95E"}
{"rt": "0.0", "trial_number": "7", "skipped": "False", "complete": "False", "assignment": "3X87C8JFV7JQ2BSCY8KSFD9F2ILSQK", "start_time": "1.51674497888e+12", "human_length": "1", "nodes_expanded": "999", "instance": "prb10166", "end_time": "1.51674497888e+12", "optimal_length": "16", "subject": "A21S7MA9DCW95E"}
{"rt": "0.0", "trial_number": "8", "skipped": "False", "complete": "False", "assignment": "3X87C8JFV7JQ2BSCY8KSFD9F2ILSQK", "start_time": "1.51674491867e+12", "human_length": "1", "nodes_expanded": "999", "instance": "prb10166", "end_time": "1.51674491867e+12", "optimal_length": "16", "subject": "A21S7MA9DCW95E"}
{"rt": "0.0", "trial_number": "9", "skipped": "False", "complete": "False", "assignment": "3X87C8JFV7JQ2BSCY8KSFD9F2ILSQK", "start_time": "1.51674493333e+12", "human_length": "1", "nodes_expanded": "999", "instance": "prb10166", "end_time": "1.51674493333e+12", "optimal_length": "16", "subject": "A21S7MA9DCW95E"}
{"rt": "0.0", "trial_number": "10", "skipped": "False", "complete": "False", "assignment": "3X87C8JFV7JQ2BSCY8KSFD9F2ILSQK", "start_time": "1.51674495037e+12", "human_length": "1", "nodes_expanded": "999", "instance": "prb10166", "end_time": "1.51674495037e+12", "optimal_length": "16", "subject": "A21S7MA9DCW95E"}
{"rt": "48849.0", "trial_number": "11", "skipped": "False", "complete": "True", "assignment": "3X87C8JFV7JQ2BSCY8KSFD9F2ILSQK", "start_time": "1.51674497888e+12", "human_length": "22", "nodes_expanded": "999", "instance": "prb10166", "end_time": "1.51674502773e+12", "optimal_length": "16", "subject": "A21S7MA9DCW95E"}
{"rt": "11517.0", "trial_number": "0", "skipped": "False", "complete": "False", "assignment": "3X87C8JFV7JQ2BSCY8KSFD9F2ILSQK", "start_time": "1.51674491867e+12", "human_length": "4", "nodes_expanded": "999", "instance": "prb10166", "end_time": "1.51674493019e+12", "optimal_length": "16", "subject": "A21S7MA9DCW95E"}
{"rt": "14220.0", "trial_number": "1", "skipped": "False", "complete": "False", "assignment": "3X87C8JFV7JQ2BSCY8KSFD9F2ILSQK", "start_time": "1.51674493333e+12", "human_length": "5", "nodes_expanded": "999", "instance": "prb10166", "end_time": "1.51674494755e+12", "optimal_length": "16", "subject": "A21S7MA9DCW95E"}
{"rt": "24102.0", "trial_number": "2", "skipped": "False", "complete": "False", "assignment": "3X87C8JFV7JQ2BSCY8KSFD9F2ILSQK", "start_time": "1.51674495037e+12", "human_length": "12", "nodes_expanded": "999", "instance": "prb10166", "end_time": "1.51674497447e+12", "optimal_length": "16", "subject": "A21S7MA9DCW95E"}
{"rt": "48849.0", "trial_number": "3", "skipped": "False", "complete": "True", "assignment": "3X87C8JFV7JQ2BSCY8KSFD9F2ILSQK", "start_time": "1.51674497888e+12", "human_length": "22", "nodes_expanded": "999", "instance": "prb10166", "end_time": "1.51674502773e+12", "optimal_length": "16", "subject": "A21S7MA9DCW95E"}
{"rt": "0.0", "trial_number": "0", "skipped": "False", "complete": "False", "assignment": "3IHR8NYAM89M0EPM8U9LH53ZJDTP4U", "start_time": "1.51682736569e+12", "human_length": "1", "nodes_expanded": "999", "instance": "prb10166", "end_time": "1.51682736569e+12", "optimal_length": "16", "subject": "A23437BMZ5T1FH"}
{"rt": "52276.0", "trial_number": "1", "skipped": "True", "complete": "False", "assignment": "3IHR8NYAM89M0EPM8U9LH53ZJDTP4U", "start_time": "1.51682736569e+12", "human_length": "90", "nodes_expanded": "999", "instance": "prb10166", "end_time": "1.51682741797e+12", "optimal_length": "16", "subject": "A23437BMZ5T1FH"}
{"rt": "147083.0", "trial_number": "0", "skipped": "True", "complete": "False", "assignment": "30IQTZXKALEAAZ9CBKW0ZFZP6O5X07", "start_time": "1.5179459529e+12", "human_length": "68", "nodes_expanded": "999", "instance": "prb10166", "end_time": "1.51794609998e+12", "optimal_length": "16", "subject": "A23XJ8I86R0O3B"}
{"rt": "94077.0", "trial_number": "0", "skipped": "False", "complete": "True", "assignment": "3ZV9H2YQQEFR2R3JK2IXZUJPXAF3WW", "start_time": "1.51630619842e+12", "human_length": "28", "nodes_expanded": "999", "instance": "prb10166", "end_time": "1.5163062925e+12", "optimal_length": "16", "subject": "A289D98Z4GAZ28"}
{"rt": "82078.0", "trial_number": "0", "skipped": "True", "complete": "False", "assignment": "3TVSS0C0E28W181DZHOOH7NNVBXWTJ", "start_time": "1.51813940281e+12", "human_length": "85", "nodes_expanded": "999", "instance": "prb10166", "end_time": "1.51813948489e+12", "optimal_length": "16", "subject": "A2F2DDH12YU4AK"}
{"rt": "0.0", "trial_number": "0", "skipped": "False", "complete": "False", "assignment": "3X4MXAO0BHWJLTOLVSJTHSM54OHWRG", "start_time": "1.51682369926e+12", "human_length": "1", "nodes_expanded": "999", "instance": "prb10166", "end_time": "1.51682369926e+12", "optimal_length": "16", "subject": "A2IBQA01NR5N76"}
{"rt": "90797.0", "trial_number": "1", "skipped": "False", "complete": "True", "assignment": "3X4MXAO0BHWJLTOLVSJTHSM54OHWRG", "start_time": "1.51682369926e+12", "human_length": "60", "nodes_expanded": "999", "instance": "prb10166", "end_time": "1.51682379006e+12", "optimal_length": "16", "subject": "A2IBQA01NR5N76"}
{"rt": "90797.0", "trial_number": "0", "skipped": "False", "complete": "True", "assignment": "3X4MXAO0BHWJLTOLVSJTHSM54OHWRG", "start_time": "1.51682369926e+12", "human_length": "60", "nodes_expanded": "999", "instance": "prb10166", "end_time": "1.51682379006e+12", "optimal_length": "16", "subject": "A2IBQA01NR5N76"}
{"rt": "358520.0", "trial_number": "0", "skipped": "False", "complete": "True", "assignment": "3FUI0JHJPY6UBT1VAI7VUX8S3KH33W", "start_time": "1.51814960359e+12", "human_length": "153", "nodes_expanded": "999", "instance": "prb10166", "end_time": "1.51814996211e+12", "optimal_length": "16", "subject": "A2QIZ31TMHU0GD"}
{"rt": "60926.0", "trial_number": "0", "skipped": "True", "complete": "False", "assignment": "3TAYZSBPLMG9ASQRWXURJVBCPLN2SH", "start_time": "1.51813737358e+12", "human_length": "37", "nodes_expanded": "999", "instance": "prb10166", "end_time": "1.51813743451e+12", "optimal_length": "16", "subject": "A2RCYLKY072XXO"}
{"rt": "30009.0", "trial_number": "0", "skipped": "False", "complete": "False", "assignment": "3WSELTNVR4AZUVYAYCSWZIQW0J4ATB", "start_time": "1.51673929384e+12", "human_length": "22", "nodes_expanded": "999", "instance": "prb10166", "end_time": "1.51673932385e+12", "optimal_length": "16", "subject": "A2TQNX64349OZ9"}
{"rt": "32761.0", "trial_number": "1", "skipped": "False", "complete": "False", "assignment": "3WSELTNVR4AZUVYAYCSWZIQW0J4ATB", "start_time": "1.51673932582e+12", "human_length": "24", "nodes_expanded": "999", "instance": "prb10166", "end_time": "1.51673935858e+12", "optimal_length": "16", "subject": "A2TQNX64349OZ9"}
{"rt": "0.0", "trial_number": "2", "skipped": "False", "complete": "False", "assignment": "3WSELTNVR4AZUVYAYCSWZIQW0J4ATB", "start_time": "1.51673936026e+12", "human_length": "1", "nodes_expanded": "999", "instance": "prb10166", "end_time": "1.51673936026e+12", "optimal_length": "16", "subject": "A2TQNX64349OZ9"}
{"rt": "0.0", "trial_number": "3", "skipped": "False", "complete": "False", "assignment": "3WSELTNVR4AZUVYAYCSWZIQW0J4ATB", "start_time": "1.51673929384e+12", "human_length": "1", "nodes_expanded": "999", "instance": "prb10166", "end_time": "1.51673929384e+12", "optimal_length": "16", "subject": "A2TQNX64349OZ9"}
{"rt": "0.0", "trial_number": "4", "skipped": "False", "complete": "False", "assignment": "3WSELTNVR4AZUVYAYCSWZIQW0J4ATB", "start_time": "1.51673932582e+12", "human_length": "1", "nodes_expanded": "999", "instance": "prb10166", "end_time": "1.51673932582e+12", "optimal_length": "16", "subject": "A2TQNX64349OZ9"}
{"rt": "0.0", "trial_number": "5", "skipped": "False", "complete": "False", "assignment": "3WSELTNVR4AZUVYAYCSWZIQW0J4ATB", "start_time": "1.51673936026e+12", "human_length": "1", "nodes_expanded": "999", "instance": "prb10166", "end_time": "1.51673936026e+12", "optimal_length": "16", "subject": "A2TQNX64349OZ9"}
{"rt": "0.0", "trial_number": "6", "skipped": "False", "complete": "False", "assignment": "3WSELTNVR4AZUVYAYCSWZIQW0J4ATB", "start_time": "1.51673929384e+12", "human_length": "1", "nodes_expanded": "999", "instance": "prb10166", "end_time": "1.51673929384e+12", "optimal_length": "16", "subject": "A2TQNX64349OZ9"}
{"rt": "0.0", "trial_number": "7", "skipped": "False", "complete": "False", "assignment": "3WSELTNVR4AZUVYAYCSWZIQW0J4ATB", "start_time": "1.51673932582e+12", "human_length": "1", "nodes_expanded": "999", "instance": "prb10166", "end_time": "1.51673932582e+12", "optimal_length": "16", "subject": "A2TQNX64349OZ9"}
{"rt": "16894.0", "trial_number": "8", "skipped": "True", "complete": "False", "assignment": "3WSELTNVR4AZUVYAYCSWZIQW0J4ATB", "start_time": "1.51673936026e+12", "human_length": "131", "nodes_expanded": "999", "instance": "prb10166", "end_time": "1.51673937715e+12", "optimal_length": "16", "subject": "A2TQNX64349OZ9"}
{"rt": "30009.0", "trial_number": "0", "skipped": "False", "complete": "False", "assignment": "3WSELTNVR4AZUVYAYCSWZIQW0J4ATB", "start_time": "1.51673929384e+12", "human_length": "22", "nodes_expanded": "999", "instance": "prb10166", "end_time": "1.51673932385e+12", "optimal_length": "16", "subject": "A2TQNX64349OZ9"}
{"rt": "32761.0", "trial_number": "1", "skipped": "False", "complete": "False", "assignment": "3WSELTNVR4AZUVYAYCSWZIQW0J4ATB", "start_time": "1.51673932582e+12", "human_length": "24", "nodes_expanded": "999", "instance": "prb10166", "end_time": "1.51673935858e+12", "optimal_length": "16", "subject": "A2TQNX64349OZ9"}
{"rt": "16894.0", "trial_number": "2", "skipped": "True", "complete": "False", "assignment": "3WSELTNVR4AZUVYAYCSWZIQW0J4ATB", "start_time": "1.51673936026e+12", "human_length": "15", "nodes_expanded": "999", "instance": "prb10166", "end_time": "1.51673937715e+12", "optimal_length": "16", "subject": "A2TQNX64349OZ9"}
{"rt": "70304.0", "trial_number": "0", "skipped": "False", "complete": "True", "assignment": "37TD41K0AIHM8AITTQJXV8KY05QCSB", "start_time": "1.51752490724e+12", "human_length": "43", "nodes_expanded": "999", "instance": "prb10166", "end_time": "1.51752497754e+12", "optimal_length": "16", "subject": "A30KYQGABO7JER"}
{"rt": "16349.0", "trial_number": "0", "skipped": "True", "complete": "False", "assignment": "3E1QT0TDFQHV2TPK729EPKIS2ND8IY", "start_time": "1.5181379318e+12", "human_length": "15", "nodes_expanded": "999", "instance": "prb10166", "end_time": "1.51813794815e+12", "optimal_length": "16", "subject": "A3BXT78QXFC6F3"}
{"rt": "65745.0", "trial_number": "0", "skipped": "False", "complete": "False", "assignment": "34HJIJKLP64Z5YMIU6IKNXSH7PDV4I", "start_time": "1.51794279719e+12", "human_length": "28", "nodes_expanded": "999", "instance": "prb10166", "end_time": "1.51794286293e+12", "optimal_length": "16", "subject": "A3CTXNQ2GXIQSP"}
{"rt": "31947.0", "trial_number": "1", "skipped": "False", "complete": "True", "assignment": "34HJIJKLP64Z5YMIU6IKNXSH7PDV4I", "start_time": "1.51794286661e+12", "human_length": "21", "nodes_expanded": "999", "instance": "prb10166", "end_time": "1.51794289856e+12", "optimal_length": "16", "subject": "A3CTXNQ2GXIQSP"}
{"rt": "160892.0", "trial_number": "0", "skipped": "False", "complete": "False", "assignment": "3TMFV4NEP9MD3O9PWJDTQBR0HZYW8I", "start_time": "1.51814701832e+12", "human_length": "83", "nodes_expanded": "999", "instance": "prb10166", "end_time": "1.51814717921e+12", "optimal_length": "16", "subject": "A3GOOI75XOF24V"}
{"rt": "115482.0", "trial_number": "1", "skipped": "False", "complete": "True", "assignment": "3TMFV4NEP9MD3O9PWJDTQBR0HZYW8I", "start_time": "1.51814718832e+12", "human_length": "39", "nodes_expanded": "999", "instance": "prb10166", "end_time": "1.5181473038e+12", "optimal_length": "16", "subject": "A3GOOI75XOF24V"}
{"rt": "0.0", "trial_number": "0", "skipped": "False", "complete": "False", "assignment": "3I2PTA7R3U2SESF4TZBQORI5LSJQKK", "start_time": "1.51675905122e+12", "human_length": "1", "nodes_expanded": "999", "instance": "prb10166", "end_time": "1.51675905122e+12", "optimal_length": "16", "subject": "A3NMQ3019X6YE0"}
{"rt": "0.0", "trial_number": "1", "skipped": "False", "complete": "False", "assignment": "3I2PTA7R3U2SESF4TZBQORI5LSJQKK", "start_time": "1.51675905122e+12", "human_length": "1", "nodes_expanded": "999", "instance": "prb10166", "end_time": "1.51675905122e+12", "optimal_length": "16", "subject": "A3NMQ3019X6YE0"}
{"rt": "146195.0", "trial_number": "2", "skipped": "False", "complete": "True", "assignment": "3I2PTA7R3U2SESF4TZBQORI5LSJQKK", "start_time": "1.51675905122e+12", "human_length": "58", "nodes_expanded": "999", "instance": "prb10166", "end_time": "1.51675919742e+12", "optimal_length": "16", "subject": "A3NMQ3019X6YE0"}
{"rt": "203021.0", "trial_number": "3", "skipped": "False", "complete": "True", "assignment": "3V5Q80FXIYZ5QB5C6ITQBN30WY823U", "start_time": "1.51753236519e+12", "human_length": "100", "nodes_expanded": "999", "instance": "prb10166", "end_time": "1.51753256821e+12", "optimal_length": "16", "subject": "A3NMQ3019X6YE0"}
{"rt": "146195.0", "trial_number": "0", "skipped": "False", "complete": "True", "assignment": "3I2PTA7R3U2SESF4TZBQORI5LSJQKK", "start_time": "1.51675905122e+12", "human_length": "58", "nodes_expanded": "999", "instance": "prb10166", "end_time": "1.51675919742e+12", "optimal_length": "16", "subject": "A3NMQ3019X6YE0"}
{"rt": "203021.0", "trial_number": "1", "skipped": "False", "complete": "True", "assignment": "3V5Q80FXIYZ5QB5C6ITQBN30WY823U", "start_time": "1.51753236519e+12", "human_length": "100", "nodes_expanded": "999", "instance": "prb10166", "end_time": "1.51753256821e+12", "optimal_length": "16", "subject": "A3NMQ3019X6YE0"}
{"rt": "0.0", "trial_number": "0", "skipped": "False", "complete": "False", "assignment": "3X87C8JFV7JQ2BSCY8KSFD9F2ILSQK", "start_time": "1.51674063162e+12", "human_length": "1", "nodes_expanded": "999", "instance": "prb10166", "end_time": "1.51674063162e+12", "optimal_length": "16", "subject": "A3Q0XAGQ7TD7MP"}
{"rt": "0.0", "trial_number": "1", "skipped": "False", "complete": "False", "assignment": "3X87C8JFV7JQ2BSCY8KSFD9F2ILSQK", "start_time": "1.51674063162e+12", "human_length": "1", "nodes_expanded": "999", "instance": "prb10166", "end_time": "1.51674063162e+12", "optimal_length": "16", "subject": "A3Q0XAGQ7TD7MP"}
{"rt": "64852.0", "trial_number": "2", "skipped": "False", "complete": "False", "assignment": "3X87C8JFV7JQ2BSCY8KSFD9F2ILSQK", "start_time": "1.51674063162e+12", "human_length": "80", "nodes_expanded": "999", "instance": "prb10166", "end_time": "1.51674069648e+12", "optimal_length": "16", "subject": "A3Q0XAGQ7TD7MP"}
{"rt": "173240.0", "trial_number": "3", "skipped": "False", "complete": "True", "assignment": "3GLB5JMZFY3TNXFGYMKRQ0JDXNTDGZ", "start_time": "1.5179469868e+12", "human_length": "67", "nodes_expanded": "999", "instance": "prb10166", "end_time": "1.51794716004e+12", "optimal_length": "16", "subject": "A3Q0XAGQ7TD7MP"}
{"rt": "64852.0", "trial_number": "0", "skipped": "False", "complete": "False", "assignment": "3X87C8JFV7JQ2BSCY8KSFD9F2ILSQK", "start_time": "1.51674063162e+12", "human_length": "28", "nodes_expanded": "999", "instance": "prb10166", "end_time": "1.51674069648e+12", "optimal_length": "16", "subject": "A3Q0XAGQ7TD7MP"}
{"rt": "173240.0", "trial_number": "1", "skipped": "False", "complete": "True", "assignment": "3GLB5JMZFY3TNXFGYMKRQ0JDXNTDGZ", "start_time": "1.5179469868e+12", "human_length": "67", "nodes_expanded": "999", "instance": "prb10166", "end_time": "1.51794716004e+12", "optimal_length": "16", "subject": "A3Q0XAGQ7TD7MP"}
{"rt": "84041.0", "trial_number": "0", "skipped": "True", "complete": "False", "assignment": "3VBEN272ML7ZPMYYVCFGLZ5DV7CGS0", "start_time": "1.51638759410e+12", "human_length": "47", "nodes_expanded": "999", "instance": "prb10166", "end_time": "1.51638767815e+12", "optimal_length": "16", "subject": "A3VZJ2T28HAQ2A"}
{"rt": "39362.0", "trial_number": "0", "skipped": "False", "complete": "False", "assignment": "3M0BCWMB8W4W5M7WZVX3HDH1P53WB1", "start_time": "1.51815979539e+12", "human_length": "33", "nodes_expanded": "999", "instance": "prb10166", "end_time": "1.51815983475e+12", "optimal_length": "16", "subject": "A53S7J4JGWG38"}
{"rt": "60761.0", "trial_number": "1", "skipped": "True", "complete": "False", "assignment": "3M0BCWMB8W4W5M7WZVX3HDH1P53WB1", "start_time": "1.51815983706e+12", "human_length": "28", "nodes_expanded": "999", "instance": "prb10166", "end_time": "1.51815989782e+12", "optimal_length": "16", "subject": "A53S7J4JGWG38"}
{"rt": "93403.0", "trial_number": "0", "skipped": "False", "complete": "False", "assignment": "3U84XHCDIDLGEIRSV37N835DV0K4ZS", "start_time": "1.51794128398e+12", "human_length": "59", "nodes_expanded": "999", "instance": "prb10166", "end_time": "1.51794137738e+12", "optimal_length": "16", "subject": "A8KX1HFH8NE2Q"}
{"rt": "0.0", "trial_number": "1", "skipped": "False", "complete": "False", "assignment": "3U84XHCDIDLGEIRSV37N835DV0K4ZS", "start_time": "1.51794144752e+12", "human_length": "1", "nodes_expanded": "999", "instance": "prb10166", "end_time": "1.51794144752e+12", "optimal_length": "16", "subject": "A8KX1HFH8NE2Q"}
{"rt": "0.0", "trial_number": "2", "skipped": "False", "complete": "False", "assignment": "3U84XHCDIDLGEIRSV37N835DV0K4ZS", "start_time": "1.51794145046e+12", "human_length": "1", "nodes_expanded": "999", "instance": "prb10166", "end_time": "1.51794145046e+12", "optimal_length": "16", "subject": "A8KX1HFH8NE2Q"}
{"rt": "17286.0", "trial_number": "3", "skipped": "True", "complete": "False", "assignment": "3U84XHCDIDLGEIRSV37N835DV0K4ZS", "start_time": "1.51794145047e+12", "human_length": "3", "nodes_expanded": "999", "instance": "prb10166", "end_time": "1.51794146776e+12", "optimal_length": "16", "subject": "A8KX1HFH8NE2Q"}
{"rt": "0.0", "trial_number": "0", "skipped": "False", "complete": "False", "assignment": "3IJXV6UZ1YR1KY4G6BFEG1DXP7SRI1", "start_time": "1.51674021479e+12", "human_length": "1", "nodes_expanded": "999", "instance": "prb10166", "end_time": "1.51674021479e+12", "optimal_length": "16", "subject": "AEXF5EUX32U0M"}
{"rt": "0.0", "trial_number": "1", "skipped": "False", "complete": "False", "assignment": "3IJXV6UZ1YR1KY4G6BFEG1DXP7SRI1", "start_time": "1.51674021479e+12", "human_length": "1", "nodes_expanded": "999", "instance": "prb10166", "end_time": "1.51674021479e+12", "optimal_length": "16", "subject": "AEXF5EUX32U0M"}
{"rt": "117420.0", "trial_number": "2", "skipped": "True", "complete": "False", "assignment": "3IJXV6UZ1YR1KY4G6BFEG1DXP7SRI1", "start_time": "1.51674021479e+12", "human_length": "184", "nodes_expanded": "999", "instance": "prb10166", "end_time": "1.51674033221e+12", "optimal_length": "16", "subject": "AEXF5EUX32U0M"}
{"rt": "117420.0", "trial_number": "0", "skipped": "True", "complete": "False", "assignment": "3IJXV6UZ1YR1KY4G6BFEG1DXP7SRI1", "start_time": "1.51674021479e+12", "human_length": "64", "nodes_expanded": "999", "instance": "prb10166", "end_time": "1.51674033221e+12", "optimal_length": "16", "subject": "AEXF5EUX32U0M"}
{"rt": "29290.0", "trial_number": "0", "skipped": "False", "complete": "True", "assignment": "3IXEICO793RY7TM78ZBKJDOA7ADT6Q", "start_time": "1.51816871283e+12", "human_length": "27", "nodes_expanded": "999", "instance": "prb10166", "end_time": "1.51816874212e+12", "optimal_length": "16", "subject": "ALH1K6ZAQQMN7"}
{"rt": "33459.0", "trial_number": "0", "skipped": "False", "complete": "False", "assignment": "36H9ULYP6320CJJDXY0KBDEE1Z3JFB", "start_time": "1.51753217346e+12", "human_length": "13", "nodes_expanded": "999", "instance": "prb10166", "end_time": "1.51753220692e+12", "optimal_length": "16", "subject": "AN098C29EGJ6"}
{"rt": "66892.0", "trial_number": "1", "skipped": "True", "complete": "False", "assignment": "36H9ULYP6320CJJDXY0KBDEE1Z3JFB", "start_time": "1.51753221306e+12", "human_length": "27", "nodes_expanded": "999", "instance": "prb10166", "end_time": "1.51753227995e+12", "optimal_length": "16", "subject": "AN098C29EGJ6"}
{"rt": "48495.0", "trial_number": "0", "skipped": "False", "complete": "True", "assignment": "33PPO7FECWN7JOLBOAKUBCWTC0AIDL", "start_time": "1.51795129786e+12", "human_length": "21", "nodes_expanded": "999", "instance": "prb10166", "end_time": "1.51795134635e+12", "optimal_length": "16", "subject": "AXKM02NVXNGOM"}
{"rt": "397843.0", "trial_number": "0", "skipped": "False", "complete": "True", "assignment": "3ON104KXQL4CKNMNKGNG9ZBVBAB4WI", "start_time": "1.51631308356e+12", "human_length": "198", "nodes_expanded": "999", "instance": "prb10166", "end_time": "1.51631348141e+12", "optimal_length": "16", "subject": "AYPOAY43REHC8"}
