{"meta_move": "drag_end", "rt": "18735.0", "trial_number": "1", "pre_actions": "1", "move": "r@15", "instance": "prb13171", "distance_to_goal": "NA", "progress": "NA", "move_number": "0", "optimal_length": "7", "subject": "A15FXHC1CVNW31:3TS1AR6UQRM7SOIBWPBN8N9589Y7FV"}
{"meta_move": "drag_end", "rt": "1119.0", "trial_number": "1", "pre_actions": "1", "move": "1@19", "instance": "prb13171", "distance_to_goal": "NA", "progress": "NA", "move_number": "1", "optimal_length": "7", "subject": "A15FXHC1CVNW31:3TS1AR6UQRM7SOIBWPBN8N9589Y7FV"}
{"meta_move": "drag_end", "rt": "1519.0", "trial_number": "1", "pre_actions": "1", "move": "2@5", "instance": "prb13171", "distance_to_goal": "NA", "progress": "NA", "move_number": "2", "optimal_length": "7", "subject": "A15FXHC1CVNW31:3TS1AR6UQRM7SOIBWPBN8N9589Y7FV"}
{"meta_move": "drag_end", "rt": "592.0", "trial_number": "1", "pre_actions": "1", "move": "4@28", "instance": "prb13171", "distance_to_goal": "NA", "progress": "NA", "move_number": "3", "optimal_length": "7", "subject": "A15FXHC1CVNW31:3TS1AR6UQRM7SOIBWPBN8N9589Y7FV"}
{"meta_move": "drag_end", "rt": "4068.0", "trial_number": "1", "pre_actions": "1", "move": "r@13", "instance": "prb13171", "distance_to_goal": "NA", "progress": "NA", "move_number": "3", "optimal_length": "7", "subject": "A15FXHC1CVNW31:3TS1AR6UQRM7SOIBWPBN8N9589Y7FV"}
{"meta_move": "drag_end", "rt": "883.0", "trial_number": "1", "pre_actions": "1", "move": "2@11", "instance": "prb13171", "distance_to_goal": "NA", "progress": "NA", "move_number": "4", "optimal_length": "7", "subject": "A15FXHC1CVNW31:3TS1AR6UQRM7SOIBWPBN8N9589Y7FV"}
{"meta_move": "drag_end", "rt": "567.0", "trial_number": "1", "pre_actions": "1", "move": "6@4", "instance": "prb13171", "distance_to_goal": "NA", "progress": "NA", "move_number": "5", "optimal_length": "7", "subject": "A15FXHC1CVNW31:3TS1AR6UQRM7SOIBWPBN8N9589Y7FV"}
{"meta_move": "drag_end", "rt": "914.0", "trial_number": "1", "pre_actions": "1", "move": "0@3", "instance": "prb13171", "distance_to_goal": "NA", "progress": "NA", "move_number": "6", "optimal_length": "7", "subject": "A15FXHC1CVNW31:3TS1AR6UQRM7SOIBWPBN8N9589Y7FV"}
{"meta_move": "drag_end", "rt": "741.0", "trial_number": "1", "pre_actions": "1", "move": "4@25", "instance": "prb13171", "distance_to_goal": "NA", "progress": "NA", "move_number": "7", "optimal_length": "7", "subject": "A15FXHC1CVNW31:3TS1AR6UQRM7SOIBWPBN8N9589Y7FV"}
{"meta_move": "drag_end", "rt": "3435.0", "trial_number": "1", "pre_actions": "1", "move": "0@27", "instance": "prb13171", "distance_to_goal": "NA", "progress": "NA", "move_number": "8", "optimal_length": "7", "subject": "A15FXHC1CVNW31:3TS1AR6UQRM7SOIBWPBN8N9589Y7FV"}
{"meta_move": "drag_end", "rt": "638.0", "trial_number": "1", "pre_actions": "1", "move": "2@23", "instance": "prb13171", "distance_to_goal": "NA", "progress": "NA", "move_number": "9", "optimal_length": "7", "subject": "A15FXHC1CVNW31:3TS1AR6UQRM7SOIBWPBN8N9589Y7FV"}
{"meta_move": "win", "rt": "546.0", "trial_number": "1", "pre_actions": "1", "move": "r@13", "instance": "prb13171", "distance_to_goal": "1", "progress": "NA", "move_number": "10", "optimal_length": "7", "subject": "A15FXHC1CVNW31:3TS1AR6UQRM7SOIBWPBN8N9589Y7FV"}
{"meta_move": "drag_end", "rt": "124.0", "trial_number": "0", "pre_actions": "0", "move": "r@16", "instance": "prb13171", "distance_to_goal": "NA", "progress": "NA", "move_number": "10", "optimal_length": "7", "subject": "A15FXHC1CVNW31:3TS1AR6UQRM7SOIBWPBN8N9589Y7FV"}
{"meta_move": "drag_end", "rt": "8118.0", "trial_number": "4", "pre_actions": "1", "move": "1@19", "instance": "prb13171", "distance_to_goal": "NA", "progress": "NA", "move_number": "0", "optimal_length": "7", "subject": "A18QU0YQB6Q8DF:3VE8AYVF8N5BS2NU6U3TMN50JMNF8V"}
{"meta_move": "drag_end", "rt": "1618.0", "trial_number": "4", "pre_actions": "1", "move": "0@9", "instance": "prb13171", "distance_to_goal": "NA", "progress": "NA", "move_number": "1", "optimal_length": "7", "subject": "A18QU0YQB6Q8DF:3VE8AYVF8N5BS2NU6U3TMN50JMNF8V"}
{"meta_move": "drag_end", "rt": "1385.0", "trial_number": "4", "pre_actions": "1", "move": "4@25", "instance": "prb13171", "distance_to_goal": "NA", "progress": "NA", "move_number": "2", "optimal_length": "7", "subject": "A18QU0YQB6Q8DF:3VE8AYVF8N5BS2NU6U3TMN50JMNF8V"}
{"meta_move": "drag_end", "rt": "1236.0", "trial_number": "4", "pre_actions": "1", "move": "0@27", "instance": "prb13171", "distance_to_goal": "NA", "progress": "NA", "move_number": "3", "optimal_length": "7", "subject": "A18QU0YQB6Q8DF:3VE8AYVF8N5BS2NU6U3TMN50JMNF8V"}
{"meta_move": "drag_end", "rt": "1128.0", "trial_number": "4", "pre_actions": "1", "move": "2@23", "instance": "prb13171", "distance_to_goal": "NA", "progress": "NA", "move_number": "4", "optimal_length": "7", "subject": "A18QU0YQB6Q8DF:3VE8AYVF8N5BS2NU6U3TMN50JMNF8V"}
{"meta_move": "win", "rt": "1003.0", "trial_number": "4", "pre_actions": "1", "move": "r@13", "instance": "prb13171", "distance_to_goal": "1", "progress": "NA", "move_number": "5", "optimal_length": "7", "subject": "A18QU0YQB6Q8DF:3VE8AYVF8N5BS2NU6U3TMN50JMNF8V"}
{"meta_move": "drag_end", "rt": "273.0", "trial_number": "0", "pre_actions": "0", "move": "r@16", "instance": "prb13171", "distance_to_goal": "NA", "progress": "NA", "move_number": "5", "optimal_length": "7", "subject": "A18QU0YQB6Q8DF:3VE8AYVF8N5BS2NU6U3TMN50JMNF8V"}
{"meta_move": "drag_end", "rt": "1515.0", "trial_number": "1", "pre_actions": "1", "move": "2@5", "instance": "prb13171", "distance_to_goal": "NA", "progress": "NA", "move_number": "0", "optimal_length": "7", "subject": "A191V7PT3DQKDP:3PMBY0YE28B43VMUKKJ6EDF85RV9C8"}
{"meta_move": "drag_end", "rt": "881.0", "trial_number": "1", "pre_actions": "1", "move": "r@15", "instance": "prb13171", "distance_to_goal": "NA", "progress": "NA", "move_number": "1", "optimal_length": "7", "subject": "A191V7PT3DQKDP:3PMBY0YE28B43VMUKKJ6EDF85RV9C8"}
{"meta_move": "drag_end", "rt": "602.0", "trial_number": "1", "pre_actions": "1", "move": "1@19", "instance": "prb13171", "distance_to_goal": "NA", "progress": "NA", "move_number": "2", "optimal_length": "7", "subject": "A191V7PT3DQKDP:3PMBY0YE28B43VMUKKJ6EDF85RV9C8"}
{"meta_move": "drag_end", "rt": "2558.0", "trial_number": "1", "pre_actions": "1", "move": "1@19", "instance": "prb13171", "distance_to_goal": "NA", "progress": "NA", "move_number": "3", "optimal_length": "7", "subject": "A191V7PT3DQKDP:3PMBY0YE28B43VMUKKJ6EDF85RV9C8"}
{"meta_move": "drag_end", "rt": "1607.0", "trial_number": "1", "pre_actions": "1", "move": "0@21", "instance": "prb13171", "distance_to_goal": "NA", "progress": "NA", "move_number": "3", "optimal_length": "7", "subject": "A191V7PT3DQKDP:3PMBY0YE28B43VMUKKJ6EDF85RV9C8"}
{"meta_move": "drag_end", "rt": "640.0", "trial_number": "1", "pre_actions": "1", "move": "r@13", "instance": "prb13171", "distance_to_goal": "NA", "progress": "NA", "move_number": "4", "optimal_length": "7", "subject": "A191V7PT3DQKDP:3PMBY0YE28B43VMUKKJ6EDF85RV9C8"}
{"meta_move": "drag_end", "rt": "624.0", "trial_number": "1", "pre_actions": "1", "move": "0@9", "instance": "prb13171", "distance_to_goal": "NA", "progress": "NA", "move_number": "5", "optimal_length": "7", "subject": "A191V7PT3DQKDP:3PMBY0YE28B43VMUKKJ6EDF85RV9C8"}
{"meta_move": "drag_end", "rt": "618.0", "trial_number": "1", "pre_actions": "1", "move": "4@25", "instance": "prb13171", "distance_to_goal": "NA", "progress": "NA", "move_number": "6", "optimal_length": "7", "subject": "A191V7PT3DQKDP:3PMBY0YE28B43VMUKKJ6EDF85RV9C8"}
{"meta_move": "drag_end", "rt": "616.0", "trial_number": "1", "pre_actions": "1", "move": "0@27", "instance": "prb13171", "distance_to_goal": "NA", "progress": "NA", "move_number": "7", "optimal_length": "7", "subject": "A191V7PT3DQKDP:3PMBY0YE28B43VMUKKJ6EDF85RV9C8"}
{"meta_move": "drag_end", "rt": "664.0", "trial_number": "1", "pre_actions": "1", "move": "2@23", "instance": "prb13171", "distance_to_goal": "NA", "progress": "NA", "move_number": "8", "optimal_length": "7", "subject": "A191V7PT3DQKDP:3PMBY0YE28B43VMUKKJ6EDF85RV9C8"}
{"meta_move": "win", "rt": "755.0", "trial_number": "1", "pre_actions": "1", "move": "r@13", "instance": "prb13171", "distance_to_goal": "1", "progress": "NA", "move_number": "9", "optimal_length": "7", "subject": "A191V7PT3DQKDP:3PMBY0YE28B43VMUKKJ6EDF85RV9C8"}
{"meta_move": "drag_end", "rt": "91.0", "trial_number": "0", "pre_actions": "0", "move": "r@16", "instance": "prb13171", "distance_to_goal": "NA", "progress": "NA", "move_number": "9", "optimal_length": "7", "subject": "A191V7PT3DQKDP:3PMBY0YE28B43VMUKKJ6EDF85RV9C8"}
{"meta_move": "drag_end", "rt": "3670.0", "trial_number": "1", "pre_actions": "1", "move": "1@19", "instance": "prb13171", "distance_to_goal": "NA", "progress": "NA", "move_number": "0", "optimal_length": "7", "subject": "A1F4N58CAX8IMK:3TS1AR6UQRM7SOIBWPBN8N9589Y7FV"}
{"meta_move": "drag_end", "rt": "1144.0", "trial_number": "1", "pre_actions": "1", "move": "2@5", "instance": "prb13171", "distance_to_goal": "NA", "progress": "NA", "move_number": "1", "optimal_length": "7", "subject": "A1F4N58CAX8IMK:3TS1AR6UQRM7SOIBWPBN8N9589Y7FV"}
{"meta_move": "drag_end", "rt": "856.0", "trial_number": "1", "pre_actions": "1", "move": "0@9", "instance": "prb13171", "distance_to_goal": "NA", "progress": "NA", "move_number": "2", "optimal_length": "7", "subject": "A1F4N58CAX8IMK:3TS1AR6UQRM7SOIBWPBN8N9589Y7FV"}
{"meta_move": "drag_end", "rt": "856.0", "trial_number": "1", "pre_actions": "1", "move": "4@25", "instance": "prb13171", "distance_to_goal": "NA", "progress": "NA", "move_number": "3", "optimal_length": "7", "subject": "A1F4N58CAX8IMK:3TS1AR6UQRM7SOIBWPBN8N9589Y7FV"}
{"meta_move": "drag_end", "rt": "720.0", "trial_number": "1", "pre_actions": "1", "move": "2@23", "instance": "prb13171", "distance_to_goal": "NA", "progress": "NA", "move_number": "4", "optimal_length": "7", "subject": "A1F4N58CAX8IMK:3TS1AR6UQRM7SOIBWPBN8N9589Y7FV"}
{"meta_move": "drag_end", "rt": "840.0", "trial_number": "1", "pre_actions": "1", "move": "0@27", "instance": "prb13171", "distance_to_goal": "NA", "progress": "NA", "move_number": "5", "optimal_length": "7", "subject": "A1F4N58CAX8IMK:3TS1AR6UQRM7SOIBWPBN8N9589Y7FV"}
{"meta_move": "win", "rt": "526.0", "trial_number": "1", "pre_actions": "1", "move": "r@13", "instance": "prb13171", "distance_to_goal": "1", "progress": "NA", "move_number": "6", "optimal_length": "7", "subject": "A1F4N58CAX8IMK:3TS1AR6UQRM7SOIBWPBN8N9589Y7FV"}
{"meta_move": "drag_end", "rt": "82.0", "trial_number": "0", "pre_actions": "0", "move": "r@16", "instance": "prb13171", "distance_to_goal": "NA", "progress": "NA", "move_number": "6", "optimal_length": "7", "subject": "A1F4N58CAX8IMK:3TS1AR6UQRM7SOIBWPBN8N9589Y7FV"}
{"meta_move": "drag_end", "rt": "3313.0", "trial_number": "1", "pre_actions": "1", "move": "1@19", "instance": "prb13171", "distance_to_goal": "NA", "progress": "NA", "move_number": "0", "optimal_length": "7", "subject": "A1LR0VQIHQUJAM:3YW4XOSQKRTI0K0Z2YPDTDJVFABU1I"}
{"meta_move": "drag_end", "rt": "691.0", "trial_number": "1", "pre_actions": "1", "move": "0@9", "instance": "prb13171", "distance_to_goal": "NA", "progress": "NA", "move_number": "1", "optimal_length": "7", "subject": "A1LR0VQIHQUJAM:3YW4XOSQKRTI0K0Z2YPDTDJVFABU1I"}
{"meta_move": "drag_end", "rt": "904.0", "trial_number": "1", "pre_actions": "1", "move": "4@25", "instance": "prb13171", "distance_to_goal": "NA", "progress": "NA", "move_number": "2", "optimal_length": "7", "subject": "A1LR0VQIHQUJAM:3YW4XOSQKRTI0K0Z2YPDTDJVFABU1I"}
{"meta_move": "drag_end", "rt": "672.0", "trial_number": "1", "pre_actions": "1", "move": "0@27", "instance": "prb13171", "distance_to_goal": "NA", "progress": "NA", "move_number": "3", "optimal_length": "7", "subject": "A1LR0VQIHQUJAM:3YW4XOSQKRTI0K0Z2YPDTDJVFABU1I"}
{"meta_move": "drag_end", "rt": "1285.0", "trial_number": "1", "pre_actions": "1", "move": "2@23", "instance": "prb13171", "distance_to_goal": "NA", "progress": "NA", "move_number": "4", "optimal_length": "7", "subject": "A1LR0VQIHQUJAM:3YW4XOSQKRTI0K0Z2YPDTDJVFABU1I"}
{"meta_move": "win", "rt": "621.0", "trial_number": "1", "pre_actions": "1", "move": "r@13", "instance": "prb13171", "distance_to_goal": "1", "progress": "NA", "move_number": "5", "optimal_length": "7", "subject": "A1LR0VQIHQUJAM:3YW4XOSQKRTI0K0Z2YPDTDJVFABU1I"}
{"meta_move": "drag_end", "rt": "100.0", "trial_number": "0", "pre_actions": "0", "move": "r@16", "instance": "prb13171", "distance_to_goal": "NA", "progress": "NA", "move_number": "5", "optimal_length": "7", "subject": "A1LR0VQIHQUJAM:3YW4XOSQKRTI0K0Z2YPDTDJVFABU1I"}
{"meta_move": "drag_end", "rt": "15423.0", "trial_number": "1", "pre_actions": "1", "move": "1@19", "instance": "prb13171", "distance_to_goal": "NA", "progress": "NA", "move_number": "0", "optimal_length": "7", "subject": "A1XDMS0KFSF5JW:3M0BCWMB8W4W5M7WZVX3HDH1M3FBWL"}
{"meta_move": "drag_end", "rt": "924.0", "trial_number": "1", "pre_actions": "1", "move": "0@9", "instance": "prb13171", "distance_to_goal": "NA", "progress": "NA", "move_number": "1", "optimal_length": "7", "subject": "A1XDMS0KFSF5JW:3M0BCWMB8W4W5M7WZVX3HDH1M3FBWL"}
{"meta_move": "drag_end", "rt": "1100.0", "trial_number": "1", "pre_actions": "1", "move": "4@25", "instance": "prb13171", "distance_to_goal": "NA", "progress": "NA", "move_number": "2", "optimal_length": "7", "subject": "A1XDMS0KFSF5JW:3M0BCWMB8W4W5M7WZVX3HDH1M3FBWL"}
{"meta_move": "drag_end", "rt": "1084.0", "trial_number": "1", "pre_actions": "1", "move": "2@23", "instance": "prb13171", "distance_to_goal": "NA", "progress": "NA", "move_number": "3", "optimal_length": "7", "subject": "A1XDMS0KFSF5JW:3M0BCWMB8W4W5M7WZVX3HDH1M3FBWL"}
{"meta_move": "drag_end", "rt": "924.0", "trial_number": "1", "pre_actions": "1", "move": "0@27", "instance": "prb13171", "distance_to_goal": "NA", "progress": "NA", "move_number": "4", "optimal_length": "7", "subject": "A1XDMS0KFSF5JW:3M0BCWMB8W4W5M7WZVX3HDH1M3FBWL"}
{"meta_move": "win", "rt": "594.0", "trial_number": "1", "pre_actions": "1", "move": "r@13", "instance": "prb13171", "distance_to_goal": "1", "progress": "NA", "move_number": "5", "optimal_length": "7", "subject": "A1XDMS0KFSF5JW:3M0BCWMB8W4W5M7WZVX3HDH1M3FBWL"}
{"meta_move": "drag_end", "rt": "161.0", "trial_number": "0", "pre_actions": "0", "move": "r@16", "instance": "prb13171", "distance_to_goal": "NA", "progress": "NA", "move_number": "5", "optimal_length": "7", "subject": "A1XDMS0KFSF5JW:3M0BCWMB8W4W5M7WZVX3HDH1M3FBWL"}
{"meta_move": "drag_end", "rt": "3461.0", "trial_number": "1", "pre_actions": "1", "move": "1@19", "instance": "prb13171", "distance_to_goal": "NA", "progress": "NA", "move_number": "0", "optimal_length": "7", "subject": "A214HWAW1PYWO8:34BBWHLWHBJ6SUL255PK30LEGY5IWG"}
{"meta_move": "drag_end", "rt": "701.0", "trial_number": "1", "pre_actions": "1", "move": "0@9", "instance": "prb13171", "distance_to_goal": "NA", "progress": "NA", "move_number": "1", "optimal_length": "7", "subject": "A214HWAW1PYWO8:34BBWHLWHBJ6SUL255PK30LEGY5IWG"}
{"meta_move": "drag_end", "rt": "623.0", "trial_number": "1", "pre_actions": "1", "move": "4@25", "instance": "prb13171", "distance_to_goal": "NA", "progress": "NA", "move_number": "2", "optimal_length": "7", "subject": "A214HWAW1PYWO8:34BBWHLWHBJ6SUL255PK30LEGY5IWG"}
{"meta_move": "drag_end", "rt": "607.0", "trial_number": "1", "pre_actions": "1", "move": "0@27", "instance": "prb13171", "distance_to_goal": "NA", "progress": "NA", "move_number": "3", "optimal_length": "7", "subject": "A214HWAW1PYWO8:34BBWHLWHBJ6SUL255PK30LEGY5IWG"}
{"meta_move": "drag_end", "rt": "558.0", "trial_number": "1", "pre_actions": "1", "move": "2@23", "instance": "prb13171", "distance_to_goal": "NA", "progress": "NA", "move_number": "4", "optimal_length": "7", "subject": "A214HWAW1PYWO8:34BBWHLWHBJ6SUL255PK30LEGY5IWG"}
{"meta_move": "win", "rt": "484.0", "trial_number": "1", "pre_actions": "1", "move": "r@13", "instance": "prb13171", "distance_to_goal": "1", "progress": "NA", "move_number": "5", "optimal_length": "7", "subject": "A214HWAW1PYWO8:34BBWHLWHBJ6SUL255PK30LEGY5IWG"}
{"meta_move": "drag_end", "rt": "101.0", "trial_number": "0", "pre_actions": "0", "move": "r@16", "instance": "prb13171", "distance_to_goal": "NA", "progress": "NA", "move_number": "5", "optimal_length": "7", "subject": "A214HWAW1PYWO8:34BBWHLWHBJ6SUL255PK30LEGY5IWG"}
{"meta_move": "drag_end", "rt": "2352.0", "trial_number": "1", "pre_actions": "1", "move": "1@19", "instance": "prb13171", "distance_to_goal": "NA", "progress": "NA", "move_number": "0", "optimal_length": "7", "subject": "A21S7MA9DCW95E:3X87C8JFV7JQ2BSCY8KSFD9F2ILSQK"}
{"meta_move": "drag_end", "rt": "970.0", "trial_number": "1", "pre_actions": "1", "move": "2@5", "instance": "prb13171", "distance_to_goal": "NA", "progress": "NA", "move_number": "1", "optimal_length": "7", "subject": "A21S7MA9DCW95E:3X87C8JFV7JQ2BSCY8KSFD9F2ILSQK"}
{"meta_move": "drag_end", "rt": "1082.0", "trial_number": "1", "pre_actions": "1", "move": "0@9", "instance": "prb13171", "distance_to_goal": "NA", "progress": "NA", "move_number": "2", "optimal_length": "7", "subject": "A21S7MA9DCW95E:3X87C8JFV7JQ2BSCY8KSFD9F2ILSQK"}
{"meta_move": "drag_end", "rt": "977.0", "trial_number": "1", "pre_actions": "1", "move": "4@25", "instance": "prb13171", "distance_to_goal": "NA", "progress": "NA", "move_number": "3", "optimal_length": "7", "subject": "A21S7MA9DCW95E:3X87C8JFV7JQ2BSCY8KSFD9F2ILSQK"}
{"meta_move": "drag_end", "rt": "1095.0", "trial_number": "1", "pre_actions": "1", "move": "0@27", "instance": "prb13171", "distance_to_goal": "NA", "progress": "NA", "move_number": "4", "optimal_length": "7", "subject": "A21S7MA9DCW95E:3X87C8JFV7JQ2BSCY8KSFD9F2ILSQK"}
{"meta_move": "drag_end", "rt": "729.0", "trial_number": "1", "pre_actions": "1", "move": "2@23", "instance": "prb13171", "distance_to_goal": "NA", "progress": "NA", "move_number": "5", "optimal_length": "7", "subject": "A21S7MA9DCW95E:3X87C8JFV7JQ2BSCY8KSFD9F2ILSQK"}
{"meta_move": "win", "rt": "907.0", "trial_number": "1", "pre_actions": "1", "move": "r@13", "instance": "prb13171", "distance_to_goal": "1", "progress": "NA", "move_number": "6", "optimal_length": "7", "subject": "A21S7MA9DCW95E:3X87C8JFV7JQ2BSCY8KSFD9F2ILSQK"}
{"meta_move": "drag_end", "rt": "219.0", "trial_number": "0", "pre_actions": "0", "move": "r@16", "instance": "prb13171", "distance_to_goal": "NA", "progress": "NA", "move_number": "6", "optimal_length": "7", "subject": "A21S7MA9DCW95E:3X87C8JFV7JQ2BSCY8KSFD9F2ILSQK"}
{"meta_move": "drag_end", "rt": "170.0", "trial_number": "1", "pre_actions": "1", "move": "5@0", "instance": "prb13171", "distance_to_goal": "NA", "progress": "NA", "move_number": "0", "optimal_length": "7", "subject": "A23437BMZ5T1FH:3IHR8NYAM89M0EPM8U9LH53ZJDTP4U"}
{"meta_move": "drag_end", "rt": "1609.0", "trial_number": "1", "pre_actions": "1", "move": "6@4", "instance": "prb13171", "distance_to_goal": "NA", "progress": "NA", "move_number": "0", "optimal_length": "7", "subject": "A23437BMZ5T1FH:3IHR8NYAM89M0EPM8U9LH53ZJDTP4U"}
{"meta_move": "drag_end", "rt": "535.0", "trial_number": "1", "pre_actions": "1", "move": "5@1", "instance": "prb13171", "distance_to_goal": "NA", "progress": "NA", "move_number": "1", "optimal_length": "7", "subject": "A23437BMZ5T1FH:3IHR8NYAM89M0EPM8U9LH53ZJDTP4U"}
{"meta_move": "drag_end", "rt": "609.0", "trial_number": "1", "pre_actions": "1", "move": "7@0", "instance": "prb13171", "distance_to_goal": "NA", "progress": "NA", "move_number": "2", "optimal_length": "7", "subject": "A23437BMZ5T1FH:3IHR8NYAM89M0EPM8U9LH53ZJDTP4U"}
{"meta_move": "drag_end", "rt": "551.0", "trial_number": "1", "pre_actions": "1", "move": "r@12", "instance": "prb13171", "distance_to_goal": "NA", "progress": "NA", "move_number": "3", "optimal_length": "7", "subject": "A23437BMZ5T1FH:3IHR8NYAM89M0EPM8U9LH53ZJDTP4U"}
{"meta_move": "drag_end", "rt": "615.0", "trial_number": "1", "pre_actions": "1", "move": "1@19", "instance": "prb13171", "distance_to_goal": "NA", "progress": "NA", "move_number": "4", "optimal_length": "7", "subject": "A23437BMZ5T1FH:3IHR8NYAM89M0EPM8U9LH53ZJDTP4U"}
{"meta_move": "drag_end", "rt": "1098.0", "trial_number": "1", "pre_actions": "1", "move": "0@9", "instance": "prb13171", "distance_to_goal": "NA", "progress": "NA", "move_number": "5", "optimal_length": "7", "subject": "A23437BMZ5T1FH:3IHR8NYAM89M0EPM8U9LH53ZJDTP4U"}
{"meta_move": "drag_end", "rt": "561.0", "trial_number": "1", "pre_actions": "1", "move": "4@25", "instance": "prb13171", "distance_to_goal": "NA", "progress": "NA", "move_number": "6", "optimal_length": "7", "subject": "A23437BMZ5T1FH:3IHR8NYAM89M0EPM8U9LH53ZJDTP4U"}
{"meta_move": "drag_end", "rt": "702.0", "trial_number": "1", "pre_actions": "1", "move": "2@23", "instance": "prb13171", "distance_to_goal": "NA", "progress": "NA", "move_number": "7", "optimal_length": "7", "subject": "A23437BMZ5T1FH:3IHR8NYAM89M0EPM8U9LH53ZJDTP4U"}
{"meta_move": "drag_end", "rt": "513.0", "trial_number": "1", "pre_actions": "1", "move": "0@27", "instance": "prb13171", "distance_to_goal": "NA", "progress": "NA", "move_number": "8", "optimal_length": "7", "subject": "A23437BMZ5T1FH:3IHR8NYAM89M0EPM8U9LH53ZJDTP4U"}
{"meta_move": "win", "rt": "1515.0", "trial_number": "1", "pre_actions": "1", "move": "r@12", "instance": "prb13171", "distance_to_goal": "1", "progress": "NA", "move_number": "9", "optimal_length": "7", "subject": "A23437BMZ5T1FH:3IHR8NYAM89M0EPM8U9LH53ZJDTP4U"}
{"meta_move": "drag_end", "rt": "107.0", "trial_number": "0", "pre_actions": "0", "move": "r@16", "instance": "prb13171", "distance_to_goal": "NA", "progress": "NA", "move_number": "9", "optimal_length": "7", "subject": "A23437BMZ5T1FH:3IHR8NYAM89M0EPM8U9LH53ZJDTP4U"}
{"meta_move": "drag_end", "rt": "3257.0", "trial_number": "1", "pre_actions": "1", "move": "1@19", "instance": "prb13171", "distance_to_goal": "NA", "progress": "NA", "move_number": "0", "optimal_length": "7", "subject": "A289D98Z4GAZ28:3ZV9H2YQQEFR2R3JK2IXZUJPXAF3WW"}
{"meta_move": "drag_end", "rt": "3172.0", "trial_number": "1", "pre_actions": "1", "move": "r@15", "instance": "prb13171", "distance_to_goal": "NA", "progress": "NA", "move_number": "1", "optimal_length": "7", "subject": "A289D98Z4GAZ28:3ZV9H2YQQEFR2R3JK2IXZUJPXAF3WW"}
{"meta_move": "drag_end", "rt": "5289.0", "trial_number": "1", "pre_actions": "1", "move": "r@13", "instance": "prb13171", "distance_to_goal": "NA", "progress": "NA", "move_number": "2", "optimal_length": "7", "subject": "A289D98Z4GAZ28:3ZV9H2YQQEFR2R3JK2IXZUJPXAF3WW"}
{"meta_move": "drag_end", "rt": "1225.0", "trial_number": "1", "pre_actions": "1", "move": "0@9", "instance": "prb13171", "distance_to_goal": "NA", "progress": "NA", "move_number": "3", "optimal_length": "7", "subject": "A289D98Z4GAZ28:3ZV9H2YQQEFR2R3JK2IXZUJPXAF3WW"}
{"meta_move": "drag_end", "rt": "1849.0", "trial_number": "1", "pre_actions": "1", "move": "4@25", "instance": "prb13171", "distance_to_goal": "NA", "progress": "NA", "move_number": "4", "optimal_length": "7", "subject": "A289D98Z4GAZ28:3ZV9H2YQQEFR2R3JK2IXZUJPXAF3WW"}
{"meta_move": "drag_end", "rt": "1276.0", "trial_number": "1", "pre_actions": "1", "move": "0@27", "instance": "prb13171", "distance_to_goal": "NA", "progress": "NA", "move_number": "5", "optimal_length": "7", "subject": "A289D98Z4GAZ28:3ZV9H2YQQEFR2R3JK2IXZUJPXAF3WW"}
{"meta_move": "drag_end", "rt": "1604.0", "trial_number": "1", "pre_actions": "1", "move": "2@23", "instance": "prb13171", "distance_to_goal": "NA", "progress": "NA", "move_number": "6", "optimal_length": "7", "subject": "A289D98Z4GAZ28:3ZV9H2YQQEFR2R3JK2IXZUJPXAF3WW"}
{"meta_move": "win", "rt": "830.0", "trial_number": "1", "pre_actions": "1", "move": "r@13", "instance": "prb13171", "distance_to_goal": "1", "progress": "NA", "move_number": "7", "optimal_length": "7", "subject": "A289D98Z4GAZ28:3ZV9H2YQQEFR2R3JK2IXZUJPXAF3WW"}
{"meta_move": "drag_end", "rt": "382.0", "trial_number": "0", "pre_actions": "0", "move": "r@16", "instance": "prb13171", "distance_to_goal": "NA", "progress": "NA", "move_number": "7", "optimal_length": "7", "subject": "A289D98Z4GAZ28:3ZV9H2YQQEFR2R3JK2IXZUJPXAF3WW"}
{"meta_move": "drag_end", "rt": "3819.0", "trial_number": "1", "pre_actions": "1", "move": "1@19", "instance": "prb13171", "distance_to_goal": "NA", "progress": "NA", "move_number": "0", "optimal_length": "7", "subject": "A2IBQA01NR5N76:3X4MXAO0BHWJLTOLVSJTHSM54OHWRG"}
{"meta_move": "drag_end", "rt": "1297.0", "trial_number": "1", "pre_actions": "1", "move": "0@9", "instance": "prb13171", "distance_to_goal": "NA", "progress": "NA", "move_number": "1", "optimal_length": "7", "subject": "A2IBQA01NR5N76:3X4MXAO0BHWJLTOLVSJTHSM54OHWRG"}
{"meta_move": "drag_end", "rt": "429.0", "trial_number": "1", "pre_actions": "1", "move": "6@4", "instance": "prb13171", "distance_to_goal": "NA", "progress": "NA", "move_number": "2", "optimal_length": "7", "subject": "A2IBQA01NR5N76:3X4MXAO0BHWJLTOLVSJTHSM54OHWRG"}
{"meta_move": "drag_end", "rt": "430.0", "trial_number": "1", "pre_actions": "1", "move": "0@3", "instance": "prb13171", "distance_to_goal": "NA", "progress": "NA", "move_number": "3", "optimal_length": "7", "subject": "A2IBQA01NR5N76:3X4MXAO0BHWJLTOLVSJTHSM54OHWRG"}
{"meta_move": "drag_end", "rt": "1306.0", "trial_number": "1", "pre_actions": "1", "move": "4@25", "instance": "prb13171", "distance_to_goal": "NA", "progress": "NA", "move_number": "4", "optimal_length": "7", "subject": "A2IBQA01NR5N76:3X4MXAO0BHWJLTOLVSJTHSM54OHWRG"}
{"meta_move": "drag_end", "rt": "600.0", "trial_number": "1", "pre_actions": "1", "move": "2@23", "instance": "prb13171", "distance_to_goal": "NA", "progress": "NA", "move_number": "5", "optimal_length": "7", "subject": "A2IBQA01NR5N76:3X4MXAO0BHWJLTOLVSJTHSM54OHWRG"}
{"meta_move": "win", "rt": "780.0", "trial_number": "1", "pre_actions": "1", "move": "r@13", "instance": "prb13171", "distance_to_goal": "1", "progress": "NA", "move_number": "6", "optimal_length": "7", "subject": "A2IBQA01NR5N76:3X4MXAO0BHWJLTOLVSJTHSM54OHWRG"}
{"meta_move": "drag_end", "rt": "1298.0", "trial_number": "0", "pre_actions": "0", "move": "r@16", "instance": "prb13171", "distance_to_goal": "NA", "progress": "NA", "move_number": "6", "optimal_length": "7", "subject": "A2IBQA01NR5N76:3X4MXAO0BHWJLTOLVSJTHSM54OHWRG"}
{"meta_move": "drag_end", "rt": "2072.0", "trial_number": "1", "pre_actions": "1", "move": "1@19", "instance": "prb13171", "distance_to_goal": "NA", "progress": "NA", "move_number": "0", "optimal_length": "7", "subject": "A2MYB6MLQW0IGN:3TYCR1GOTDRCCQYD1V64UK7OE48LZS"}
{"meta_move": "drag_end", "rt": "1691.0", "trial_number": "1", "pre_actions": "1", "move": "0@21", "instance": "prb13171", "distance_to_goal": "NA", "progress": "NA", "move_number": "1", "optimal_length": "7", "subject": "A2MYB6MLQW0IGN:3TYCR1GOTDRCCQYD1V64UK7OE48LZS"}
{"meta_move": "drag_end", "rt": "921.0", "trial_number": "1", "pre_actions": "1", "move": "0@9", "instance": "prb13171", "distance_to_goal": "NA", "progress": "NA", "move_number": "2", "optimal_length": "7", "subject": "A2MYB6MLQW0IGN:3TYCR1GOTDRCCQYD1V64UK7OE48LZS"}
{"meta_move": "drag_end", "rt": "929.0", "trial_number": "1", "pre_actions": "1", "move": "6@4", "instance": "prb13171", "distance_to_goal": "NA", "progress": "NA", "move_number": "3", "optimal_length": "7", "subject": "A2MYB6MLQW0IGN:3TYCR1GOTDRCCQYD1V64UK7OE48LZS"}
{"meta_move": "drag_end", "rt": "973.0", "trial_number": "1", "pre_actions": "1", "move": "0@3", "instance": "prb13171", "distance_to_goal": "NA", "progress": "NA", "move_number": "4", "optimal_length": "7", "subject": "A2MYB6MLQW0IGN:3TYCR1GOTDRCCQYD1V64UK7OE48LZS"}
{"meta_move": "drag_end", "rt": "1216.0", "trial_number": "1", "pre_actions": "1", "move": "4@25", "instance": "prb13171", "distance_to_goal": "NA", "progress": "NA", "move_number": "5", "optimal_length": "7", "subject": "A2MYB6MLQW0IGN:3TYCR1GOTDRCCQYD1V64UK7OE48LZS"}
{"meta_move": "drag_end", "rt": "1076.0", "trial_number": "1", "pre_actions": "1", "move": "2@23", "instance": "prb13171", "distance_to_goal": "NA", "progress": "NA", "move_number": "6", "optimal_length": "7", "subject": "A2MYB6MLQW0IGN:3TYCR1GOTDRCCQYD1V64UK7OE48LZS"}
{"meta_move": "win", "rt": "993.0", "trial_number": "1", "pre_actions": "1", "move": "r@13", "instance": "prb13171", "distance_to_goal": "1", "progress": "NA", "move_number": "7", "optimal_length": "7", "subject": "A2MYB6MLQW0IGN:3TYCR1GOTDRCCQYD1V64UK7OE48LZS"}
{"meta_move": "drag_end", "rt": "71.0", "trial_number": "0", "pre_actions": "0", "move": "r@16", "instance": "prb13171", "distance_to_goal": "NA", "progress": "NA", "move_number": "7", "optimal_length": "7", "subject": "A2MYB6MLQW0IGN:3TYCR1GOTDRCCQYD1V64UK7OE48LZS"}
{"meta_move": "drag_end", "rt": "3474.0", "trial_number": "1", "pre_actions": "1", "move": "1@19", "instance": "prb13171", "distance_to_goal": "NA", "progress": "NA", "move_number": "0", "optimal_length": "7", "subject": "A2RTJ6BDY0DZVZ:3IJXV6UZ1YR1KY4G6BFEG1DXP7SRI1"}
{"meta_move": "drag_end", "rt": "1636.0", "trial_number": "1", "pre_actions": "1", "move": "0@15", "instance": "prb13171", "distance_to_goal": "NA", "progress": "NA", "move_number": "1", "optimal_length": "7", "subject": "A2RTJ6BDY0DZVZ:3IJXV6UZ1YR1KY4G6BFEG1DXP7SRI1"}
{"meta_move": "drag_end", "rt": "1067.0", "trial_number": "1", "pre_actions": "1", "move": "4@25", "instance": "prb13171", "distance_to_goal": "NA", "progress": "NA", "move_number": "2", "optimal_length": "7", "subject": "A2RTJ6BDY0DZVZ:3IJXV6UZ1YR1KY4G6BFEG1DXP7SRI1"}
{"meta_move": "drag_end", "rt": "741.0", "trial_number": "1", "pre_actions": "1", "move": "0@27", "instance": "prb13171", "distance_to_goal": "NA", "progress": "NA", "move_number": "3", "optimal_length": "7", "subject": "A2RTJ6BDY0DZVZ:3IJXV6UZ1YR1KY4G6BFEG1DXP7SRI1"}
{"meta_move": "drag_end", "rt": "702.0", "trial_number": "1", "pre_actions": "1", "move": "2@23", "instance": "prb13171", "distance_to_goal": "NA", "progress": "NA", "move_number": "4", "optimal_length": "7", "subject": "A2RTJ6BDY0DZVZ:3IJXV6UZ1YR1KY4G6BFEG1DXP7SRI1"}
{"meta_move": "win", "rt": "954.0", "trial_number": "1", "pre_actions": "1", "move": "r@13", "instance": "prb13171", "distance_to_goal": "1", "progress": "NA", "move_number": "5", "optimal_length": "7", "subject": "A2RTJ6BDY0DZVZ:3IJXV6UZ1YR1KY4G6BFEG1DXP7SRI1"}
{"meta_move": "drag_end", "rt": "379.0", "trial_number": "0", "pre_actions": "0", "move": "r@16", "instance": "prb13171", "distance_to_goal": "NA", "progress": "NA", "move_number": "5", "optimal_length": "7", "subject": "A2RTJ6BDY0DZVZ:3IJXV6UZ1YR1KY4G6BFEG1DXP7SRI1"}
{"meta_move": "drag_end", "rt": "1631.0", "trial_number": "1", "pre_actions": "1", "move": "1@19", "instance": "prb13171", "distance_to_goal": "NA", "progress": "NA", "move_number": "0", "optimal_length": "7", "subject": "A2TQNX64349OZ9:3WSELTNVR4AZUVYAYCSWZIQW0J4ATB"}
{"meta_move": "drag_end", "rt": "971.0", "trial_number": "1", "pre_actions": "1", "move": "2@5", "instance": "prb13171", "distance_to_goal": "NA", "progress": "NA", "move_number": "1", "optimal_length": "7", "subject": "A2TQNX64349OZ9:3WSELTNVR4AZUVYAYCSWZIQW0J4ATB"}
{"meta_move": "drag_end", "rt": "1287.0", "trial_number": "1", "pre_actions": "1", "move": "0@9", "instance": "prb13171", "distance_to_goal": "NA", "progress": "NA", "move_number": "2", "optimal_length": "7", "subject": "A2TQNX64349OZ9:3WSELTNVR4AZUVYAYCSWZIQW0J4ATB"}
{"meta_move": "drag_end", "rt": "813.0", "trial_number": "1", "pre_actions": "1", "move": "4@25", "instance": "prb13171", "distance_to_goal": "NA", "progress": "NA", "move_number": "3", "optimal_length": "7", "subject": "A2TQNX64349OZ9:3WSELTNVR4AZUVYAYCSWZIQW0J4ATB"}
{"meta_move": "drag_end", "rt": "731.0", "trial_number": "1", "pre_actions": "1", "move": "2@23", "instance": "prb13171", "distance_to_goal": "NA", "progress": "NA", "move_number": "4", "optimal_length": "7", "subject": "A2TQNX64349OZ9:3WSELTNVR4AZUVYAYCSWZIQW0J4ATB"}
{"meta_move": "drag_end", "rt": "605.0", "trial_number": "1", "pre_actions": "1", "move": "0@27", "instance": "prb13171", "distance_to_goal": "NA", "progress": "NA", "move_number": "5", "optimal_length": "7", "subject": "A2TQNX64349OZ9:3WSELTNVR4AZUVYAYCSWZIQW0J4ATB"}
{"meta_move": "drag_end", "rt": "469.0", "trial_number": "1", "pre_actions": "1", "move": "r@13", "instance": "prb13171", "distance_to_goal": "NA", "progress": "NA", "move_number": "6", "optimal_length": "7", "subject": "A2TQNX64349OZ9:3WSELTNVR4AZUVYAYCSWZIQW0J4ATB"}
{"meta_move": "win", "rt": "425.0", "trial_number": "1", "pre_actions": "1", "move": "r@13", "instance": "prb13171", "distance_to_goal": "1", "progress": "NA", "move_number": "6", "optimal_length": "7", "subject": "A2TQNX64349OZ9:3WSELTNVR4AZUVYAYCSWZIQW0J4ATB"}
{"meta_move": "drag_end", "rt": "113.0", "trial_number": "0", "pre_actions": "0", "move": "r@16", "instance": "prb13171", "distance_to_goal": "NA", "progress": "NA", "move_number": "6", "optimal_length": "7", "subject": "A2TQNX64349OZ9:3WSELTNVR4AZUVYAYCSWZIQW0J4ATB"}
{"meta_move": "drag_end", "rt": "155459.0", "trial_number": "1", "pre_actions": "1", "move": "6@4", "instance": "prb13171", "distance_to_goal": "NA", "progress": "NA", "move_number": "0", "optimal_length": "7", "subject": "A39GADIK8RLMVC:36AHBNMV1SKT9O0GSS6XX0QHZV3YDN"}
{"meta_move": "drag_end", "rt": "1696.0", "trial_number": "1", "pre_actions": "1", "move": "1@19", "instance": "prb13171", "distance_to_goal": "NA", "progress": "NA", "move_number": "1", "optimal_length": "7", "subject": "A39GADIK8RLMVC:36AHBNMV1SKT9O0GSS6XX0QHZV3YDN"}
{"meta_move": "drag_end", "rt": "2248.0", "trial_number": "1", "pre_actions": "1", "move": "0@3", "instance": "prb13171", "distance_to_goal": "NA", "progress": "NA", "move_number": "2", "optimal_length": "7", "subject": "A39GADIK8RLMVC:36AHBNMV1SKT9O0GSS6XX0QHZV3YDN"}
{"meta_move": "drag_end", "rt": "696.0", "trial_number": "1", "pre_actions": "1", "move": "4@25", "instance": "prb13171", "distance_to_goal": "NA", "progress": "NA", "move_number": "3", "optimal_length": "7", "subject": "A39GADIK8RLMVC:36AHBNMV1SKT9O0GSS6XX0QHZV3YDN"}
{"meta_move": "drag_end", "rt": "617.0", "trial_number": "1", "pre_actions": "1", "move": "2@23", "instance": "prb13171", "distance_to_goal": "NA", "progress": "NA", "move_number": "4", "optimal_length": "7", "subject": "A39GADIK8RLMVC:36AHBNMV1SKT9O0GSS6XX0QHZV3YDN"}
{"meta_move": "win", "rt": "586.0", "trial_number": "1", "pre_actions": "1", "move": "r@13", "instance": "prb13171", "distance_to_goal": "1", "progress": "NA", "move_number": "5", "optimal_length": "7", "subject": "A39GADIK8RLMVC:36AHBNMV1SKT9O0GSS6XX0QHZV3YDN"}
{"meta_move": "drag_end", "rt": "85.0", "trial_number": "0", "pre_actions": "0", "move": "r@16", "instance": "prb13171", "distance_to_goal": "NA", "progress": "NA", "move_number": "5", "optimal_length": "7", "subject": "A39GADIK8RLMVC:36AHBNMV1SKT9O0GSS6XX0QHZV3YDN"}
{"meta_move": "drag_end", "rt": "1915.0", "trial_number": "7", "pre_actions": "1", "move": "2@5", "instance": "prb13171", "distance_to_goal": "NA", "progress": "NA", "move_number": "0", "optimal_length": "7", "subject": "A3NMQ3019X6YE0:3I2PTA7R3U2SESF4TZBQORI5LSJQKK"}
{"meta_move": "drag_end", "rt": "2337.0", "trial_number": "7", "pre_actions": "1", "move": "2@5", "instance": "prb13171", "distance_to_goal": "NA", "progress": "NA", "move_number": "1", "optimal_length": "7", "subject": "A3NMQ3019X6YE0:3I2PTA7R3U2SESF4TZBQORI5LSJQKK"}
{"meta_move": "drag_end", "rt": "1175.0", "trial_number": "7", "pre_actions": "1", "move": "1@21", "instance": "prb13171", "distance_to_goal": "NA", "progress": "NA", "move_number": "1", "optimal_length": "7", "subject": "A3NMQ3019X6YE0:3I2PTA7R3U2SESF4TZBQORI5LSJQKK"}
{"meta_move": "drag_end", "rt": "1863.0", "trial_number": "7", "pre_actions": "1", "move": "r@15", "instance": "prb13171", "distance_to_goal": "NA", "progress": "NA", "move_number": "2", "optimal_length": "7", "subject": "A3NMQ3019X6YE0:3I2PTA7R3U2SESF4TZBQORI5LSJQKK"}
{"meta_move": "drag_end", "rt": "3791.0", "trial_number": "7", "pre_actions": "1", "move": "1@21", "instance": "prb13171", "distance_to_goal": "NA", "progress": "NA", "move_number": "3", "optimal_length": "7", "subject": "A3NMQ3019X6YE0:3I2PTA7R3U2SESF4TZBQORI5LSJQKK"}
{"meta_move": "drag_end", "rt": "833.0", "trial_number": "7", "pre_actions": "1", "move": "1@21", "instance": "prb13171", "distance_to_goal": "NA", "progress": "NA", "move_number": "3", "optimal_length": "7", "subject": "A3NMQ3019X6YE0:3I2PTA7R3U2SESF4TZBQORI5LSJQKK"}
{"meta_move": "drag_end", "rt": "4936.0", "trial_number": "7", "pre_actions": "1", "move": "2@5", "instance": "prb13171", "distance_to_goal": "NA", "progress": "NA", "move_number": "3", "optimal_length": "7", "subject": "A3NMQ3019X6YE0:3I2PTA7R3U2SESF4TZBQORI5LSJQKK"}
{"meta_move": "drag_end", "rt": "1952.0", "trial_number": "7", "pre_actions": "1", "move": "1@21", "instance": "prb13171", "distance_to_goal": "NA", "progress": "NA", "move_number": "3", "optimal_length": "7", "subject": "A3NMQ3019X6YE0:3I2PTA7R3U2SESF4TZBQORI5LSJQKK"}
{"meta_move": "drag_end", "rt": "7093.0", "trial_number": "7", "pre_actions": "1", "move": "r@15", "instance": "prb13171", "distance_to_goal": "NA", "progress": "NA", "move_number": "3", "optimal_length": "7", "subject": "A3NMQ3019X6YE0:3I2PTA7R3U2SESF4TZBQORI5LSJQKK"}
{"meta_move": "drag_end", "rt": "15363.0", "trial_number": "7", "pre_actions": "1", "move": "2@5", "instance": "prb13171", "distance_to_goal": "NA", "progress": "NA", "move_number": "3", "optimal_length": "7", "subject": "A3NMQ3019X6YE0:3I2PTA7R3U2SESF4TZBQORI5LSJQKK"}
{"meta_move": "drag_end", "rt": "750.0", "trial_number": "7", "pre_actions": "1", "move": "2@5", "instance": "prb13171", "distance_to_goal": "NA", "progress": "NA", "move_number": "3", "optimal_length": "7", "subject": "A3NMQ3019X6YE0:3I2PTA7R3U2SESF4TZBQORI5LSJQKK"}
{"meta_move": "drag_end", "rt": "1106.0", "trial_number": "7", "pre_actions": "1", "move": "r@15", "instance": "prb13171", "distance_to_goal": "NA", "progress": "NA", "move_number": "3", "optimal_length": "7", "subject": "A3NMQ3019X6YE0:3I2PTA7R3U2SESF4TZBQORI5LSJQKK"}
{"meta_move": "drag_end", "rt": "3472.0", "trial_number": "7", "pre_actions": "1", "move": "1@21", "instance": "prb13171", "distance_to_goal": "NA", "progress": "NA", "move_number": "3", "optimal_length": "7", "subject": "A3NMQ3019X6YE0:3I2PTA7R3U2SESF4TZBQORI5LSJQKK"}
{"meta_move": "drag_end", "rt": "2907.0", "trial_number": "8", "pre_actions": "1", "move": "r@15", "instance": "prb13171", "distance_to_goal": "NA", "progress": "NA", "move_number": "0", "optimal_length": "7", "subject": "A3NMQ3019X6YE0:3I2PTA7R3U2SESF4TZBQORI5LSJQKK"}
{"meta_move": "drag_end", "rt": "1576.0", "trial_number": "8", "pre_actions": "1", "move": "1@19", "instance": "prb13171", "distance_to_goal": "NA", "progress": "NA", "move_number": "1", "optimal_length": "7", "subject": "A3NMQ3019X6YE0:3I2PTA7R3U2SESF4TZBQORI5LSJQKK"}
{"meta_move": "drag_end", "rt": "3112.0", "trial_number": "8", "pre_actions": "1", "move": "6@4", "instance": "prb13171", "distance_to_goal": "NA", "progress": "NA", "move_number": "2", "optimal_length": "7", "subject": "A3NMQ3019X6YE0:3I2PTA7R3U2SESF4TZBQORI5LSJQKK"}
{"meta_move": "drag_end", "rt": "912.0", "trial_number": "8", "pre_actions": "1", "move": "5@1", "instance": "prb13171", "distance_to_goal": "NA", "progress": "NA", "move_number": "3", "optimal_length": "7", "subject": "A3NMQ3019X6YE0:3I2PTA7R3U2SESF4TZBQORI5LSJQKK"}
{"meta_move": "drag_end", "rt": "977.0", "trial_number": "8", "pre_actions": "1", "move": "7@0", "instance": "prb13171", "distance_to_goal": "NA", "progress": "NA", "move_number": "4", "optimal_length": "7", "subject": "A3NMQ3019X6YE0:3I2PTA7R3U2SESF4TZBQORI5LSJQKK"}
{"meta_move": "drag_end", "rt": "3686.0", "trial_number": "8", "pre_actions": "1", "move": "3@12", "instance": "prb13171", "distance_to_goal": "NA", "progress": "NA", "move_number": "5", "optimal_length": "7", "subject": "A3NMQ3019X6YE0:3I2PTA7R3U2SESF4TZBQORI5LSJQKK"}
{"meta_move": "drag_end", "rt": "1666.0", "trial_number": "8", "pre_actions": "1", "move": "3@18", "instance": "prb13171", "distance_to_goal": "NA", "progress": "NA", "move_number": "6", "optimal_length": "7", "subject": "A3NMQ3019X6YE0:3I2PTA7R3U2SESF4TZBQORI5LSJQKK"}
{"meta_move": "drag_end", "rt": "1682.0", "trial_number": "8", "pre_actions": "1", "move": "r@14", "instance": "prb13171", "distance_to_goal": "NA", "progress": "NA", "move_number": "7", "optimal_length": "7", "subject": "A3NMQ3019X6YE0:3I2PTA7R3U2SESF4TZBQORI5LSJQKK"}
{"meta_move": "drag_end", "rt": "1224.0", "trial_number": "8", "pre_actions": "1", "move": "r@12", "instance": "prb13171", "distance_to_goal": "NA", "progress": "NA", "move_number": "8", "optimal_length": "7", "subject": "A3NMQ3019X6YE0:3I2PTA7R3U2SESF4TZBQORI5LSJQKK"}
{"meta_move": "drag_end", "rt": "1082.0", "trial_number": "8", "pre_actions": "1", "move": "0@9", "instance": "prb13171", "distance_to_goal": "NA", "progress": "NA", "move_number": "9", "optimal_length": "7", "subject": "A3NMQ3019X6YE0:3I2PTA7R3U2SESF4TZBQORI5LSJQKK"}
{"meta_move": "drag_end", "rt": "1850.0", "trial_number": "8", "pre_actions": "1", "move": "1@21", "instance": "prb13171", "distance_to_goal": "NA", "progress": "NA", "move_number": "10", "optimal_length": "7", "subject": "A3NMQ3019X6YE0:3I2PTA7R3U2SESF4TZBQORI5LSJQKK"}
{"meta_move": "drag_end", "rt": "2054.0", "trial_number": "8", "pre_actions": "1", "move": "4@27", "instance": "prb13171", "distance_to_goal": "NA", "progress": "NA", "move_number": "11", "optimal_length": "7", "subject": "A3NMQ3019X6YE0:3I2PTA7R3U2SESF4TZBQORI5LSJQKK"}
{"meta_move": "drag_end", "rt": "995.0", "trial_number": "8", "pre_actions": "1", "move": "2@23", "instance": "prb13171", "distance_to_goal": "NA", "progress": "NA", "move_number": "12", "optimal_length": "7", "subject": "A3NMQ3019X6YE0:3I2PTA7R3U2SESF4TZBQORI5LSJQKK"}
{"meta_move": "drag_end", "rt": "1839.0", "trial_number": "8", "pre_actions": "1", "move": "r@13", "instance": "prb13171", "distance_to_goal": "NA", "progress": "NA", "move_number": "13", "optimal_length": "7", "subject": "A3NMQ3019X6YE0:3I2PTA7R3U2SESF4TZBQORI5LSJQKK"}
{"meta_move": "drag_end", "rt": "1085.0", "trial_number": "8", "pre_actions": "1", "move": "3@12", "instance": "prb13171", "distance_to_goal": "NA", "progress": "NA", "move_number": "14", "optimal_length": "7", "subject": "A3NMQ3019X6YE0:3I2PTA7R3U2SESF4TZBQORI5LSJQKK"}
{"meta_move": "drag_end", "rt": "2107.0", "trial_number": "8", "pre_actions": "1", "move": "3@18", "instance": "prb13171", "distance_to_goal": "NA", "progress": "NA", "move_number": "15", "optimal_length": "7", "subject": "A3NMQ3019X6YE0:3I2PTA7R3U2SESF4TZBQORI5LSJQKK"}
{"meta_move": "drag_end", "rt": "1921.0", "trial_number": "8", "pre_actions": "1", "move": "r@12", "instance": "prb13171", "distance_to_goal": "NA", "progress": "NA", "move_number": "16", "optimal_length": "7", "subject": "A3NMQ3019X6YE0:3I2PTA7R3U2SESF4TZBQORI5LSJQKK"}
{"meta_move": "drag_end", "rt": "2391.0", "trial_number": "8", "pre_actions": "1", "move": "1@19", "instance": "prb13171", "distance_to_goal": "NA", "progress": "NA", "move_number": "17", "optimal_length": "7", "subject": "A3NMQ3019X6YE0:3I2PTA7R3U2SESF4TZBQORI5LSJQKK"}
{"meta_move": "drag_end", "rt": "1300.0", "trial_number": "8", "pre_actions": "1", "move": "4@25", "instance": "prb13171", "distance_to_goal": "NA", "progress": "NA", "move_number": "18", "optimal_length": "7", "subject": "A3NMQ3019X6YE0:3I2PTA7R3U2SESF4TZBQORI5LSJQKK"}
{"meta_move": "drag_end", "rt": "1053.0", "trial_number": "8", "pre_actions": "1", "move": "0@27", "instance": "prb13171", "distance_to_goal": "NA", "progress": "NA", "move_number": "19", "optimal_length": "7", "subject": "A3NMQ3019X6YE0:3I2PTA7R3U2SESF4TZBQORI5LSJQKK"}
{"meta_move": "win", "rt": "1098.0", "trial_number": "8", "pre_actions": "1", "move": "r@12", "instance": "prb13171", "distance_to_goal": "1", "progress": "NA", "move_number": "20", "optimal_length": "7", "subject": "A3NMQ3019X6YE0:3I2PTA7R3U2SESF4TZBQORI5LSJQKK"}
{"meta_move": "drag_end", "rt": "118.0", "trial_number": "0", "pre_actions": "0", "move": "r@16", "instance": "prb13171", "distance_to_goal": "NA", "progress": "NA", "move_number": "20", "optimal_length": "7", "subject": "A3NMQ3019X6YE0:3I2PTA7R3U2SESF4TZBQORI5LSJQKK"}
{"meta_move": "drag_end", "rt": "5099.0", "trial_number": "2", "pre_actions": "1", "move": "1@19", "instance": "prb13171", "distance_to_goal": "NA", "progress": "NA", "move_number": "0", "optimal_length": "7", "subject": "A3Q0XAGQ7TD7MP:3X87C8JFV7JQ2BSCY8KSFD9F2ILSQK"}
{"meta_move": "drag_end", "rt": "2021.0", "trial_number": "2", "pre_actions": "1", "move": "6@4", "instance": "prb13171", "distance_to_goal": "NA", "progress": "NA", "move_number": "1", "optimal_length": "7", "subject": "A3Q0XAGQ7TD7MP:3X87C8JFV7JQ2BSCY8KSFD9F2ILSQK"}
{"meta_move": "drag_end", "rt": "1247.0", "trial_number": "2", "pre_actions": "1", "move": "0@3", "instance": "prb13171", "distance_to_goal": "NA", "progress": "NA", "move_number": "2", "optimal_length": "7", "subject": "A3Q0XAGQ7TD7MP:3X87C8JFV7JQ2BSCY8KSFD9F2ILSQK"}
{"meta_move": "drag_end", "rt": "1064.0", "trial_number": "2", "pre_actions": "1", "move": "4@25", "instance": "prb13171", "distance_to_goal": "NA", "progress": "NA", "move_number": "3", "optimal_length": "7", "subject": "A3Q0XAGQ7TD7MP:3X87C8JFV7JQ2BSCY8KSFD9F2ILSQK"}
{"meta_move": "drag_end", "rt": "1160.0", "trial_number": "2", "pre_actions": "1", "move": "2@23", "instance": "prb13171", "distance_to_goal": "NA", "progress": "NA", "move_number": "4", "optimal_length": "7", "subject": "A3Q0XAGQ7TD7MP:3X87C8JFV7JQ2BSCY8KSFD9F2ILSQK"}
{"meta_move": "win", "rt": "963.0", "trial_number": "2", "pre_actions": "1", "move": "r@13", "instance": "prb13171", "distance_to_goal": "1", "progress": "NA", "move_number": "5", "optimal_length": "7", "subject": "A3Q0XAGQ7TD7MP:3X87C8JFV7JQ2BSCY8KSFD9F2ILSQK"}
{"meta_move": "drag_end", "rt": "75.0", "trial_number": "0", "pre_actions": "0", "move": "r@16", "instance": "prb13171", "distance_to_goal": "NA", "progress": "NA", "move_number": "5", "optimal_length": "7", "subject": "A3Q0XAGQ7TD7MP:3X87C8JFV7JQ2BSCY8KSFD9F2ILSQK"}
{"meta_move": "drag_end", "rt": "1647.0", "trial_number": "1", "pre_actions": "1", "move": "r@15", "instance": "prb13171", "distance_to_goal": "NA", "progress": "NA", "move_number": "0", "optimal_length": "7", "subject": "AYPOAY43REHC8:3ON104KXQL4CKNMNKGNG9ZBVBAB4WI"}
{"meta_move": "drag_end", "rt": "4310.0", "trial_number": "1", "pre_actions": "1", "move": "1@19", "instance": "prb13171", "distance_to_goal": "NA", "progress": "NA", "move_number": "1", "optimal_length": "7", "subject": "AYPOAY43REHC8:3ON104KXQL4CKNMNKGNG9ZBVBAB4WI"}
{"meta_move": "drag_end", "rt": "1481.0", "trial_number": "1", "pre_actions": "1", "move": "0@27", "instance": "prb13171", "distance_to_goal": "NA", "progress": "NA", "move_number": "2", "optimal_length": "7", "subject": "AYPOAY43REHC8:3ON104KXQL4CKNMNKGNG9ZBVBAB4WI"}
{"meta_move": "drag_end", "rt": "587.0", "trial_number": "1", "pre_actions": "1", "move": "r@13", "instance": "prb13171", "distance_to_goal": "NA", "progress": "NA", "move_number": "2", "optimal_length": "7", "subject": "AYPOAY43REHC8:3ON104KXQL4CKNMNKGNG9ZBVBAB4WI"}
{"meta_move": "drag_end", "rt": "1003.0", "trial_number": "1", "pre_actions": "1", "move": "0@9", "instance": "prb13171", "distance_to_goal": "NA", "progress": "NA", "move_number": "3", "optimal_length": "7", "subject": "AYPOAY43REHC8:3ON104KXQL4CKNMNKGNG9ZBVBAB4WI"}
{"meta_move": "drag_end", "rt": "729.0", "trial_number": "1", "pre_actions": "1", "move": "4@25", "instance": "prb13171", "distance_to_goal": "NA", "progress": "NA", "move_number": "4", "optimal_length": "7", "subject": "AYPOAY43REHC8:3ON104KXQL4CKNMNKGNG9ZBVBAB4WI"}
{"meta_move": "drag_end", "rt": "682.0", "trial_number": "1", "pre_actions": "1", "move": "2@23", "instance": "prb13171", "distance_to_goal": "NA", "progress": "NA", "move_number": "5", "optimal_length": "7", "subject": "AYPOAY43REHC8:3ON104KXQL4CKNMNKGNG9ZBVBAB4WI"}
{"meta_move": "drag_end", "rt": "641.0", "trial_number": "1", "pre_actions": "1", "move": "0@27", "instance": "prb13171", "distance_to_goal": "NA", "progress": "NA", "move_number": "6", "optimal_length": "7", "subject": "AYPOAY43REHC8:3ON104KXQL4CKNMNKGNG9ZBVBAB4WI"}
{"meta_move": "win", "rt": "632.0", "trial_number": "1", "pre_actions": "1", "move": "r@13", "instance": "prb13171", "distance_to_goal": "1", "progress": "NA", "move_number": "7", "optimal_length": "7", "subject": "AYPOAY43REHC8:3ON104KXQL4CKNMNKGNG9ZBVBAB4WI"}
{"meta_move": "drag_end", "rt": "309.0", "trial_number": "0", "pre_actions": "0", "move": "r@16", "instance": "prb13171", "distance_to_goal": "NA", "progress": "NA", "move_number": "7", "optimal_length": "7", "subject": "AYPOAY43REHC8:3ON104KXQL4CKNMNKGNG9ZBVBAB4WI"}
