{"meta_move": "drag_end", "rt": "1838.0", "trial_number": "6", "pre_actions": "1", "move": "1@9", "instance": "prb12715", "distance_to_goal": "NA", "progress": "NA", "move_number": "0", "optimal_length": "11", "subject": "A15FXHC1CVNW31:3TS1AR6UQRM7SOIBWPBN8N9589Y7FV"}
{"meta_move": "drag_end", "rt": "1617.0", "trial_number": "6", "pre_actions": "1", "move": "1@9", "instance": "prb12715", "distance_to_goal": "NA", "progress": "NA", "move_number": "1", "optimal_length": "11", "subject": "A15FXHC1CVNW31:3TS1AR6UQRM7SOIBWPBN8N9589Y7FV"}
{"meta_move": "drag_end", "rt": "851.0", "trial_number": "6", "pre_actions": "1", "move": "1@9", "instance": "prb12715", "distance_to_goal": "NA", "progress": "NA", "move_number": "1", "optimal_length": "11", "subject": "A15FXHC1CVNW31:3TS1AR6UQRM7SOIBWPBN8N9589Y7FV"}
{"meta_move": "drag_end", "rt": "2214.0", "trial_number": "6", "pre_actions": "1", "move": "6@4", "instance": "prb12715", "distance_to_goal": "NA", "progress": "NA", "move_number": "1", "optimal_length": "11", "subject": "A15FXHC1CVNW31:3TS1AR6UQRM7SOIBWPBN8N9589Y7FV"}
{"meta_move": "drag_end", "rt": "860.0", "trial_number": "6", "pre_actions": "1", "move": "1@3", "instance": "prb12715", "distance_to_goal": "NA", "progress": "NA", "move_number": "2", "optimal_length": "11", "subject": "A15FXHC1CVNW31:3TS1AR6UQRM7SOIBWPBN8N9589Y7FV"}
{"meta_move": "drag_end", "rt": "1064.0", "trial_number": "6", "pre_actions": "1", "move": "0@23", "instance": "prb12715", "distance_to_goal": "NA", "progress": "NA", "move_number": "3", "optimal_length": "11", "subject": "A15FXHC1CVNW31:3TS1AR6UQRM7SOIBWPBN8N9589Y7FV"}
{"meta_move": "drag_end", "rt": "1788.0", "trial_number": "6", "pre_actions": "1", "move": "4@8", "instance": "prb12715", "distance_to_goal": "NA", "progress": "NA", "move_number": "4", "optimal_length": "11", "subject": "A15FXHC1CVNW31:3TS1AR6UQRM7SOIBWPBN8N9589Y7FV"}
{"meta_move": "drag_end", "rt": "1563.0", "trial_number": "6", "pre_actions": "1", "move": "1@9", "instance": "prb12715", "distance_to_goal": "NA", "progress": "NA", "move_number": "5", "optimal_length": "11", "subject": "A15FXHC1CVNW31:3TS1AR6UQRM7SOIBWPBN8N9589Y7FV"}
{"meta_move": "drag_end", "rt": "967.0", "trial_number": "6", "pre_actions": "1", "move": "6@16", "instance": "prb12715", "distance_to_goal": "NA", "progress": "NA", "move_number": "6", "optimal_length": "11", "subject": "A15FXHC1CVNW31:3TS1AR6UQRM7SOIBWPBN8N9589Y7FV"}
{"meta_move": "drag_end", "rt": "1458.0", "trial_number": "6", "pre_actions": "1", "move": "1@3", "instance": "prb12715", "distance_to_goal": "NA", "progress": "NA", "move_number": "7", "optimal_length": "11", "subject": "A15FXHC1CVNW31:3TS1AR6UQRM7SOIBWPBN8N9589Y7FV"}
{"meta_move": "drag_end", "rt": "921.0", "trial_number": "6", "pre_actions": "1", "move": "1@3", "instance": "prb12715", "distance_to_goal": "NA", "progress": "NA", "move_number": "8", "optimal_length": "11", "subject": "A15FXHC1CVNW31:3TS1AR6UQRM7SOIBWPBN8N9589Y7FV"}
{"meta_move": "drag_end", "rt": "718.0", "trial_number": "6", "pre_actions": "1", "move": "4@8", "instance": "prb12715", "distance_to_goal": "NA", "progress": "NA", "move_number": "8", "optimal_length": "11", "subject": "A15FXHC1CVNW31:3TS1AR6UQRM7SOIBWPBN8N9589Y7FV"}
{"meta_move": "drag_end", "rt": "1268.0", "trial_number": "6", "pre_actions": "1", "move": "5@30", "instance": "prb12715", "distance_to_goal": "NA", "progress": "NA", "move_number": "8", "optimal_length": "11", "subject": "A15FXHC1CVNW31:3TS1AR6UQRM7SOIBWPBN8N9589Y7FV"}
{"meta_move": "drag_end", "rt": "1517.0", "trial_number": "6", "pre_actions": "1", "move": "6@4", "instance": "prb12715", "distance_to_goal": "NA", "progress": "NA", "move_number": "9", "optimal_length": "11", "subject": "A15FXHC1CVNW31:3TS1AR6UQRM7SOIBWPBN8N9589Y7FV"}
{"meta_move": "drag_end", "rt": "1644.0", "trial_number": "6", "pre_actions": "1", "move": "0@11", "instance": "prb12715", "distance_to_goal": "NA", "progress": "NA", "move_number": "10", "optimal_length": "11", "subject": "A15FXHC1CVNW31:3TS1AR6UQRM7SOIBWPBN8N9589Y7FV"}
{"meta_move": "drag_end", "rt": "4583.0", "trial_number": "7", "pre_actions": "1", "move": "0@23", "instance": "prb12715", "distance_to_goal": "NA", "progress": "NA", "move_number": "0", "optimal_length": "11", "subject": "A15FXHC1CVNW31:3TS1AR6UQRM7SOIBWPBN8N9589Y7FV"}
{"meta_move": "drag_end", "rt": "1506.0", "trial_number": "7", "pre_actions": "1", "move": "6@4", "instance": "prb12715", "distance_to_goal": "NA", "progress": "NA", "move_number": "1", "optimal_length": "11", "subject": "A15FXHC1CVNW31:3TS1AR6UQRM7SOIBWPBN8N9589Y7FV"}
{"meta_move": "drag_end", "rt": "1394.0", "trial_number": "7", "pre_actions": "1", "move": "1@3", "instance": "prb12715", "distance_to_goal": "NA", "progress": "NA", "move_number": "2", "optimal_length": "11", "subject": "A15FXHC1CVNW31:3TS1AR6UQRM7SOIBWPBN8N9589Y7FV"}
{"meta_move": "drag_end", "rt": "1499.0", "trial_number": "7", "pre_actions": "1", "move": "5@33", "instance": "prb12715", "distance_to_goal": "NA", "progress": "NA", "move_number": "3", "optimal_length": "11", "subject": "A15FXHC1CVNW31:3TS1AR6UQRM7SOIBWPBN8N9589Y7FV"}
{"meta_move": "drag_end", "rt": "733.0", "trial_number": "7", "pre_actions": "1", "move": "2@26", "instance": "prb12715", "distance_to_goal": "NA", "progress": "NA", "move_number": "4", "optimal_length": "11", "subject": "A15FXHC1CVNW31:3TS1AR6UQRM7SOIBWPBN8N9589Y7FV"}
{"meta_move": "drag_end", "rt": "1300.0", "trial_number": "7", "pre_actions": "1", "move": "7@21", "instance": "prb12715", "distance_to_goal": "NA", "progress": "NA", "move_number": "5", "optimal_length": "11", "subject": "A15FXHC1CVNW31:3TS1AR6UQRM7SOIBWPBN8N9589Y7FV"}
{"meta_move": "drag_end", "rt": "1915.0", "trial_number": "7", "pre_actions": "1", "move": "4@8", "instance": "prb12715", "distance_to_goal": "NA", "progress": "NA", "move_number": "6", "optimal_length": "11", "subject": "A15FXHC1CVNW31:3TS1AR6UQRM7SOIBWPBN8N9589Y7FV"}
{"meta_move": "drag_end", "rt": "1079.0", "trial_number": "7", "pre_actions": "1", "move": "2@24", "instance": "prb12715", "distance_to_goal": "NA", "progress": "NA", "move_number": "7", "optimal_length": "11", "subject": "A15FXHC1CVNW31:3TS1AR6UQRM7SOIBWPBN8N9589Y7FV"}
{"meta_move": "drag_end", "rt": "977.0", "trial_number": "7", "pre_actions": "1", "move": "5@30", "instance": "prb12715", "distance_to_goal": "NA", "progress": "NA", "move_number": "8", "optimal_length": "11", "subject": "A15FXHC1CVNW31:3TS1AR6UQRM7SOIBWPBN8N9589Y7FV"}
{"meta_move": "drag_end", "rt": "1025.0", "trial_number": "7", "pre_actions": "1", "move": "0@23", "instance": "prb12715", "distance_to_goal": "NA", "progress": "NA", "move_number": "9", "optimal_length": "11", "subject": "A15FXHC1CVNW31:3TS1AR6UQRM7SOIBWPBN8N9589Y7FV"}
{"meta_move": "drag_end", "rt": "434.0", "trial_number": "7", "pre_actions": "1", "move": "0@5", "instance": "prb12715", "distance_to_goal": "NA", "progress": "NA", "move_number": "9", "optimal_length": "11", "subject": "A15FXHC1CVNW31:3TS1AR6UQRM7SOIBWPBN8N9589Y7FV"}
{"meta_move": "drag_end", "rt": "678.0", "trial_number": "7", "pre_actions": "1", "move": "7@22", "instance": "prb12715", "distance_to_goal": "NA", "progress": "NA", "move_number": "10", "optimal_length": "11", "subject": "A15FXHC1CVNW31:3TS1AR6UQRM7SOIBWPBN8N9589Y7FV"}
{"meta_move": "drag_end", "rt": "724.0", "trial_number": "7", "pre_actions": "1", "move": "1@27", "instance": "prb12715", "distance_to_goal": "NA", "progress": "NA", "move_number": "11", "optimal_length": "11", "subject": "A15FXHC1CVNW31:3TS1AR6UQRM7SOIBWPBN8N9589Y7FV"}
{"meta_move": "drag_end", "rt": "1095.0", "trial_number": "7", "pre_actions": "1", "move": "6@4", "instance": "prb12715", "distance_to_goal": "NA", "progress": "NA", "move_number": "12", "optimal_length": "11", "subject": "A15FXHC1CVNW31:3TS1AR6UQRM7SOIBWPBN8N9589Y7FV"}
{"meta_move": "drag_end", "rt": "756.0", "trial_number": "7", "pre_actions": "1", "move": "7@21", "instance": "prb12715", "distance_to_goal": "NA", "progress": "NA", "move_number": "12", "optimal_length": "11", "subject": "A15FXHC1CVNW31:3TS1AR6UQRM7SOIBWPBN8N9589Y7FV"}
{"meta_move": "drag_end", "rt": "797.0", "trial_number": "7", "pre_actions": "1", "move": "0@23", "instance": "prb12715", "distance_to_goal": "NA", "progress": "NA", "move_number": "13", "optimal_length": "11", "subject": "A15FXHC1CVNW31:3TS1AR6UQRM7SOIBWPBN8N9589Y7FV"}
{"meta_move": "drag_end", "rt": "2269.0", "trial_number": "7", "pre_actions": "1", "move": "4@2", "instance": "prb12715", "distance_to_goal": "NA", "progress": "NA", "move_number": "14", "optimal_length": "11", "subject": "A15FXHC1CVNW31:3TS1AR6UQRM7SOIBWPBN8N9589Y7FV"}
{"meta_move": "drag_end", "rt": "1332.0", "trial_number": "7", "pre_actions": "1", "move": "7@18", "instance": "prb12715", "distance_to_goal": "NA", "progress": "NA", "move_number": "15", "optimal_length": "11", "subject": "A15FXHC1CVNW31:3TS1AR6UQRM7SOIBWPBN8N9589Y7FV"}
{"meta_move": "drag_end", "rt": "1270.0", "trial_number": "7", "pre_actions": "1", "move": "1@3", "instance": "prb12715", "distance_to_goal": "NA", "progress": "NA", "move_number": "16", "optimal_length": "11", "subject": "A15FXHC1CVNW31:3TS1AR6UQRM7SOIBWPBN8N9589Y7FV"}
{"meta_move": "drag_end", "rt": "1369.0", "trial_number": "7", "pre_actions": "1", "move": "0@5", "instance": "prb12715", "distance_to_goal": "NA", "progress": "NA", "move_number": "17", "optimal_length": "11", "subject": "A15FXHC1CVNW31:3TS1AR6UQRM7SOIBWPBN8N9589Y7FV"}
{"meta_move": "drag_end", "rt": "922.0", "trial_number": "7", "pre_actions": "1", "move": "2@27", "instance": "prb12715", "distance_to_goal": "NA", "progress": "NA", "move_number": "18", "optimal_length": "11", "subject": "A15FXHC1CVNW31:3TS1AR6UQRM7SOIBWPBN8N9589Y7FV"}
{"meta_move": "drag_end", "rt": "703.0", "trial_number": "7", "pre_actions": "1", "move": "4@20", "instance": "prb12715", "distance_to_goal": "NA", "progress": "NA", "move_number": "19", "optimal_length": "11", "subject": "A15FXHC1CVNW31:3TS1AR6UQRM7SOIBWPBN8N9589Y7FV"}
{"meta_move": "drag_end", "rt": "2365.0", "trial_number": "7", "pre_actions": "1", "move": "r@15", "instance": "prb12715", "distance_to_goal": "NA", "progress": "NA", "move_number": "20", "optimal_length": "11", "subject": "A15FXHC1CVNW31:3TS1AR6UQRM7SOIBWPBN8N9589Y7FV"}
{"meta_move": "drag_end", "rt": "700.0", "trial_number": "7", "pre_actions": "1", "move": "4@2", "instance": "prb12715", "distance_to_goal": "NA", "progress": "NA", "move_number": "21", "optimal_length": "11", "subject": "A15FXHC1CVNW31:3TS1AR6UQRM7SOIBWPBN8N9589Y7FV"}
{"meta_move": "drag_end", "rt": "718.0", "trial_number": "7", "pre_actions": "1", "move": "2@24", "instance": "prb12715", "distance_to_goal": "NA", "progress": "NA", "move_number": "22", "optimal_length": "11", "subject": "A15FXHC1CVNW31:3TS1AR6UQRM7SOIBWPBN8N9589Y7FV"}
{"meta_move": "drag_end", "rt": "851.0", "trial_number": "7", "pre_actions": "1", "move": "0@23", "instance": "prb12715", "distance_to_goal": "NA", "progress": "NA", "move_number": "23", "optimal_length": "11", "subject": "A15FXHC1CVNW31:3TS1AR6UQRM7SOIBWPBN8N9589Y7FV"}
{"meta_move": "win", "rt": "524.0", "trial_number": "7", "pre_actions": "1", "move": "r@15", "instance": "prb12715", "distance_to_goal": "1", "progress": "NA", "move_number": "24", "optimal_length": "11", "subject": "A15FXHC1CVNW31:3TS1AR6UQRM7SOIBWPBN8N9589Y7FV"}
{"meta_move": "drag_end", "rt": "114.0", "trial_number": "0", "pre_actions": "0", "move": "r@16", "instance": "prb12715", "distance_to_goal": "NA", "progress": "NA", "move_number": "24", "optimal_length": "11", "subject": "A15FXHC1CVNW31:3TS1AR6UQRM7SOIBWPBN8N9589Y7FV"}
{"meta_move": "drag_end", "rt": "7358.0", "trial_number": "2", "pre_actions": "1", "move": "0@23", "instance": "prb12715", "distance_to_goal": "NA", "progress": "NA", "move_number": "0", "optimal_length": "11", "subject": "A18QU0YQB6Q8DF:3VE8AYVF8N5BS2NU6U3TMN50JMNF8V"}
{"meta_move": "drag_end", "rt": "4161.0", "trial_number": "2", "pre_actions": "1", "move": "6@4", "instance": "prb12715", "distance_to_goal": "NA", "progress": "NA", "move_number": "1", "optimal_length": "11", "subject": "A18QU0YQB6Q8DF:3VE8AYVF8N5BS2NU6U3TMN50JMNF8V"}
{"meta_move": "drag_end", "rt": "1393.0", "trial_number": "2", "pre_actions": "1", "move": "1@3", "instance": "prb12715", "distance_to_goal": "NA", "progress": "NA", "move_number": "2", "optimal_length": "11", "subject": "A18QU0YQB6Q8DF:3VE8AYVF8N5BS2NU6U3TMN50JMNF8V"}
{"meta_move": "drag_end", "rt": "2912.0", "trial_number": "2", "pre_actions": "1", "move": "5@30", "instance": "prb12715", "distance_to_goal": "NA", "progress": "NA", "move_number": "3", "optimal_length": "11", "subject": "A18QU0YQB6Q8DF:3VE8AYVF8N5BS2NU6U3TMN50JMNF8V"}
{"meta_move": "drag_end", "rt": "2827.0", "trial_number": "2", "pre_actions": "1", "move": "7@21", "instance": "prb12715", "distance_to_goal": "NA", "progress": "NA", "move_number": "4", "optimal_length": "11", "subject": "A18QU0YQB6Q8DF:3VE8AYVF8N5BS2NU6U3TMN50JMNF8V"}
{"meta_move": "drag_end", "rt": "3361.0", "trial_number": "2", "pre_actions": "1", "move": "2@24", "instance": "prb12715", "distance_to_goal": "NA", "progress": "NA", "move_number": "5", "optimal_length": "11", "subject": "A18QU0YQB6Q8DF:3VE8AYVF8N5BS2NU6U3TMN50JMNF8V"}
{"meta_move": "drag_end", "rt": "1104.0", "trial_number": "2", "pre_actions": "1", "move": "0@5", "instance": "prb12715", "distance_to_goal": "NA", "progress": "NA", "move_number": "5", "optimal_length": "11", "subject": "A18QU0YQB6Q8DF:3VE8AYVF8N5BS2NU6U3TMN50JMNF8V"}
{"meta_move": "drag_end", "rt": "1096.0", "trial_number": "2", "pre_actions": "1", "move": "2@27", "instance": "prb12715", "distance_to_goal": "NA", "progress": "NA", "move_number": "6", "optimal_length": "11", "subject": "A18QU0YQB6Q8DF:3VE8AYVF8N5BS2NU6U3TMN50JMNF8V"}
{"meta_move": "drag_end", "rt": "1976.0", "trial_number": "2", "pre_actions": "1", "move": "4@20", "instance": "prb12715", "distance_to_goal": "NA", "progress": "NA", "move_number": "7", "optimal_length": "11", "subject": "A18QU0YQB6Q8DF:3VE8AYVF8N5BS2NU6U3TMN50JMNF8V"}
{"meta_move": "drag_end", "rt": "2762.0", "trial_number": "2", "pre_actions": "1", "move": "3@7", "instance": "prb12715", "distance_to_goal": "NA", "progress": "NA", "move_number": "8", "optimal_length": "11", "subject": "A18QU0YQB6Q8DF:3VE8AYVF8N5BS2NU6U3TMN50JMNF8V"}
{"meta_move": "drag_end", "rt": "2029.0", "trial_number": "2", "pre_actions": "1", "move": "3@6", "instance": "prb12715", "distance_to_goal": "NA", "progress": "NA", "move_number": "9", "optimal_length": "11", "subject": "A18QU0YQB6Q8DF:3VE8AYVF8N5BS2NU6U3TMN50JMNF8V"}
{"meta_move": "drag_end", "rt": "1136.0", "trial_number": "2", "pre_actions": "1", "move": "7@22", "instance": "prb12715", "distance_to_goal": "NA", "progress": "NA", "move_number": "10", "optimal_length": "11", "subject": "A18QU0YQB6Q8DF:3VE8AYVF8N5BS2NU6U3TMN50JMNF8V"}
{"meta_move": "drag_end", "rt": "1424.0", "trial_number": "2", "pre_actions": "1", "move": "1@15", "instance": "prb12715", "distance_to_goal": "NA", "progress": "NA", "move_number": "11", "optimal_length": "11", "subject": "A18QU0YQB6Q8DF:3VE8AYVF8N5BS2NU6U3TMN50JMNF8V"}
{"meta_move": "drag_end", "rt": "2350.0", "trial_number": "2", "pre_actions": "1", "move": "4@2", "instance": "prb12715", "distance_to_goal": "NA", "progress": "NA", "move_number": "12", "optimal_length": "11", "subject": "A18QU0YQB6Q8DF:3VE8AYVF8N5BS2NU6U3TMN50JMNF8V"}
{"meta_move": "drag_end", "rt": "1789.0", "trial_number": "2", "pre_actions": "1", "move": "4@20", "instance": "prb12715", "distance_to_goal": "NA", "progress": "NA", "move_number": "13", "optimal_length": "11", "subject": "A18QU0YQB6Q8DF:3VE8AYVF8N5BS2NU6U3TMN50JMNF8V"}
{"meta_move": "drag_end", "rt": "1150.0", "trial_number": "2", "pre_actions": "1", "move": "3@8", "instance": "prb12715", "distance_to_goal": "NA", "progress": "NA", "move_number": "14", "optimal_length": "11", "subject": "A18QU0YQB6Q8DF:3VE8AYVF8N5BS2NU6U3TMN50JMNF8V"}
{"meta_move": "drag_end", "rt": "1612.0", "trial_number": "2", "pre_actions": "1", "move": "4@20", "instance": "prb12715", "distance_to_goal": "NA", "progress": "NA", "move_number": "15", "optimal_length": "11", "subject": "A18QU0YQB6Q8DF:3VE8AYVF8N5BS2NU6U3TMN50JMNF8V"}
{"meta_move": "drag_end", "rt": "6335.0", "trial_number": "3", "pre_actions": "1", "move": "5@30", "instance": "prb12715", "distance_to_goal": "NA", "progress": "NA", "move_number": "0", "optimal_length": "11", "subject": "A18QU0YQB6Q8DF:3VE8AYVF8N5BS2NU6U3TMN50JMNF8V"}
{"meta_move": "drag_end", "rt": "1405.0", "trial_number": "3", "pre_actions": "1", "move": "1@27", "instance": "prb12715", "distance_to_goal": "NA", "progress": "NA", "move_number": "1", "optimal_length": "11", "subject": "A18QU0YQB6Q8DF:3VE8AYVF8N5BS2NU6U3TMN50JMNF8V"}
{"meta_move": "drag_end", "rt": "2008.0", "trial_number": "3", "pre_actions": "1", "move": "4@8", "instance": "prb12715", "distance_to_goal": "NA", "progress": "NA", "move_number": "2", "optimal_length": "11", "subject": "A18QU0YQB6Q8DF:3VE8AYVF8N5BS2NU6U3TMN50JMNF8V"}
{"meta_move": "drag_end", "rt": "1246.0", "trial_number": "3", "pre_actions": "1", "move": "4@2", "instance": "prb12715", "distance_to_goal": "NA", "progress": "NA", "move_number": "3", "optimal_length": "11", "subject": "A18QU0YQB6Q8DF:3VE8AYVF8N5BS2NU6U3TMN50JMNF8V"}
{"meta_move": "drag_end", "rt": "2077.0", "trial_number": "3", "pre_actions": "1", "move": "6@4", "instance": "prb12715", "distance_to_goal": "NA", "progress": "NA", "move_number": "4", "optimal_length": "11", "subject": "A18QU0YQB6Q8DF:3VE8AYVF8N5BS2NU6U3TMN50JMNF8V"}
{"meta_move": "drag_end", "rt": "1330.0", "trial_number": "3", "pre_actions": "1", "move": "1@3", "instance": "prb12715", "distance_to_goal": "NA", "progress": "NA", "move_number": "5", "optimal_length": "11", "subject": "A18QU0YQB6Q8DF:3VE8AYVF8N5BS2NU6U3TMN50JMNF8V"}
{"meta_move": "drag_end", "rt": "1748.0", "trial_number": "3", "pre_actions": "1", "move": "2@27", "instance": "prb12715", "distance_to_goal": "NA", "progress": "NA", "move_number": "6", "optimal_length": "11", "subject": "A18QU0YQB6Q8DF:3VE8AYVF8N5BS2NU6U3TMN50JMNF8V"}
{"meta_move": "drag_end", "rt": "2560.0", "trial_number": "3", "pre_actions": "1", "move": "7@21", "instance": "prb12715", "distance_to_goal": "NA", "progress": "NA", "move_number": "7", "optimal_length": "11", "subject": "A18QU0YQB6Q8DF:3VE8AYVF8N5BS2NU6U3TMN50JMNF8V"}
{"meta_move": "drag_end", "rt": "1518.0", "trial_number": "3", "pre_actions": "1", "move": "4@20", "instance": "prb12715", "distance_to_goal": "NA", "progress": "NA", "move_number": "8", "optimal_length": "11", "subject": "A18QU0YQB6Q8DF:3VE8AYVF8N5BS2NU6U3TMN50JMNF8V"}
{"meta_move": "drag_end", "rt": "2940.0", "trial_number": "3", "pre_actions": "1", "move": "r@15", "instance": "prb12715", "distance_to_goal": "NA", "progress": "NA", "move_number": "9", "optimal_length": "11", "subject": "A18QU0YQB6Q8DF:3VE8AYVF8N5BS2NU6U3TMN50JMNF8V"}
{"meta_move": "drag_end", "rt": "1415.0", "trial_number": "3", "pre_actions": "1", "move": "4@2", "instance": "prb12715", "distance_to_goal": "NA", "progress": "NA", "move_number": "10", "optimal_length": "11", "subject": "A18QU0YQB6Q8DF:3VE8AYVF8N5BS2NU6U3TMN50JMNF8V"}
{"meta_move": "drag_end", "rt": "1293.0", "trial_number": "3", "pre_actions": "1", "move": "2@24", "instance": "prb12715", "distance_to_goal": "NA", "progress": "NA", "move_number": "11", "optimal_length": "11", "subject": "A18QU0YQB6Q8DF:3VE8AYVF8N5BS2NU6U3TMN50JMNF8V"}
{"meta_move": "drag_end", "rt": "986.0", "trial_number": "3", "pre_actions": "1", "move": "7@18", "instance": "prb12715", "distance_to_goal": "NA", "progress": "NA", "move_number": "12", "optimal_length": "11", "subject": "A18QU0YQB6Q8DF:3VE8AYVF8N5BS2NU6U3TMN50JMNF8V"}
{"meta_move": "drag_end", "rt": "1030.0", "trial_number": "3", "pre_actions": "1", "move": "0@23", "instance": "prb12715", "distance_to_goal": "NA", "progress": "NA", "move_number": "13", "optimal_length": "11", "subject": "A18QU0YQB6Q8DF:3VE8AYVF8N5BS2NU6U3TMN50JMNF8V"}
{"meta_move": "win", "rt": "963.0", "trial_number": "3", "pre_actions": "1", "move": "r@15", "instance": "prb12715", "distance_to_goal": "1", "progress": "NA", "move_number": "14", "optimal_length": "11", "subject": "A18QU0YQB6Q8DF:3VE8AYVF8N5BS2NU6U3TMN50JMNF8V"}
{"meta_move": "drag_end", "rt": "287.0", "trial_number": "0", "pre_actions": "0", "move": "r@16", "instance": "prb12715", "distance_to_goal": "NA", "progress": "NA", "move_number": "14", "optimal_length": "11", "subject": "A18QU0YQB6Q8DF:3VE8AYVF8N5BS2NU6U3TMN50JMNF8V"}
{"meta_move": "drag_end", "rt": "2265.0", "trial_number": "1", "pre_actions": "1", "move": "6@4", "instance": "prb12715", "distance_to_goal": "NA", "progress": "NA", "move_number": "0", "optimal_length": "11", "subject": "A191V7PT3DQKDP:3PMBY0YE28B43VMUKKJ6EDF85RV9C8"}
{"meta_move": "drag_end", "rt": "1095.0", "trial_number": "1", "pre_actions": "1", "move": "1@3", "instance": "prb12715", "distance_to_goal": "NA", "progress": "NA", "move_number": "1", "optimal_length": "11", "subject": "A191V7PT3DQKDP:3PMBY0YE28B43VMUKKJ6EDF85RV9C8"}
{"meta_move": "drag_end", "rt": "1017.0", "trial_number": "1", "pre_actions": "1", "move": "2@27", "instance": "prb12715", "distance_to_goal": "NA", "progress": "NA", "move_number": "2", "optimal_length": "11", "subject": "A191V7PT3DQKDP:3PMBY0YE28B43VMUKKJ6EDF85RV9C8"}
{"meta_move": "drag_end", "rt": "767.0", "trial_number": "1", "pre_actions": "1", "move": "5@30", "instance": "prb12715", "distance_to_goal": "NA", "progress": "NA", "move_number": "3", "optimal_length": "11", "subject": "A191V7PT3DQKDP:3PMBY0YE28B43VMUKKJ6EDF85RV9C8"}
{"meta_move": "drag_end", "rt": "729.0", "trial_number": "1", "pre_actions": "1", "move": "4@20", "instance": "prb12715", "distance_to_goal": "NA", "progress": "NA", "move_number": "4", "optimal_length": "11", "subject": "A191V7PT3DQKDP:3PMBY0YE28B43VMUKKJ6EDF85RV9C8"}
{"meta_move": "drag_end", "rt": "2856.0", "trial_number": "1", "pre_actions": "1", "move": "4@2", "instance": "prb12715", "distance_to_goal": "NA", "progress": "NA", "move_number": "5", "optimal_length": "11", "subject": "A191V7PT3DQKDP:3PMBY0YE28B43VMUKKJ6EDF85RV9C8"}
{"meta_move": "drag_end", "rt": "1207.0", "trial_number": "1", "pre_actions": "1", "move": "2@26", "instance": "prb12715", "distance_to_goal": "NA", "progress": "NA", "move_number": "6", "optimal_length": "11", "subject": "A191V7PT3DQKDP:3PMBY0YE28B43VMUKKJ6EDF85RV9C8"}
{"meta_move": "drag_end", "rt": "6248.0", "trial_number": "1", "pre_actions": "1", "move": "0@23", "instance": "prb12715", "distance_to_goal": "NA", "progress": "NA", "move_number": "7", "optimal_length": "11", "subject": "A191V7PT3DQKDP:3PMBY0YE28B43VMUKKJ6EDF85RV9C8"}
{"meta_move": "drag_end", "rt": "7944.0", "trial_number": "1", "pre_actions": "1", "move": "7@18", "instance": "prb12715", "distance_to_goal": "NA", "progress": "NA", "move_number": "8", "optimal_length": "11", "subject": "A191V7PT3DQKDP:3PMBY0YE28B43VMUKKJ6EDF85RV9C8"}
{"meta_move": "drag_end", "rt": "936.0", "trial_number": "1", "pre_actions": "1", "move": "2@24", "instance": "prb12715", "distance_to_goal": "NA", "progress": "NA", "move_number": "8", "optimal_length": "11", "subject": "A191V7PT3DQKDP:3PMBY0YE28B43VMUKKJ6EDF85RV9C8"}
{"meta_move": "drag_end", "rt": "1424.0", "trial_number": "1", "pre_actions": "1", "move": "1@27", "instance": "prb12715", "distance_to_goal": "NA", "progress": "NA", "move_number": "9", "optimal_length": "11", "subject": "A191V7PT3DQKDP:3PMBY0YE28B43VMUKKJ6EDF85RV9C8"}
{"meta_move": "drag_end", "rt": "1392.0", "trial_number": "1", "pre_actions": "1", "move": "6@4", "instance": "prb12715", "distance_to_goal": "NA", "progress": "NA", "move_number": "10", "optimal_length": "11", "subject": "A191V7PT3DQKDP:3PMBY0YE28B43VMUKKJ6EDF85RV9C8"}
{"meta_move": "drag_end", "rt": "791.0", "trial_number": "1", "pre_actions": "1", "move": "1@3", "instance": "prb12715", "distance_to_goal": "NA", "progress": "NA", "move_number": "10", "optimal_length": "11", "subject": "A191V7PT3DQKDP:3PMBY0YE28B43VMUKKJ6EDF85RV9C8"}
{"meta_move": "drag_end", "rt": "3536.0", "trial_number": "1", "pre_actions": "1", "move": "4@8", "instance": "prb12715", "distance_to_goal": "NA", "progress": "NA", "move_number": "11", "optimal_length": "11", "subject": "A191V7PT3DQKDP:3PMBY0YE28B43VMUKKJ6EDF85RV9C8"}
{"meta_move": "drag_end", "rt": "1897.0", "trial_number": "1", "pre_actions": "1", "move": "2@26", "instance": "prb12715", "distance_to_goal": "NA", "progress": "NA", "move_number": "12", "optimal_length": "11", "subject": "A191V7PT3DQKDP:3PMBY0YE28B43VMUKKJ6EDF85RV9C8"}
{"meta_move": "drag_end", "rt": "615.0", "trial_number": "1", "pre_actions": "1", "move": "0@5", "instance": "prb12715", "distance_to_goal": "NA", "progress": "NA", "move_number": "13", "optimal_length": "11", "subject": "A191V7PT3DQKDP:3PMBY0YE28B43VMUKKJ6EDF85RV9C8"}
{"meta_move": "drag_end", "rt": "593.0", "trial_number": "1", "pre_actions": "1", "move": "2@27", "instance": "prb12715", "distance_to_goal": "NA", "progress": "NA", "move_number": "14", "optimal_length": "11", "subject": "A191V7PT3DQKDP:3PMBY0YE28B43VMUKKJ6EDF85RV9C8"}
{"meta_move": "drag_end", "rt": "624.0", "trial_number": "1", "pre_actions": "1", "move": "4@20", "instance": "prb12715", "distance_to_goal": "NA", "progress": "NA", "move_number": "15", "optimal_length": "11", "subject": "A191V7PT3DQKDP:3PMBY0YE28B43VMUKKJ6EDF85RV9C8"}
{"meta_move": "drag_end", "rt": "711.0", "trial_number": "1", "pre_actions": "1", "move": "r@15", "instance": "prb12715", "distance_to_goal": "NA", "progress": "NA", "move_number": "16", "optimal_length": "11", "subject": "A191V7PT3DQKDP:3PMBY0YE28B43VMUKKJ6EDF85RV9C8"}
{"meta_move": "drag_end", "rt": "640.0", "trial_number": "1", "pre_actions": "1", "move": "4@2", "instance": "prb12715", "distance_to_goal": "NA", "progress": "NA", "move_number": "17", "optimal_length": "11", "subject": "A191V7PT3DQKDP:3PMBY0YE28B43VMUKKJ6EDF85RV9C8"}
{"meta_move": "drag_end", "rt": "610.0", "trial_number": "1", "pre_actions": "1", "move": "2@24", "instance": "prb12715", "distance_to_goal": "NA", "progress": "NA", "move_number": "18", "optimal_length": "11", "subject": "A191V7PT3DQKDP:3PMBY0YE28B43VMUKKJ6EDF85RV9C8"}
{"meta_move": "drag_end", "rt": "647.0", "trial_number": "1", "pre_actions": "1", "move": "0@23", "instance": "prb12715", "distance_to_goal": "NA", "progress": "NA", "move_number": "19", "optimal_length": "11", "subject": "A191V7PT3DQKDP:3PMBY0YE28B43VMUKKJ6EDF85RV9C8"}
{"meta_move": "win", "rt": "486.0", "trial_number": "1", "pre_actions": "1", "move": "r@15", "instance": "prb12715", "distance_to_goal": "1", "progress": "NA", "move_number": "20", "optimal_length": "11", "subject": "A191V7PT3DQKDP:3PMBY0YE28B43VMUKKJ6EDF85RV9C8"}
{"meta_move": "drag_end", "rt": "329.0", "trial_number": "0", "pre_actions": "0", "move": "r@16", "instance": "prb12715", "distance_to_goal": "NA", "progress": "NA", "move_number": "20", "optimal_length": "11", "subject": "A191V7PT3DQKDP:3PMBY0YE28B43VMUKKJ6EDF85RV9C8"}
{"meta_move": "drag_end", "rt": "3981.0", "trial_number": "1", "pre_actions": "1", "move": "0@23", "instance": "prb12715", "distance_to_goal": "NA", "progress": "NA", "move_number": "0", "optimal_length": "11", "subject": "A1F4N58CAX8IMK:3TS1AR6UQRM7SOIBWPBN8N9589Y7FV"}
{"meta_move": "drag_end", "rt": "1760.0", "trial_number": "1", "pre_actions": "1", "move": "4@8", "instance": "prb12715", "distance_to_goal": "NA", "progress": "NA", "move_number": "1", "optimal_length": "11", "subject": "A1F4N58CAX8IMK:3TS1AR6UQRM7SOIBWPBN8N9589Y7FV"}
{"meta_move": "drag_end", "rt": "1640.0", "trial_number": "1", "pre_actions": "1", "move": "4@2", "instance": "prb12715", "distance_to_goal": "NA", "progress": "NA", "move_number": "2", "optimal_length": "11", "subject": "A1F4N58CAX8IMK:3TS1AR6UQRM7SOIBWPBN8N9589Y7FV"}
{"meta_move": "drag_end", "rt": "1200.0", "trial_number": "1", "pre_actions": "1", "move": "1@3", "instance": "prb12715", "distance_to_goal": "NA", "progress": "NA", "move_number": "3", "optimal_length": "11", "subject": "A1F4N58CAX8IMK:3TS1AR6UQRM7SOIBWPBN8N9589Y7FV"}
{"meta_move": "drag_end", "rt": "2136.0", "trial_number": "1", "pre_actions": "1", "move": "0@5", "instance": "prb12715", "distance_to_goal": "NA", "progress": "NA", "move_number": "4", "optimal_length": "11", "subject": "A1F4N58CAX8IMK:3TS1AR6UQRM7SOIBWPBN8N9589Y7FV"}
{"meta_move": "drag_end", "rt": "1927.0", "trial_number": "1", "pre_actions": "1", "move": "6@4", "instance": "prb12715", "distance_to_goal": "NA", "progress": "NA", "move_number": "5", "optimal_length": "11", "subject": "A1F4N58CAX8IMK:3TS1AR6UQRM7SOIBWPBN8N9589Y7FV"}
{"meta_move": "drag_end", "rt": "1648.0", "trial_number": "1", "pre_actions": "1", "move": "2@24", "instance": "prb12715", "distance_to_goal": "NA", "progress": "NA", "move_number": "6", "optimal_length": "11", "subject": "A1F4N58CAX8IMK:3TS1AR6UQRM7SOIBWPBN8N9589Y7FV"}
{"meta_move": "drag_end", "rt": "609.0", "trial_number": "1", "pre_actions": "1", "move": "5@34", "instance": "prb12715", "distance_to_goal": "NA", "progress": "NA", "move_number": "6", "optimal_length": "11", "subject": "A1F4N58CAX8IMK:3TS1AR6UQRM7SOIBWPBN8N9589Y7FV"}
{"meta_move": "drag_end", "rt": "847.0", "trial_number": "1", "pre_actions": "1", "move": "2@27", "instance": "prb12715", "distance_to_goal": "NA", "progress": "NA", "move_number": "7", "optimal_length": "11", "subject": "A1F4N58CAX8IMK:3TS1AR6UQRM7SOIBWPBN8N9589Y7FV"}
{"meta_move": "drag_end", "rt": "992.0", "trial_number": "1", "pre_actions": "1", "move": "4@20", "instance": "prb12715", "distance_to_goal": "NA", "progress": "NA", "move_number": "8", "optimal_length": "11", "subject": "A1F4N58CAX8IMK:3TS1AR6UQRM7SOIBWPBN8N9589Y7FV"}
{"meta_move": "drag_end", "rt": "2376.0", "trial_number": "1", "pre_actions": "1", "move": "r@15", "instance": "prb12715", "distance_to_goal": "NA", "progress": "NA", "move_number": "9", "optimal_length": "11", "subject": "A1F4N58CAX8IMK:3TS1AR6UQRM7SOIBWPBN8N9589Y7FV"}
{"meta_move": "drag_end", "rt": "849.0", "trial_number": "1", "pre_actions": "1", "move": "4@2", "instance": "prb12715", "distance_to_goal": "NA", "progress": "NA", "move_number": "10", "optimal_length": "11", "subject": "A1F4N58CAX8IMK:3TS1AR6UQRM7SOIBWPBN8N9589Y7FV"}
{"meta_move": "drag_end", "rt": "2104.0", "trial_number": "1", "pre_actions": "1", "move": "2@24", "instance": "prb12715", "distance_to_goal": "NA", "progress": "NA", "move_number": "11", "optimal_length": "11", "subject": "A1F4N58CAX8IMK:3TS1AR6UQRM7SOIBWPBN8N9589Y7FV"}
{"meta_move": "drag_end", "rt": "936.0", "trial_number": "1", "pre_actions": "1", "move": "5@30", "instance": "prb12715", "distance_to_goal": "NA", "progress": "NA", "move_number": "12", "optimal_length": "11", "subject": "A1F4N58CAX8IMK:3TS1AR6UQRM7SOIBWPBN8N9589Y7FV"}
{"meta_move": "drag_end", "rt": "808.0", "trial_number": "1", "pre_actions": "1", "move": "0@23", "instance": "prb12715", "distance_to_goal": "NA", "progress": "NA", "move_number": "13", "optimal_length": "11", "subject": "A1F4N58CAX8IMK:3TS1AR6UQRM7SOIBWPBN8N9589Y7FV"}
{"meta_move": "win", "rt": "752.0", "trial_number": "1", "pre_actions": "1", "move": "r@15", "instance": "prb12715", "distance_to_goal": "1", "progress": "NA", "move_number": "14", "optimal_length": "11", "subject": "A1F4N58CAX8IMK:3TS1AR6UQRM7SOIBWPBN8N9589Y7FV"}
{"meta_move": "drag_end", "rt": "144.0", "trial_number": "0", "pre_actions": "0", "move": "r@16", "instance": "prb12715", "distance_to_goal": "NA", "progress": "NA", "move_number": "14", "optimal_length": "11", "subject": "A1F4N58CAX8IMK:3TS1AR6UQRM7SOIBWPBN8N9589Y7FV"}
{"meta_move": "drag_end", "rt": "3113.0", "trial_number": "1", "pre_actions": "1", "move": "1@3", "instance": "prb12715", "distance_to_goal": "NA", "progress": "NA", "move_number": "0", "optimal_length": "11", "subject": "A1LR0VQIHQUJAM:3YW4XOSQKRTI0K0Z2YPDTDJVFABU1I"}
{"meta_move": "drag_end", "rt": "666.0", "trial_number": "1", "pre_actions": "1", "move": "6@4", "instance": "prb12715", "distance_to_goal": "NA", "progress": "NA", "move_number": "1", "optimal_length": "11", "subject": "A1LR0VQIHQUJAM:3YW4XOSQKRTI0K0Z2YPDTDJVFABU1I"}
{"meta_move": "drag_end", "rt": "811.0", "trial_number": "1", "pre_actions": "1", "move": "5@30", "instance": "prb12715", "distance_to_goal": "NA", "progress": "NA", "move_number": "2", "optimal_length": "11", "subject": "A1LR0VQIHQUJAM:3YW4XOSQKRTI0K0Z2YPDTDJVFABU1I"}
{"meta_move": "drag_end", "rt": "1654.0", "trial_number": "1", "pre_actions": "1", "move": "2@27", "instance": "prb12715", "distance_to_goal": "NA", "progress": "NA", "move_number": "3", "optimal_length": "11", "subject": "A1LR0VQIHQUJAM:3YW4XOSQKRTI0K0Z2YPDTDJVFABU1I"}
{"meta_move": "drag_end", "rt": "2193.0", "trial_number": "1", "pre_actions": "1", "move": "0@11", "instance": "prb12715", "distance_to_goal": "NA", "progress": "NA", "move_number": "4", "optimal_length": "11", "subject": "A1LR0VQIHQUJAM:3YW4XOSQKRTI0K0Z2YPDTDJVFABU1I"}
{"meta_move": "drag_end", "rt": "1072.0", "trial_number": "1", "pre_actions": "1", "move": "2@26", "instance": "prb12715", "distance_to_goal": "NA", "progress": "NA", "move_number": "4", "optimal_length": "11", "subject": "A1LR0VQIHQUJAM:3YW4XOSQKRTI0K0Z2YPDTDJVFABU1I"}
{"meta_move": "drag_end", "rt": "12907.0", "trial_number": "1", "pre_actions": "1", "move": "0@23", "instance": "prb12715", "distance_to_goal": "NA", "progress": "NA", "move_number": "5", "optimal_length": "11", "subject": "A1LR0VQIHQUJAM:3YW4XOSQKRTI0K0Z2YPDTDJVFABU1I"}
{"meta_move": "drag_end", "rt": "3497.0", "trial_number": "1", "pre_actions": "1", "move": "0@5", "instance": "prb12715", "distance_to_goal": "NA", "progress": "NA", "move_number": "6", "optimal_length": "11", "subject": "A1LR0VQIHQUJAM:3YW4XOSQKRTI0K0Z2YPDTDJVFABU1I"}
{"meta_move": "drag_end", "rt": "690.0", "trial_number": "1", "pre_actions": "1", "move": "2@27", "instance": "prb12715", "distance_to_goal": "NA", "progress": "NA", "move_number": "7", "optimal_length": "11", "subject": "A1LR0VQIHQUJAM:3YW4XOSQKRTI0K0Z2YPDTDJVFABU1I"}
{"meta_move": "drag_end", "rt": "684.0", "trial_number": "1", "pre_actions": "1", "move": "4@20", "instance": "prb12715", "distance_to_goal": "NA", "progress": "NA", "move_number": "8", "optimal_length": "11", "subject": "A1LR0VQIHQUJAM:3YW4XOSQKRTI0K0Z2YPDTDJVFABU1I"}
{"meta_move": "drag_end", "rt": "804.0", "trial_number": "1", "pre_actions": "1", "move": "r@15", "instance": "prb12715", "distance_to_goal": "NA", "progress": "NA", "move_number": "9", "optimal_length": "11", "subject": "A1LR0VQIHQUJAM:3YW4XOSQKRTI0K0Z2YPDTDJVFABU1I"}
{"meta_move": "drag_end", "rt": "506.0", "trial_number": "1", "pre_actions": "1", "move": "4@2", "instance": "prb12715", "distance_to_goal": "NA", "progress": "NA", "move_number": "10", "optimal_length": "11", "subject": "A1LR0VQIHQUJAM:3YW4XOSQKRTI0K0Z2YPDTDJVFABU1I"}
{"meta_move": "drag_end", "rt": "665.0", "trial_number": "1", "pre_actions": "1", "move": "2@24", "instance": "prb12715", "distance_to_goal": "NA", "progress": "NA", "move_number": "11", "optimal_length": "11", "subject": "A1LR0VQIHQUJAM:3YW4XOSQKRTI0K0Z2YPDTDJVFABU1I"}
{"meta_move": "drag_end", "rt": "633.0", "trial_number": "1", "pre_actions": "1", "move": "0@23", "instance": "prb12715", "distance_to_goal": "NA", "progress": "NA", "move_number": "12", "optimal_length": "11", "subject": "A1LR0VQIHQUJAM:3YW4XOSQKRTI0K0Z2YPDTDJVFABU1I"}
{"meta_move": "win", "rt": "551.0", "trial_number": "1", "pre_actions": "1", "move": "r@15", "instance": "prb12715", "distance_to_goal": "1", "progress": "NA", "move_number": "13", "optimal_length": "11", "subject": "A1LR0VQIHQUJAM:3YW4XOSQKRTI0K0Z2YPDTDJVFABU1I"}
{"meta_move": "drag_end", "rt": "62.0", "trial_number": "0", "pre_actions": "0", "move": "r@16", "instance": "prb12715", "distance_to_goal": "NA", "progress": "NA", "move_number": "13", "optimal_length": "11", "subject": "A1LR0VQIHQUJAM:3YW4XOSQKRTI0K0Z2YPDTDJVFABU1I"}
{"meta_move": "drag_end", "rt": "2084.0", "trial_number": "1", "pre_actions": "1", "move": "6@4", "instance": "prb12715", "distance_to_goal": "NA", "progress": "NA", "move_number": "0", "optimal_length": "11", "subject": "A214HWAW1PYWO8:34BBWHLWHBJ6SUL255PK30LEGY5IWG"}
{"meta_move": "drag_end", "rt": "626.0", "trial_number": "1", "pre_actions": "1", "move": "1@3", "instance": "prb12715", "distance_to_goal": "NA", "progress": "NA", "move_number": "1", "optimal_length": "11", "subject": "A214HWAW1PYWO8:34BBWHLWHBJ6SUL255PK30LEGY5IWG"}
{"meta_move": "drag_end", "rt": "1414.0", "trial_number": "1", "pre_actions": "1", "move": "2@25", "instance": "prb12715", "distance_to_goal": "NA", "progress": "NA", "move_number": "2", "optimal_length": "11", "subject": "A214HWAW1PYWO8:34BBWHLWHBJ6SUL255PK30LEGY5IWG"}
{"meta_move": "drag_end", "rt": "557.0", "trial_number": "1", "pre_actions": "1", "move": "0@23", "instance": "prb12715", "distance_to_goal": "NA", "progress": "NA", "move_number": "3", "optimal_length": "11", "subject": "A214HWAW1PYWO8:34BBWHLWHBJ6SUL255PK30LEGY5IWG"}
{"meta_move": "drag_end", "rt": "1548.0", "trial_number": "1", "pre_actions": "1", "move": "0@5", "instance": "prb12715", "distance_to_goal": "NA", "progress": "NA", "move_number": "4", "optimal_length": "11", "subject": "A214HWAW1PYWO8:34BBWHLWHBJ6SUL255PK30LEGY5IWG"}
{"meta_move": "drag_end", "rt": "769.0", "trial_number": "1", "pre_actions": "1", "move": "2@27", "instance": "prb12715", "distance_to_goal": "NA", "progress": "NA", "move_number": "5", "optimal_length": "11", "subject": "A214HWAW1PYWO8:34BBWHLWHBJ6SUL255PK30LEGY5IWG"}
{"meta_move": "drag_end", "rt": "436.0", "trial_number": "1", "pre_actions": "1", "move": "5@34", "instance": "prb12715", "distance_to_goal": "NA", "progress": "NA", "move_number": "6", "optimal_length": "11", "subject": "A214HWAW1PYWO8:34BBWHLWHBJ6SUL255PK30LEGY5IWG"}
{"meta_move": "drag_end", "rt": "640.0", "trial_number": "1", "pre_actions": "1", "move": "4@20", "instance": "prb12715", "distance_to_goal": "NA", "progress": "NA", "move_number": "7", "optimal_length": "11", "subject": "A214HWAW1PYWO8:34BBWHLWHBJ6SUL255PK30LEGY5IWG"}
{"meta_move": "drag_end", "rt": "836.0", "trial_number": "1", "pre_actions": "1", "move": "r@15", "instance": "prb12715", "distance_to_goal": "NA", "progress": "NA", "move_number": "8", "optimal_length": "11", "subject": "A214HWAW1PYWO8:34BBWHLWHBJ6SUL255PK30LEGY5IWG"}
{"meta_move": "drag_end", "rt": "507.0", "trial_number": "1", "pre_actions": "1", "move": "4@2", "instance": "prb12715", "distance_to_goal": "NA", "progress": "NA", "move_number": "9", "optimal_length": "11", "subject": "A214HWAW1PYWO8:34BBWHLWHBJ6SUL255PK30LEGY5IWG"}
{"meta_move": "drag_end", "rt": "543.0", "trial_number": "1", "pre_actions": "1", "move": "2@24", "instance": "prb12715", "distance_to_goal": "NA", "progress": "NA", "move_number": "10", "optimal_length": "11", "subject": "A214HWAW1PYWO8:34BBWHLWHBJ6SUL255PK30LEGY5IWG"}
{"meta_move": "drag_end", "rt": "393.0", "trial_number": "1", "pre_actions": "1", "move": "5@33", "instance": "prb12715", "distance_to_goal": "NA", "progress": "NA", "move_number": "11", "optimal_length": "11", "subject": "A214HWAW1PYWO8:34BBWHLWHBJ6SUL255PK30LEGY5IWG"}
{"meta_move": "drag_end", "rt": "551.0", "trial_number": "1", "pre_actions": "1", "move": "0@23", "instance": "prb12715", "distance_to_goal": "NA", "progress": "NA", "move_number": "12", "optimal_length": "11", "subject": "A214HWAW1PYWO8:34BBWHLWHBJ6SUL255PK30LEGY5IWG"}
{"meta_move": "win", "rt": "436.0", "trial_number": "1", "pre_actions": "1", "move": "r@15", "instance": "prb12715", "distance_to_goal": "1", "progress": "NA", "move_number": "13", "optimal_length": "11", "subject": "A214HWAW1PYWO8:34BBWHLWHBJ6SUL255PK30LEGY5IWG"}
{"meta_move": "drag_end", "rt": "12.0", "trial_number": "0", "pre_actions": "0", "move": "r@16", "instance": "prb12715", "distance_to_goal": "NA", "progress": "NA", "move_number": "13", "optimal_length": "11", "subject": "A214HWAW1PYWO8:34BBWHLWHBJ6SUL255PK30LEGY5IWG"}
{"meta_move": "drag_end", "rt": "2351.0", "trial_number": "1", "pre_actions": "1", "move": "5@30", "instance": "prb12715", "distance_to_goal": "NA", "progress": "NA", "move_number": "0", "optimal_length": "11", "subject": "A21S7MA9DCW95E:3X87C8JFV7JQ2BSCY8KSFD9F2ILSQK"}
{"meta_move": "drag_end", "rt": "951.0", "trial_number": "1", "pre_actions": "1", "move": "1@27", "instance": "prb12715", "distance_to_goal": "NA", "progress": "NA", "move_number": "1", "optimal_length": "11", "subject": "A21S7MA9DCW95E:3X87C8JFV7JQ2BSCY8KSFD9F2ILSQK"}
{"meta_move": "drag_end", "rt": "1524.0", "trial_number": "1", "pre_actions": "1", "move": "6@4", "instance": "prb12715", "distance_to_goal": "NA", "progress": "NA", "move_number": "2", "optimal_length": "11", "subject": "A21S7MA9DCW95E:3X87C8JFV7JQ2BSCY8KSFD9F2ILSQK"}
{"meta_move": "drag_end", "rt": "1043.0", "trial_number": "1", "pre_actions": "1", "move": "1@3", "instance": "prb12715", "distance_to_goal": "NA", "progress": "NA", "move_number": "3", "optimal_length": "11", "subject": "A21S7MA9DCW95E:3X87C8JFV7JQ2BSCY8KSFD9F2ILSQK"}
{"meta_move": "drag_end", "rt": "1344.0", "trial_number": "1", "pre_actions": "1", "move": "2@24", "instance": "prb12715", "distance_to_goal": "NA", "progress": "NA", "move_number": "4", "optimal_length": "11", "subject": "A21S7MA9DCW95E:3X87C8JFV7JQ2BSCY8KSFD9F2ILSQK"}
{"meta_move": "drag_end", "rt": "1788.0", "trial_number": "1", "pre_actions": "1", "move": "2@27", "instance": "prb12715", "distance_to_goal": "NA", "progress": "NA", "move_number": "4", "optimal_length": "11", "subject": "A21S7MA9DCW95E:3X87C8JFV7JQ2BSCY8KSFD9F2ILSQK"}
{"meta_move": "drag_end", "rt": "1435.0", "trial_number": "1", "pre_actions": "1", "move": "4@20", "instance": "prb12715", "distance_to_goal": "NA", "progress": "NA", "move_number": "5", "optimal_length": "11", "subject": "A21S7MA9DCW95E:3X87C8JFV7JQ2BSCY8KSFD9F2ILSQK"}
{"meta_move": "drag_end", "rt": "2455.0", "trial_number": "1", "pre_actions": "1", "move": "0@5", "instance": "prb12715", "distance_to_goal": "NA", "progress": "NA", "move_number": "6", "optimal_length": "11", "subject": "A21S7MA9DCW95E:3X87C8JFV7JQ2BSCY8KSFD9F2ILSQK"}
{"meta_move": "drag_end", "rt": "1562.0", "trial_number": "1", "pre_actions": "1", "move": "r@15", "instance": "prb12715", "distance_to_goal": "NA", "progress": "NA", "move_number": "7", "optimal_length": "11", "subject": "A21S7MA9DCW95E:3X87C8JFV7JQ2BSCY8KSFD9F2ILSQK"}
{"meta_move": "drag_end", "rt": "741.0", "trial_number": "1", "pre_actions": "1", "move": "4@2", "instance": "prb12715", "distance_to_goal": "NA", "progress": "NA", "move_number": "8", "optimal_length": "11", "subject": "A21S7MA9DCW95E:3X87C8JFV7JQ2BSCY8KSFD9F2ILSQK"}
{"meta_move": "drag_end", "rt": "1172.0", "trial_number": "1", "pre_actions": "1", "move": "2@24", "instance": "prb12715", "distance_to_goal": "NA", "progress": "NA", "move_number": "9", "optimal_length": "11", "subject": "A21S7MA9DCW95E:3X87C8JFV7JQ2BSCY8KSFD9F2ILSQK"}
{"meta_move": "drag_end", "rt": "1237.0", "trial_number": "1", "pre_actions": "1", "move": "0@23", "instance": "prb12715", "distance_to_goal": "NA", "progress": "NA", "move_number": "10", "optimal_length": "11", "subject": "A21S7MA9DCW95E:3X87C8JFV7JQ2BSCY8KSFD9F2ILSQK"}
{"meta_move": "win", "rt": "765.0", "trial_number": "1", "pre_actions": "1", "move": "r@15", "instance": "prb12715", "distance_to_goal": "1", "progress": "NA", "move_number": "11", "optimal_length": "11", "subject": "A21S7MA9DCW95E:3X87C8JFV7JQ2BSCY8KSFD9F2ILSQK"}
{"meta_move": "drag_end", "rt": "196.0", "trial_number": "0", "pre_actions": "0", "move": "r@16", "instance": "prb12715", "distance_to_goal": "NA", "progress": "NA", "move_number": "11", "optimal_length": "11", "subject": "A21S7MA9DCW95E:3X87C8JFV7JQ2BSCY8KSFD9F2ILSQK"}
{"meta_move": "drag_end", "rt": "163.0", "trial_number": "2", "pre_actions": "1", "move": "3@6", "instance": "prb12715", "distance_to_goal": "NA", "progress": "NA", "move_number": "0", "optimal_length": "11", "subject": "A23437BMZ5T1FH:3IHR8NYAM89M0EPM8U9LH53ZJDTP4U"}
{"meta_move": "drag_end", "rt": "2302.0", "trial_number": "2", "pre_actions": "1", "move": "5@30", "instance": "prb12715", "distance_to_goal": "NA", "progress": "NA", "move_number": "0", "optimal_length": "11", "subject": "A23437BMZ5T1FH:3IHR8NYAM89M0EPM8U9LH53ZJDTP4U"}
{"meta_move": "drag_end", "rt": "760.0", "trial_number": "2", "pre_actions": "1", "move": "1@27", "instance": "prb12715", "distance_to_goal": "NA", "progress": "NA", "move_number": "1", "optimal_length": "11", "subject": "A23437BMZ5T1FH:3IHR8NYAM89M0EPM8U9LH53ZJDTP4U"}
{"meta_move": "drag_end", "rt": "1839.0", "trial_number": "2", "pre_actions": "1", "move": "0@23", "instance": "prb12715", "distance_to_goal": "NA", "progress": "NA", "move_number": "2", "optimal_length": "11", "subject": "A23437BMZ5T1FH:3IHR8NYAM89M0EPM8U9LH53ZJDTP4U"}
{"meta_move": "drag_end", "rt": "2938.0", "trial_number": "2", "pre_actions": "1", "move": "1@3", "instance": "prb12715", "distance_to_goal": "NA", "progress": "NA", "move_number": "3", "optimal_length": "11", "subject": "A23437BMZ5T1FH:3IHR8NYAM89M0EPM8U9LH53ZJDTP4U"}
{"meta_move": "drag_end", "rt": "764.0", "trial_number": "2", "pre_actions": "1", "move": "6@10", "instance": "prb12715", "distance_to_goal": "NA", "progress": "NA", "move_number": "4", "optimal_length": "11", "subject": "A23437BMZ5T1FH:3IHR8NYAM89M0EPM8U9LH53ZJDTP4U"}
{"meta_move": "drag_end", "rt": "1305.0", "trial_number": "2", "pre_actions": "1", "move": "0@5", "instance": "prb12715", "distance_to_goal": "NA", "progress": "NA", "move_number": "5", "optimal_length": "11", "subject": "A23437BMZ5T1FH:3IHR8NYAM89M0EPM8U9LH53ZJDTP4U"}
{"meta_move": "drag_end", "rt": "771.0", "trial_number": "2", "pre_actions": "1", "move": "2@27", "instance": "prb12715", "distance_to_goal": "NA", "progress": "NA", "move_number": "6", "optimal_length": "11", "subject": "A23437BMZ5T1FH:3IHR8NYAM89M0EPM8U9LH53ZJDTP4U"}
{"meta_move": "drag_end", "rt": "1566.0", "trial_number": "2", "pre_actions": "1", "move": "4@20", "instance": "prb12715", "distance_to_goal": "NA", "progress": "NA", "move_number": "7", "optimal_length": "11", "subject": "A23437BMZ5T1FH:3IHR8NYAM89M0EPM8U9LH53ZJDTP4U"}
{"meta_move": "drag_end", "rt": "1787.0", "trial_number": "2", "pre_actions": "1", "move": "r@14", "instance": "prb12715", "distance_to_goal": "NA", "progress": "NA", "move_number": "8", "optimal_length": "11", "subject": "A23437BMZ5T1FH:3IHR8NYAM89M0EPM8U9LH53ZJDTP4U"}
{"meta_move": "drag_end", "rt": "3088.0", "trial_number": "2", "pre_actions": "1", "move": "6@4", "instance": "prb12715", "distance_to_goal": "NA", "progress": "NA", "move_number": "9", "optimal_length": "11", "subject": "A23437BMZ5T1FH:3IHR8NYAM89M0EPM8U9LH53ZJDTP4U"}
{"meta_move": "drag_end", "rt": "670.0", "trial_number": "2", "pre_actions": "1", "move": "r@15", "instance": "prb12715", "distance_to_goal": "NA", "progress": "NA", "move_number": "10", "optimal_length": "11", "subject": "A23437BMZ5T1FH:3IHR8NYAM89M0EPM8U9LH53ZJDTP4U"}
{"meta_move": "drag_end", "rt": "1483.0", "trial_number": "2", "pre_actions": "1", "move": "4@2", "instance": "prb12715", "distance_to_goal": "NA", "progress": "NA", "move_number": "11", "optimal_length": "11", "subject": "A23437BMZ5T1FH:3IHR8NYAM89M0EPM8U9LH53ZJDTP4U"}
{"meta_move": "drag_end", "rt": "622.0", "trial_number": "2", "pre_actions": "1", "move": "2@24", "instance": "prb12715", "distance_to_goal": "NA", "progress": "NA", "move_number": "12", "optimal_length": "11", "subject": "A23437BMZ5T1FH:3IHR8NYAM89M0EPM8U9LH53ZJDTP4U"}
{"meta_move": "drag_end", "rt": "819.0", "trial_number": "2", "pre_actions": "1", "move": "0@23", "instance": "prb12715", "distance_to_goal": "NA", "progress": "NA", "move_number": "13", "optimal_length": "11", "subject": "A23437BMZ5T1FH:3IHR8NYAM89M0EPM8U9LH53ZJDTP4U"}
{"meta_move": "win", "rt": "465.0", "trial_number": "2", "pre_actions": "1", "move": "r@15", "instance": "prb12715", "distance_to_goal": "1", "progress": "NA", "move_number": "14", "optimal_length": "11", "subject": "A23437BMZ5T1FH:3IHR8NYAM89M0EPM8U9LH53ZJDTP4U"}
{"meta_move": "drag_end", "rt": "73.0", "trial_number": "0", "pre_actions": "0", "move": "r@16", "instance": "prb12715", "distance_to_goal": "NA", "progress": "NA", "move_number": "14", "optimal_length": "11", "subject": "A23437BMZ5T1FH:3IHR8NYAM89M0EPM8U9LH53ZJDTP4U"}
{"meta_move": "drag_end", "rt": "3512.0", "trial_number": "1", "pre_actions": "1", "move": "1@3", "instance": "prb12715", "distance_to_goal": "NA", "progress": "NA", "move_number": "0", "optimal_length": "11", "subject": "A289D98Z4GAZ28:3ZV9H2YQQEFR2R3JK2IXZUJPXAF3WW"}
{"meta_move": "drag_end", "rt": "1095.0", "trial_number": "1", "pre_actions": "1", "move": "6@4", "instance": "prb12715", "distance_to_goal": "NA", "progress": "NA", "move_number": "1", "optimal_length": "11", "subject": "A289D98Z4GAZ28:3ZV9H2YQQEFR2R3JK2IXZUJPXAF3WW"}
{"meta_move": "drag_end", "rt": "1200.0", "trial_number": "1", "pre_actions": "1", "move": "2@27", "instance": "prb12715", "distance_to_goal": "NA", "progress": "NA", "move_number": "2", "optimal_length": "11", "subject": "A289D98Z4GAZ28:3ZV9H2YQQEFR2R3JK2IXZUJPXAF3WW"}
{"meta_move": "drag_end", "rt": "2080.0", "trial_number": "1", "pre_actions": "1", "move": "5@34", "instance": "prb12715", "distance_to_goal": "NA", "progress": "NA", "move_number": "3", "optimal_length": "11", "subject": "A289D98Z4GAZ28:3ZV9H2YQQEFR2R3JK2IXZUJPXAF3WW"}
{"meta_move": "drag_end", "rt": "5359.0", "trial_number": "1", "pre_actions": "1", "move": "7@21", "instance": "prb12715", "distance_to_goal": "NA", "progress": "NA", "move_number": "4", "optimal_length": "11", "subject": "A289D98Z4GAZ28:3ZV9H2YQQEFR2R3JK2IXZUJPXAF3WW"}
{"meta_move": "drag_end", "rt": "4074.0", "trial_number": "1", "pre_actions": "1", "move": "7@18", "instance": "prb12715", "distance_to_goal": "NA", "progress": "NA", "move_number": "5", "optimal_length": "11", "subject": "A289D98Z4GAZ28:3ZV9H2YQQEFR2R3JK2IXZUJPXAF3WW"}
{"meta_move": "drag_end", "rt": "1629.0", "trial_number": "1", "pre_actions": "1", "move": "4@20", "instance": "prb12715", "distance_to_goal": "NA", "progress": "NA", "move_number": "6", "optimal_length": "11", "subject": "A289D98Z4GAZ28:3ZV9H2YQQEFR2R3JK2IXZUJPXAF3WW"}
{"meta_move": "drag_end", "rt": "3336.0", "trial_number": "1", "pre_actions": "1", "move": "4@2", "instance": "prb12715", "distance_to_goal": "NA", "progress": "NA", "move_number": "7", "optimal_length": "11", "subject": "A289D98Z4GAZ28:3ZV9H2YQQEFR2R3JK2IXZUJPXAF3WW"}
{"meta_move": "drag_end", "rt": "978.0", "trial_number": "1", "pre_actions": "1", "move": "5@30", "instance": "prb12715", "distance_to_goal": "NA", "progress": "NA", "move_number": "8", "optimal_length": "11", "subject": "A289D98Z4GAZ28:3ZV9H2YQQEFR2R3JK2IXZUJPXAF3WW"}
{"meta_move": "drag_end", "rt": "1403.0", "trial_number": "1", "pre_actions": "1", "move": "4@20", "instance": "prb12715", "distance_to_goal": "NA", "progress": "NA", "move_number": "9", "optimal_length": "11", "subject": "A289D98Z4GAZ28:3ZV9H2YQQEFR2R3JK2IXZUJPXAF3WW"}
{"meta_move": "drag_end", "rt": "4913.0", "trial_number": "1", "pre_actions": "1", "move": "4@2", "instance": "prb12715", "distance_to_goal": "NA", "progress": "NA", "move_number": "10", "optimal_length": "11", "subject": "A289D98Z4GAZ28:3ZV9H2YQQEFR2R3JK2IXZUJPXAF3WW"}
{"meta_move": "drag_end", "rt": "1424.0", "trial_number": "1", "pre_actions": "1", "move": "2@24", "instance": "prb12715", "distance_to_goal": "NA", "progress": "NA", "move_number": "11", "optimal_length": "11", "subject": "A289D98Z4GAZ28:3ZV9H2YQQEFR2R3JK2IXZUJPXAF3WW"}
{"meta_move": "drag_end", "rt": "2926.0", "trial_number": "1", "pre_actions": "1", "move": "4@2", "instance": "prb12715", "distance_to_goal": "NA", "progress": "NA", "move_number": "12", "optimal_length": "11", "subject": "A289D98Z4GAZ28:3ZV9H2YQQEFR2R3JK2IXZUJPXAF3WW"}
{"meta_move": "drag_end", "rt": "3593.0", "trial_number": "1", "pre_actions": "1", "move": "2@24", "instance": "prb12715", "distance_to_goal": "NA", "progress": "NA", "move_number": "12", "optimal_length": "11", "subject": "A289D98Z4GAZ28:3ZV9H2YQQEFR2R3JK2IXZUJPXAF3WW"}
{"meta_move": "drag_end", "rt": "1404.0", "trial_number": "1", "pre_actions": "1", "move": "0@23", "instance": "prb12715", "distance_to_goal": "NA", "progress": "NA", "move_number": "12", "optimal_length": "11", "subject": "A289D98Z4GAZ28:3ZV9H2YQQEFR2R3JK2IXZUJPXAF3WW"}
{"meta_move": "drag_end", "rt": "7698.0", "trial_number": "1", "pre_actions": "1", "move": "2@26", "instance": "prb12715", "distance_to_goal": "NA", "progress": "NA", "move_number": "13", "optimal_length": "11", "subject": "A289D98Z4GAZ28:3ZV9H2YQQEFR2R3JK2IXZUJPXAF3WW"}
{"meta_move": "drag_end", "rt": "1522.0", "trial_number": "1", "pre_actions": "1", "move": "0@5", "instance": "prb12715", "distance_to_goal": "NA", "progress": "NA", "move_number": "14", "optimal_length": "11", "subject": "A289D98Z4GAZ28:3ZV9H2YQQEFR2R3JK2IXZUJPXAF3WW"}
{"meta_move": "drag_end", "rt": "803.0", "trial_number": "1", "pre_actions": "1", "move": "2@27", "instance": "prb12715", "distance_to_goal": "NA", "progress": "NA", "move_number": "15", "optimal_length": "11", "subject": "A289D98Z4GAZ28:3ZV9H2YQQEFR2R3JK2IXZUJPXAF3WW"}
{"meta_move": "drag_end", "rt": "2604.0", "trial_number": "1", "pre_actions": "1", "move": "4@2", "instance": "prb12715", "distance_to_goal": "NA", "progress": "NA", "move_number": "16", "optimal_length": "11", "subject": "A289D98Z4GAZ28:3ZV9H2YQQEFR2R3JK2IXZUJPXAF3WW"}
{"meta_move": "drag_end", "rt": "1673.0", "trial_number": "1", "pre_actions": "1", "move": "2@24", "instance": "prb12715", "distance_to_goal": "NA", "progress": "NA", "move_number": "16", "optimal_length": "11", "subject": "A289D98Z4GAZ28:3ZV9H2YQQEFR2R3JK2IXZUJPXAF3WW"}
{"meta_move": "drag_end", "rt": "2135.0", "trial_number": "1", "pre_actions": "1", "move": "2@27", "instance": "prb12715", "distance_to_goal": "NA", "progress": "NA", "move_number": "17", "optimal_length": "11", "subject": "A289D98Z4GAZ28:3ZV9H2YQQEFR2R3JK2IXZUJPXAF3WW"}
{"meta_move": "drag_end", "rt": "1715.0", "trial_number": "1", "pre_actions": "1", "move": "4@20", "instance": "prb12715", "distance_to_goal": "NA", "progress": "NA", "move_number": "18", "optimal_length": "11", "subject": "A289D98Z4GAZ28:3ZV9H2YQQEFR2R3JK2IXZUJPXAF3WW"}
{"meta_move": "drag_end", "rt": "18792.0", "trial_number": "1", "pre_actions": "1", "move": "4@8", "instance": "prb12715", "distance_to_goal": "NA", "progress": "NA", "move_number": "19", "optimal_length": "11", "subject": "A289D98Z4GAZ28:3ZV9H2YQQEFR2R3JK2IXZUJPXAF3WW"}
{"meta_move": "drag_end", "rt": "1421.0", "trial_number": "1", "pre_actions": "1", "move": "2@24", "instance": "prb12715", "distance_to_goal": "NA", "progress": "NA", "move_number": "20", "optimal_length": "11", "subject": "A289D98Z4GAZ28:3ZV9H2YQQEFR2R3JK2IXZUJPXAF3WW"}
{"meta_move": "drag_end", "rt": "2312.0", "trial_number": "1", "pre_actions": "1", "move": "0@23", "instance": "prb12715", "distance_to_goal": "NA", "progress": "NA", "move_number": "21", "optimal_length": "11", "subject": "A289D98Z4GAZ28:3ZV9H2YQQEFR2R3JK2IXZUJPXAF3WW"}
{"meta_move": "drag_end", "rt": "2243.0", "trial_number": "1", "pre_actions": "1", "move": "2@26", "instance": "prb12715", "distance_to_goal": "NA", "progress": "NA", "move_number": "22", "optimal_length": "11", "subject": "A289D98Z4GAZ28:3ZV9H2YQQEFR2R3JK2IXZUJPXAF3WW"}
{"meta_move": "drag_end", "rt": "4549.0", "trial_number": "1", "pre_actions": "1", "move": "4@2", "instance": "prb12715", "distance_to_goal": "NA", "progress": "NA", "move_number": "23", "optimal_length": "11", "subject": "A289D98Z4GAZ28:3ZV9H2YQQEFR2R3JK2IXZUJPXAF3WW"}
{"meta_move": "drag_end", "rt": "1170.0", "trial_number": "1", "pre_actions": "1", "move": "7@21", "instance": "prb12715", "distance_to_goal": "NA", "progress": "NA", "move_number": "24", "optimal_length": "11", "subject": "A289D98Z4GAZ28:3ZV9H2YQQEFR2R3JK2IXZUJPXAF3WW"}
{"meta_move": "drag_end", "rt": "3092.0", "trial_number": "1", "pre_actions": "1", "move": "2@24", "instance": "prb12715", "distance_to_goal": "NA", "progress": "NA", "move_number": "25", "optimal_length": "11", "subject": "A289D98Z4GAZ28:3ZV9H2YQQEFR2R3JK2IXZUJPXAF3WW"}
{"meta_move": "drag_end", "rt": "5034.0", "trial_number": "1", "pre_actions": "1", "move": "2@24", "instance": "prb12715", "distance_to_goal": "NA", "progress": "NA", "move_number": "26", "optimal_length": "11", "subject": "A289D98Z4GAZ28:3ZV9H2YQQEFR2R3JK2IXZUJPXAF3WW"}
{"meta_move": "drag_end", "rt": "1540.0", "trial_number": "1", "pre_actions": "1", "move": "0@5", "instance": "prb12715", "distance_to_goal": "NA", "progress": "NA", "move_number": "26", "optimal_length": "11", "subject": "A289D98Z4GAZ28:3ZV9H2YQQEFR2R3JK2IXZUJPXAF3WW"}
{"meta_move": "drag_end", "rt": "1057.0", "trial_number": "1", "pre_actions": "1", "move": "2@27", "instance": "prb12715", "distance_to_goal": "NA", "progress": "NA", "move_number": "27", "optimal_length": "11", "subject": "A289D98Z4GAZ28:3ZV9H2YQQEFR2R3JK2IXZUJPXAF3WW"}
{"meta_move": "drag_end", "rt": "1194.0", "trial_number": "1", "pre_actions": "1", "move": "4@20", "instance": "prb12715", "distance_to_goal": "NA", "progress": "NA", "move_number": "28", "optimal_length": "11", "subject": "A289D98Z4GAZ28:3ZV9H2YQQEFR2R3JK2IXZUJPXAF3WW"}
{"meta_move": "drag_end", "rt": "1445.0", "trial_number": "1", "pre_actions": "1", "move": "r@15", "instance": "prb12715", "distance_to_goal": "NA", "progress": "NA", "move_number": "29", "optimal_length": "11", "subject": "A289D98Z4GAZ28:3ZV9H2YQQEFR2R3JK2IXZUJPXAF3WW"}
{"meta_move": "drag_end", "rt": "1083.0", "trial_number": "1", "pre_actions": "1", "move": "4@2", "instance": "prb12715", "distance_to_goal": "NA", "progress": "NA", "move_number": "30", "optimal_length": "11", "subject": "A289D98Z4GAZ28:3ZV9H2YQQEFR2R3JK2IXZUJPXAF3WW"}
{"meta_move": "drag_end", "rt": "990.0", "trial_number": "1", "pre_actions": "1", "move": "2@24", "instance": "prb12715", "distance_to_goal": "NA", "progress": "NA", "move_number": "31", "optimal_length": "11", "subject": "A289D98Z4GAZ28:3ZV9H2YQQEFR2R3JK2IXZUJPXAF3WW"}
{"meta_move": "drag_end", "rt": "1541.0", "trial_number": "1", "pre_actions": "1", "move": "0@23", "instance": "prb12715", "distance_to_goal": "NA", "progress": "NA", "move_number": "32", "optimal_length": "11", "subject": "A289D98Z4GAZ28:3ZV9H2YQQEFR2R3JK2IXZUJPXAF3WW"}
{"meta_move": "win", "rt": "726.0", "trial_number": "1", "pre_actions": "1", "move": "r@15", "instance": "prb12715", "distance_to_goal": "1", "progress": "NA", "move_number": "33", "optimal_length": "11", "subject": "A289D98Z4GAZ28:3ZV9H2YQQEFR2R3JK2IXZUJPXAF3WW"}
{"meta_move": "drag_end", "rt": "297.0", "trial_number": "0", "pre_actions": "0", "move": "r@16", "instance": "prb12715", "distance_to_goal": "NA", "progress": "NA", "move_number": "33", "optimal_length": "11", "subject": "A289D98Z4GAZ28:3ZV9H2YQQEFR2R3JK2IXZUJPXAF3WW"}
{"meta_move": "drag_end", "rt": "1519.0", "trial_number": "1", "pre_actions": "1", "move": "0@23", "instance": "prb12715", "distance_to_goal": "NA", "progress": "NA", "move_number": "0", "optimal_length": "11", "subject": "A2IBQA01NR5N76:3X4MXAO0BHWJLTOLVSJTHSM54OHWRG"}
{"meta_move": "drag_end", "rt": "1542.0", "trial_number": "1", "pre_actions": "1", "move": "5@30", "instance": "prb12715", "distance_to_goal": "NA", "progress": "NA", "move_number": "1", "optimal_length": "11", "subject": "A2IBQA01NR5N76:3X4MXAO0BHWJLTOLVSJTHSM54OHWRG"}
{"meta_move": "drag_end", "rt": "692.0", "trial_number": "1", "pre_actions": "1", "move": "1@27", "instance": "prb12715", "distance_to_goal": "NA", "progress": "NA", "move_number": "2", "optimal_length": "11", "subject": "A2IBQA01NR5N76:3X4MXAO0BHWJLTOLVSJTHSM54OHWRG"}
{"meta_move": "drag_end", "rt": "1909.0", "trial_number": "1", "pre_actions": "1", "move": "0@5", "instance": "prb12715", "distance_to_goal": "NA", "progress": "NA", "move_number": "3", "optimal_length": "11", "subject": "A2IBQA01NR5N76:3X4MXAO0BHWJLTOLVSJTHSM54OHWRG"}
{"meta_move": "drag_end", "rt": "1654.0", "trial_number": "1", "pre_actions": "1", "move": "2@24", "instance": "prb12715", "distance_to_goal": "NA", "progress": "NA", "move_number": "4", "optimal_length": "11", "subject": "A2IBQA01NR5N76:3X4MXAO0BHWJLTOLVSJTHSM54OHWRG"}
{"meta_move": "drag_end", "rt": "2078.0", "trial_number": "1", "pre_actions": "1", "move": "1@3", "instance": "prb12715", "distance_to_goal": "NA", "progress": "NA", "move_number": "4", "optimal_length": "11", "subject": "A2IBQA01NR5N76:3X4MXAO0BHWJLTOLVSJTHSM54OHWRG"}
{"meta_move": "drag_end", "rt": "632.0", "trial_number": "1", "pre_actions": "1", "move": "6@4", "instance": "prb12715", "distance_to_goal": "NA", "progress": "NA", "move_number": "5", "optimal_length": "11", "subject": "A2IBQA01NR5N76:3X4MXAO0BHWJLTOLVSJTHSM54OHWRG"}
{"meta_move": "drag_end", "rt": "873.0", "trial_number": "1", "pre_actions": "1", "move": "2@27", "instance": "prb12715", "distance_to_goal": "NA", "progress": "NA", "move_number": "6", "optimal_length": "11", "subject": "A2IBQA01NR5N76:3X4MXAO0BHWJLTOLVSJTHSM54OHWRG"}
{"meta_move": "drag_end", "rt": "612.0", "trial_number": "1", "pre_actions": "1", "move": "4@20", "instance": "prb12715", "distance_to_goal": "NA", "progress": "NA", "move_number": "7", "optimal_length": "11", "subject": "A2IBQA01NR5N76:3X4MXAO0BHWJLTOLVSJTHSM54OHWRG"}
{"meta_move": "drag_end", "rt": "1524.0", "trial_number": "1", "pre_actions": "1", "move": "r@15", "instance": "prb12715", "distance_to_goal": "NA", "progress": "NA", "move_number": "8", "optimal_length": "11", "subject": "A2IBQA01NR5N76:3X4MXAO0BHWJLTOLVSJTHSM54OHWRG"}
{"meta_move": "drag_end", "rt": "745.0", "trial_number": "1", "pre_actions": "1", "move": "4@2", "instance": "prb12715", "distance_to_goal": "NA", "progress": "NA", "move_number": "9", "optimal_length": "11", "subject": "A2IBQA01NR5N76:3X4MXAO0BHWJLTOLVSJTHSM54OHWRG"}
{"meta_move": "drag_end", "rt": "697.0", "trial_number": "1", "pre_actions": "1", "move": "2@24", "instance": "prb12715", "distance_to_goal": "NA", "progress": "NA", "move_number": "10", "optimal_length": "11", "subject": "A2IBQA01NR5N76:3X4MXAO0BHWJLTOLVSJTHSM54OHWRG"}
{"meta_move": "drag_end", "rt": "633.0", "trial_number": "1", "pre_actions": "1", "move": "0@23", "instance": "prb12715", "distance_to_goal": "NA", "progress": "NA", "move_number": "11", "optimal_length": "11", "subject": "A2IBQA01NR5N76:3X4MXAO0BHWJLTOLVSJTHSM54OHWRG"}
{"meta_move": "win", "rt": "438.0", "trial_number": "1", "pre_actions": "1", "move": "r@15", "instance": "prb12715", "distance_to_goal": "1", "progress": "NA", "move_number": "12", "optimal_length": "11", "subject": "A2IBQA01NR5N76:3X4MXAO0BHWJLTOLVSJTHSM54OHWRG"}
{"meta_move": "drag_end", "rt": "692.0", "trial_number": "0", "pre_actions": "0", "move": "r@16", "instance": "prb12715", "distance_to_goal": "NA", "progress": "NA", "move_number": "12", "optimal_length": "11", "subject": "A2IBQA01NR5N76:3X4MXAO0BHWJLTOLVSJTHSM54OHWRG"}
{"meta_move": "drag_end", "rt": "2427.0", "trial_number": "1", "pre_actions": "1", "move": "6@4", "instance": "prb12715", "distance_to_goal": "NA", "progress": "NA", "move_number": "0", "optimal_length": "11", "subject": "A2MYB6MLQW0IGN:3TYCR1GOTDRCCQYD1V64UK7OE48LZS"}
{"meta_move": "drag_end", "rt": "1904.0", "trial_number": "1", "pre_actions": "1", "move": "0@23", "instance": "prb12715", "distance_to_goal": "NA", "progress": "NA", "move_number": "1", "optimal_length": "11", "subject": "A2MYB6MLQW0IGN:3TYCR1GOTDRCCQYD1V64UK7OE48LZS"}
{"meta_move": "drag_end", "rt": "1626.0", "trial_number": "1", "pre_actions": "1", "move": "1@3", "instance": "prb12715", "distance_to_goal": "NA", "progress": "NA", "move_number": "2", "optimal_length": "11", "subject": "A2MYB6MLQW0IGN:3TYCR1GOTDRCCQYD1V64UK7OE48LZS"}
{"meta_move": "drag_end", "rt": "2202.0", "trial_number": "1", "pre_actions": "1", "move": "0@5", "instance": "prb12715", "distance_to_goal": "NA", "progress": "NA", "move_number": "3", "optimal_length": "11", "subject": "A2MYB6MLQW0IGN:3TYCR1GOTDRCCQYD1V64UK7OE48LZS"}
{"meta_move": "drag_end", "rt": "1241.0", "trial_number": "1", "pre_actions": "1", "move": "2@27", "instance": "prb12715", "distance_to_goal": "NA", "progress": "NA", "move_number": "4", "optimal_length": "11", "subject": "A2MYB6MLQW0IGN:3TYCR1GOTDRCCQYD1V64UK7OE48LZS"}
{"meta_move": "drag_end", "rt": "1276.0", "trial_number": "1", "pre_actions": "1", "move": "7@22", "instance": "prb12715", "distance_to_goal": "NA", "progress": "NA", "move_number": "5", "optimal_length": "11", "subject": "A2MYB6MLQW0IGN:3TYCR1GOTDRCCQYD1V64UK7OE48LZS"}
{"meta_move": "drag_end", "rt": "1749.0", "trial_number": "1", "pre_actions": "1", "move": "5@30", "instance": "prb12715", "distance_to_goal": "NA", "progress": "NA", "move_number": "6", "optimal_length": "11", "subject": "A2MYB6MLQW0IGN:3TYCR1GOTDRCCQYD1V64UK7OE48LZS"}
{"meta_move": "drag_end", "rt": "1215.0", "trial_number": "1", "pre_actions": "1", "move": "4@20", "instance": "prb12715", "distance_to_goal": "NA", "progress": "NA", "move_number": "7", "optimal_length": "11", "subject": "A2MYB6MLQW0IGN:3TYCR1GOTDRCCQYD1V64UK7OE48LZS"}
{"meta_move": "drag_end", "rt": "1026.0", "trial_number": "1", "pre_actions": "1", "move": "7@21", "instance": "prb12715", "distance_to_goal": "NA", "progress": "NA", "move_number": "8", "optimal_length": "11", "subject": "A2MYB6MLQW0IGN:3TYCR1GOTDRCCQYD1V64UK7OE48LZS"}
{"meta_move": "drag_end", "rt": "1408.0", "trial_number": "1", "pre_actions": "1", "move": "4@2", "instance": "prb12715", "distance_to_goal": "NA", "progress": "NA", "move_number": "9", "optimal_length": "11", "subject": "A2MYB6MLQW0IGN:3TYCR1GOTDRCCQYD1V64UK7OE48LZS"}
{"meta_move": "drag_end", "rt": "1005.0", "trial_number": "1", "pre_actions": "1", "move": "2@24", "instance": "prb12715", "distance_to_goal": "NA", "progress": "NA", "move_number": "10", "optimal_length": "11", "subject": "A2MYB6MLQW0IGN:3TYCR1GOTDRCCQYD1V64UK7OE48LZS"}
{"meta_move": "drag_end", "rt": "1257.0", "trial_number": "1", "pre_actions": "1", "move": "0@23", "instance": "prb12715", "distance_to_goal": "NA", "progress": "NA", "move_number": "11", "optimal_length": "11", "subject": "A2MYB6MLQW0IGN:3TYCR1GOTDRCCQYD1V64UK7OE48LZS"}
{"meta_move": "drag_end", "rt": "1124.0", "trial_number": "1", "pre_actions": "1", "move": "7@18", "instance": "prb12715", "distance_to_goal": "NA", "progress": "NA", "move_number": "12", "optimal_length": "11", "subject": "A2MYB6MLQW0IGN:3TYCR1GOTDRCCQYD1V64UK7OE48LZS"}
{"meta_move": "drag_end", "rt": "2873.0", "trial_number": "1", "pre_actions": "1", "move": "2@26", "instance": "prb12715", "distance_to_goal": "NA", "progress": "NA", "move_number": "13", "optimal_length": "11", "subject": "A2MYB6MLQW0IGN:3TYCR1GOTDRCCQYD1V64UK7OE48LZS"}
{"meta_move": "drag_end", "rt": "576.0", "trial_number": "1", "pre_actions": "1", "move": "0@5", "instance": "prb12715", "distance_to_goal": "NA", "progress": "NA", "move_number": "14", "optimal_length": "11", "subject": "A2MYB6MLQW0IGN:3TYCR1GOTDRCCQYD1V64UK7OE48LZS"}
{"meta_move": "drag_end", "rt": "890.0", "trial_number": "1", "pre_actions": "1", "move": "2@27", "instance": "prb12715", "distance_to_goal": "NA", "progress": "NA", "move_number": "15", "optimal_length": "11", "subject": "A2MYB6MLQW0IGN:3TYCR1GOTDRCCQYD1V64UK7OE48LZS"}
{"meta_move": "drag_end", "rt": "1347.0", "trial_number": "1", "pre_actions": "1", "move": "4@20", "instance": "prb12715", "distance_to_goal": "NA", "progress": "NA", "move_number": "16", "optimal_length": "11", "subject": "A2MYB6MLQW0IGN:3TYCR1GOTDRCCQYD1V64UK7OE48LZS"}
{"meta_move": "drag_end", "rt": "2815.0", "trial_number": "1", "pre_actions": "1", "move": "r@15", "instance": "prb12715", "distance_to_goal": "NA", "progress": "NA", "move_number": "17", "optimal_length": "11", "subject": "A2MYB6MLQW0IGN:3TYCR1GOTDRCCQYD1V64UK7OE48LZS"}
{"meta_move": "drag_end", "rt": "893.0", "trial_number": "1", "pre_actions": "1", "move": "4@2", "instance": "prb12715", "distance_to_goal": "NA", "progress": "NA", "move_number": "18", "optimal_length": "11", "subject": "A2MYB6MLQW0IGN:3TYCR1GOTDRCCQYD1V64UK7OE48LZS"}
{"meta_move": "drag_end", "rt": "1221.0", "trial_number": "1", "pre_actions": "1", "move": "2@24", "instance": "prb12715", "distance_to_goal": "NA", "progress": "NA", "move_number": "19", "optimal_length": "11", "subject": "A2MYB6MLQW0IGN:3TYCR1GOTDRCCQYD1V64UK7OE48LZS"}
{"meta_move": "drag_end", "rt": "1050.0", "trial_number": "1", "pre_actions": "1", "move": "0@23", "instance": "prb12715", "distance_to_goal": "NA", "progress": "NA", "move_number": "20", "optimal_length": "11", "subject": "A2MYB6MLQW0IGN:3TYCR1GOTDRCCQYD1V64UK7OE48LZS"}
{"meta_move": "win", "rt": "744.0", "trial_number": "1", "pre_actions": "1", "move": "r@15", "instance": "prb12715", "distance_to_goal": "1", "progress": "NA", "move_number": "21", "optimal_length": "11", "subject": "A2MYB6MLQW0IGN:3TYCR1GOTDRCCQYD1V64UK7OE48LZS"}
{"meta_move": "drag_end", "rt": "80.0", "trial_number": "0", "pre_actions": "0", "move": "r@16", "instance": "prb12715", "distance_to_goal": "NA", "progress": "NA", "move_number": "21", "optimal_length": "11", "subject": "A2MYB6MLQW0IGN:3TYCR1GOTDRCCQYD1V64UK7OE48LZS"}
{"meta_move": "drag_end", "rt": "2488.0", "trial_number": "1", "pre_actions": "1", "move": "5@31", "instance": "prb12715", "distance_to_goal": "NA", "progress": "NA", "move_number": "0", "optimal_length": "11", "subject": "A2RTJ6BDY0DZVZ:3IJXV6UZ1YR1KY4G6BFEG1DXP7SRI1"}
{"meta_move": "drag_end", "rt": "992.0", "trial_number": "1", "pre_actions": "1", "move": "1@27", "instance": "prb12715", "distance_to_goal": "NA", "progress": "NA", "move_number": "1", "optimal_length": "11", "subject": "A2RTJ6BDY0DZVZ:3IJXV6UZ1YR1KY4G6BFEG1DXP7SRI1"}
{"meta_move": "drag_end", "rt": "3453.0", "trial_number": "1", "pre_actions": "1", "move": "6@4", "instance": "prb12715", "distance_to_goal": "NA", "progress": "NA", "move_number": "2", "optimal_length": "11", "subject": "A2RTJ6BDY0DZVZ:3IJXV6UZ1YR1KY4G6BFEG1DXP7SRI1"}
{"meta_move": "drag_end", "rt": "1159.0", "trial_number": "1", "pre_actions": "1", "move": "1@3", "instance": "prb12715", "distance_to_goal": "NA", "progress": "NA", "move_number": "3", "optimal_length": "11", "subject": "A2RTJ6BDY0DZVZ:3IJXV6UZ1YR1KY4G6BFEG1DXP7SRI1"}
{"meta_move": "drag_end", "rt": "831.0", "trial_number": "1", "pre_actions": "1", "move": "0@5", "instance": "prb12715", "distance_to_goal": "NA", "progress": "NA", "move_number": "4", "optimal_length": "11", "subject": "A2RTJ6BDY0DZVZ:3IJXV6UZ1YR1KY4G6BFEG1DXP7SRI1"}
{"meta_move": "drag_end", "rt": "3293.0", "trial_number": "1", "pre_actions": "1", "move": "7@22", "instance": "prb12715", "distance_to_goal": "NA", "progress": "NA", "move_number": "5", "optimal_length": "11", "subject": "A2RTJ6BDY0DZVZ:3IJXV6UZ1YR1KY4G6BFEG1DXP7SRI1"}
{"meta_move": "drag_end", "rt": "1498.0", "trial_number": "1", "pre_actions": "1", "move": "2@27", "instance": "prb12715", "distance_to_goal": "NA", "progress": "NA", "move_number": "6", "optimal_length": "11", "subject": "A2RTJ6BDY0DZVZ:3IJXV6UZ1YR1KY4G6BFEG1DXP7SRI1"}
{"meta_move": "drag_end", "rt": "2026.0", "trial_number": "1", "pre_actions": "1", "move": "5@34", "instance": "prb12715", "distance_to_goal": "NA", "progress": "NA", "move_number": "7", "optimal_length": "11", "subject": "A2RTJ6BDY0DZVZ:3IJXV6UZ1YR1KY4G6BFEG1DXP7SRI1"}
{"meta_move": "drag_end", "rt": "1986.0", "trial_number": "1", "pre_actions": "1", "move": "4@20", "instance": "prb12715", "distance_to_goal": "NA", "progress": "NA", "move_number": "8", "optimal_length": "11", "subject": "A2RTJ6BDY0DZVZ:3IJXV6UZ1YR1KY4G6BFEG1DXP7SRI1"}
{"meta_move": "drag_end", "rt": "4765.0", "trial_number": "1", "pre_actions": "1", "move": "r@15", "instance": "prb12715", "distance_to_goal": "NA", "progress": "NA", "move_number": "9", "optimal_length": "11", "subject": "A2RTJ6BDY0DZVZ:3IJXV6UZ1YR1KY4G6BFEG1DXP7SRI1"}
{"meta_move": "drag_end", "rt": "1253.0", "trial_number": "1", "pre_actions": "1", "move": "4@2", "instance": "prb12715", "distance_to_goal": "NA", "progress": "NA", "move_number": "10", "optimal_length": "11", "subject": "A2RTJ6BDY0DZVZ:3IJXV6UZ1YR1KY4G6BFEG1DXP7SRI1"}
{"meta_move": "drag_end", "rt": "1398.0", "trial_number": "1", "pre_actions": "1", "move": "7@20", "instance": "prb12715", "distance_to_goal": "NA", "progress": "NA", "move_number": "11", "optimal_length": "11", "subject": "A2RTJ6BDY0DZVZ:3IJXV6UZ1YR1KY4G6BFEG1DXP7SRI1"}
{"meta_move": "drag_end", "rt": "636.0", "trial_number": "1", "pre_actions": "1", "move": "2@26", "instance": "prb12715", "distance_to_goal": "NA", "progress": "NA", "move_number": "12", "optimal_length": "11", "subject": "A2RTJ6BDY0DZVZ:3IJXV6UZ1YR1KY4G6BFEG1DXP7SRI1"}
{"meta_move": "drag_end", "rt": "1304.0", "trial_number": "1", "pre_actions": "1", "move": "5@33", "instance": "prb12715", "distance_to_goal": "NA", "progress": "NA", "move_number": "13", "optimal_length": "11", "subject": "A2RTJ6BDY0DZVZ:3IJXV6UZ1YR1KY4G6BFEG1DXP7SRI1"}
{"meta_move": "drag_end", "rt": "932.0", "trial_number": "1", "pre_actions": "1", "move": "0@23", "instance": "prb12715", "distance_to_goal": "NA", "progress": "NA", "move_number": "14", "optimal_length": "11", "subject": "A2RTJ6BDY0DZVZ:3IJXV6UZ1YR1KY4G6BFEG1DXP7SRI1"}
{"meta_move": "win", "rt": "1358.0", "trial_number": "1", "pre_actions": "1", "move": "r@15", "instance": "prb12715", "distance_to_goal": "1", "progress": "NA", "move_number": "15", "optimal_length": "11", "subject": "A2RTJ6BDY0DZVZ:3IJXV6UZ1YR1KY4G6BFEG1DXP7SRI1"}
{"meta_move": "drag_end", "rt": "366.0", "trial_number": "0", "pre_actions": "0", "move": "r@16", "instance": "prb12715", "distance_to_goal": "NA", "progress": "NA", "move_number": "15", "optimal_length": "11", "subject": "A2RTJ6BDY0DZVZ:3IJXV6UZ1YR1KY4G6BFEG1DXP7SRI1"}
{"meta_move": "drag_end", "rt": "1809.0", "trial_number": "1", "pre_actions": "1", "move": "0@5", "instance": "prb12715", "distance_to_goal": "NA", "progress": "NA", "move_number": "0", "optimal_length": "11", "subject": "A2TQNX64349OZ9:3WSELTNVR4AZUVYAYCSWZIQW0J4ATB"}
{"meta_move": "drag_end", "rt": "1338.0", "trial_number": "1", "pre_actions": "1", "move": "1@3", "instance": "prb12715", "distance_to_goal": "NA", "progress": "NA", "move_number": "1", "optimal_length": "11", "subject": "A2TQNX64349OZ9:3WSELTNVR4AZUVYAYCSWZIQW0J4ATB"}
{"meta_move": "drag_end", "rt": "2559.0", "trial_number": "1", "pre_actions": "1", "move": "6@4", "instance": "prb12715", "distance_to_goal": "NA", "progress": "NA", "move_number": "2", "optimal_length": "11", "subject": "A2TQNX64349OZ9:3WSELTNVR4AZUVYAYCSWZIQW0J4ATB"}
{"meta_move": "drag_end", "rt": "783.0", "trial_number": "1", "pre_actions": "1", "move": "2@27", "instance": "prb12715", "distance_to_goal": "NA", "progress": "NA", "move_number": "3", "optimal_length": "11", "subject": "A2TQNX64349OZ9:3WSELTNVR4AZUVYAYCSWZIQW0J4ATB"}
{"meta_move": "drag_end", "rt": "2090.0", "trial_number": "1", "pre_actions": "1", "move": "5@30", "instance": "prb12715", "distance_to_goal": "NA", "progress": "NA", "move_number": "4", "optimal_length": "11", "subject": "A2TQNX64349OZ9:3WSELTNVR4AZUVYAYCSWZIQW0J4ATB"}
{"meta_move": "drag_end", "rt": "925.0", "trial_number": "1", "pre_actions": "1", "move": "4@20", "instance": "prb12715", "distance_to_goal": "NA", "progress": "NA", "move_number": "5", "optimal_length": "11", "subject": "A2TQNX64349OZ9:3WSELTNVR4AZUVYAYCSWZIQW0J4ATB"}
{"meta_move": "drag_end", "rt": "865.0", "trial_number": "1", "pre_actions": "1", "move": "r@15", "instance": "prb12715", "distance_to_goal": "NA", "progress": "NA", "move_number": "6", "optimal_length": "11", "subject": "A2TQNX64349OZ9:3WSELTNVR4AZUVYAYCSWZIQW0J4ATB"}
{"meta_move": "drag_end", "rt": "684.0", "trial_number": "1", "pre_actions": "1", "move": "4@2", "instance": "prb12715", "distance_to_goal": "NA", "progress": "NA", "move_number": "7", "optimal_length": "11", "subject": "A2TQNX64349OZ9:3WSELTNVR4AZUVYAYCSWZIQW0J4ATB"}
{"meta_move": "drag_end", "rt": "1193.0", "trial_number": "1", "pre_actions": "1", "move": "2@24", "instance": "prb12715", "distance_to_goal": "NA", "progress": "NA", "move_number": "8", "optimal_length": "11", "subject": "A2TQNX64349OZ9:3WSELTNVR4AZUVYAYCSWZIQW0J4ATB"}
{"meta_move": "drag_end", "rt": "654.0", "trial_number": "1", "pre_actions": "1", "move": "0@23", "instance": "prb12715", "distance_to_goal": "NA", "progress": "NA", "move_number": "9", "optimal_length": "11", "subject": "A2TQNX64349OZ9:3WSELTNVR4AZUVYAYCSWZIQW0J4ATB"}
{"meta_move": "win", "rt": "637.0", "trial_number": "1", "pre_actions": "1", "move": "r@15", "instance": "prb12715", "distance_to_goal": "1", "progress": "NA", "move_number": "10", "optimal_length": "11", "subject": "A2TQNX64349OZ9:3WSELTNVR4AZUVYAYCSWZIQW0J4ATB"}
{"meta_move": "drag_end", "rt": "101.0", "trial_number": "0", "pre_actions": "0", "move": "r@16", "instance": "prb12715", "distance_to_goal": "NA", "progress": "NA", "move_number": "10", "optimal_length": "11", "subject": "A2TQNX64349OZ9:3WSELTNVR4AZUVYAYCSWZIQW0J4ATB"}
{"meta_move": "drag_end", "rt": "3460.0", "trial_number": "1", "pre_actions": "1", "move": "1@15", "instance": "prb12715", "distance_to_goal": "NA", "progress": "NA", "move_number": "0", "optimal_length": "11", "subject": "A3Q0XAGQ7TD7MP:3X87C8JFV7JQ2BSCY8KSFD9F2ILSQK"}
{"meta_move": "drag_end", "rt": "1248.0", "trial_number": "1", "pre_actions": "1", "move": "5@30", "instance": "prb12715", "distance_to_goal": "NA", "progress": "NA", "move_number": "1", "optimal_length": "11", "subject": "A3Q0XAGQ7TD7MP:3X87C8JFV7JQ2BSCY8KSFD9F2ILSQK"}
{"meta_move": "drag_end", "rt": "1512.0", "trial_number": "1", "pre_actions": "1", "move": "6@16", "instance": "prb12715", "distance_to_goal": "NA", "progress": "NA", "move_number": "2", "optimal_length": "11", "subject": "A3Q0XAGQ7TD7MP:3X87C8JFV7JQ2BSCY8KSFD9F2ILSQK"}
{"meta_move": "drag_end", "rt": "656.0", "trial_number": "1", "pre_actions": "1", "move": "6@22", "instance": "prb12715", "distance_to_goal": "NA", "progress": "NA", "move_number": "3", "optimal_length": "11", "subject": "A3Q0XAGQ7TD7MP:3X87C8JFV7JQ2BSCY8KSFD9F2ILSQK"}
{"meta_move": "drag_end", "rt": "343.0", "trial_number": "1", "pre_actions": "1", "move": "2@24", "instance": "prb12715", "distance_to_goal": "NA", "progress": "NA", "move_number": "4", "optimal_length": "11", "subject": "A3Q0XAGQ7TD7MP:3X87C8JFV7JQ2BSCY8KSFD9F2ILSQK"}
{"meta_move": "drag_end", "rt": "1396.0", "trial_number": "1", "pre_actions": "1", "move": "1@15", "instance": "prb12715", "distance_to_goal": "NA", "progress": "NA", "move_number": "4", "optimal_length": "11", "subject": "A3Q0XAGQ7TD7MP:3X87C8JFV7JQ2BSCY8KSFD9F2ILSQK"}
{"meta_move": "drag_end", "rt": "1689.0", "trial_number": "1", "pre_actions": "1", "move": "1@3", "instance": "prb12715", "distance_to_goal": "NA", "progress": "NA", "move_number": "4", "optimal_length": "11", "subject": "A3Q0XAGQ7TD7MP:3X87C8JFV7JQ2BSCY8KSFD9F2ILSQK"}
{"meta_move": "drag_end", "rt": "1393.0", "trial_number": "1", "pre_actions": "1", "move": "6@4", "instance": "prb12715", "distance_to_goal": "NA", "progress": "NA", "move_number": "5", "optimal_length": "11", "subject": "A3Q0XAGQ7TD7MP:3X87C8JFV7JQ2BSCY8KSFD9F2ILSQK"}
{"meta_move": "drag_end", "rt": "4813.0", "trial_number": "1", "pre_actions": "1", "move": "2@24", "instance": "prb12715", "distance_to_goal": "NA", "progress": "NA", "move_number": "6", "optimal_length": "11", "subject": "A3Q0XAGQ7TD7MP:3X87C8JFV7JQ2BSCY8KSFD9F2ILSQK"}
{"meta_move": "drag_end", "rt": "1606.0", "trial_number": "1", "pre_actions": "1", "move": "0@23", "instance": "prb12715", "distance_to_goal": "NA", "progress": "NA", "move_number": "6", "optimal_length": "11", "subject": "A3Q0XAGQ7TD7MP:3X87C8JFV7JQ2BSCY8KSFD9F2ILSQK"}
{"meta_move": "drag_end", "rt": "5771.0", "trial_number": "1", "pre_actions": "1", "move": "2@26", "instance": "prb12715", "distance_to_goal": "NA", "progress": "NA", "move_number": "7", "optimal_length": "11", "subject": "A3Q0XAGQ7TD7MP:3X87C8JFV7JQ2BSCY8KSFD9F2ILSQK"}
{"meta_move": "drag_end", "rt": "697.0", "trial_number": "1", "pre_actions": "1", "move": "0@5", "instance": "prb12715", "distance_to_goal": "NA", "progress": "NA", "move_number": "8", "optimal_length": "11", "subject": "A3Q0XAGQ7TD7MP:3X87C8JFV7JQ2BSCY8KSFD9F2ILSQK"}
{"meta_move": "drag_end", "rt": "1436.0", "trial_number": "1", "pre_actions": "1", "move": "2@27", "instance": "prb12715", "distance_to_goal": "NA", "progress": "NA", "move_number": "9", "optimal_length": "11", "subject": "A3Q0XAGQ7TD7MP:3X87C8JFV7JQ2BSCY8KSFD9F2ILSQK"}
{"meta_move": "drag_end", "rt": "1265.0", "trial_number": "1", "pre_actions": "1", "move": "4@20", "instance": "prb12715", "distance_to_goal": "NA", "progress": "NA", "move_number": "10", "optimal_length": "11", "subject": "A3Q0XAGQ7TD7MP:3X87C8JFV7JQ2BSCY8KSFD9F2ILSQK"}
{"meta_move": "drag_end", "rt": "1797.0", "trial_number": "1", "pre_actions": "1", "move": "r@15", "instance": "prb12715", "distance_to_goal": "NA", "progress": "NA", "move_number": "11", "optimal_length": "11", "subject": "A3Q0XAGQ7TD7MP:3X87C8JFV7JQ2BSCY8KSFD9F2ILSQK"}
{"meta_move": "drag_end", "rt": "1387.0", "trial_number": "1", "pre_actions": "1", "move": "4@2", "instance": "prb12715", "distance_to_goal": "NA", "progress": "NA", "move_number": "12", "optimal_length": "11", "subject": "A3Q0XAGQ7TD7MP:3X87C8JFV7JQ2BSCY8KSFD9F2ILSQK"}
{"meta_move": "drag_end", "rt": "1323.0", "trial_number": "1", "pre_actions": "1", "move": "2@24", "instance": "prb12715", "distance_to_goal": "NA", "progress": "NA", "move_number": "13", "optimal_length": "11", "subject": "A3Q0XAGQ7TD7MP:3X87C8JFV7JQ2BSCY8KSFD9F2ILSQK"}
{"meta_move": "drag_end", "rt": "1194.0", "trial_number": "1", "pre_actions": "1", "move": "0@23", "instance": "prb12715", "distance_to_goal": "NA", "progress": "NA", "move_number": "14", "optimal_length": "11", "subject": "A3Q0XAGQ7TD7MP:3X87C8JFV7JQ2BSCY8KSFD9F2ILSQK"}
{"meta_move": "win", "rt": "934.0", "trial_number": "1", "pre_actions": "1", "move": "r@15", "instance": "prb12715", "distance_to_goal": "1", "progress": "NA", "move_number": "15", "optimal_length": "11", "subject": "A3Q0XAGQ7TD7MP:3X87C8JFV7JQ2BSCY8KSFD9F2ILSQK"}
{"meta_move": "drag_end", "rt": "115.0", "trial_number": "0", "pre_actions": "0", "move": "r@16", "instance": "prb12715", "distance_to_goal": "NA", "progress": "NA", "move_number": "15", "optimal_length": "11", "subject": "A3Q0XAGQ7TD7MP:3X87C8JFV7JQ2BSCY8KSFD9F2ILSQK"}
{"meta_move": "drag_end", "rt": "1681.0", "trial_number": "1", "pre_actions": "1", "move": "0@5", "instance": "prb12715", "distance_to_goal": "NA", "progress": "NA", "move_number": "0", "optimal_length": "11", "subject": "ARWF605I7RWM7:3AZHRG4CU5SYU12YRVPCSZALW5003R"}
{"meta_move": "drag_end", "rt": "825.0", "trial_number": "1", "pre_actions": "1", "move": "0@23", "instance": "prb12715", "distance_to_goal": "NA", "progress": "NA", "move_number": "1", "optimal_length": "11", "subject": "ARWF605I7RWM7:3AZHRG4CU5SYU12YRVPCSZALW5003R"}
{"meta_move": "drag_end", "rt": "1407.0", "trial_number": "1", "pre_actions": "1", "move": "2@24", "instance": "prb12715", "distance_to_goal": "NA", "progress": "NA", "move_number": "2", "optimal_length": "11", "subject": "ARWF605I7RWM7:3AZHRG4CU5SYU12YRVPCSZALW5003R"}
{"meta_move": "drag_end", "rt": "600.0", "trial_number": "1", "pre_actions": "1", "move": "5@30", "instance": "prb12715", "distance_to_goal": "NA", "progress": "NA", "move_number": "2", "optimal_length": "11", "subject": "ARWF605I7RWM7:3AZHRG4CU5SYU12YRVPCSZALW5003R"}
{"meta_move": "drag_end", "rt": "680.0", "trial_number": "1", "pre_actions": "1", "move": "1@27", "instance": "prb12715", "distance_to_goal": "NA", "progress": "NA", "move_number": "3", "optimal_length": "11", "subject": "ARWF605I7RWM7:3AZHRG4CU5SYU12YRVPCSZALW5003R"}
{"meta_move": "drag_end", "rt": "1193.0", "trial_number": "1", "pre_actions": "1", "move": "6@4", "instance": "prb12715", "distance_to_goal": "NA", "progress": "NA", "move_number": "4", "optimal_length": "11", "subject": "ARWF605I7RWM7:3AZHRG4CU5SYU12YRVPCSZALW5003R"}
{"meta_move": "drag_end", "rt": "664.0", "trial_number": "1", "pre_actions": "1", "move": "1@3", "instance": "prb12715", "distance_to_goal": "NA", "progress": "NA", "move_number": "5", "optimal_length": "11", "subject": "ARWF605I7RWM7:3AZHRG4CU5SYU12YRVPCSZALW5003R"}
{"meta_move": "drag_end", "rt": "647.0", "trial_number": "1", "pre_actions": "1", "move": "2@26", "instance": "prb12715", "distance_to_goal": "NA", "progress": "NA", "move_number": "6", "optimal_length": "11", "subject": "ARWF605I7RWM7:3AZHRG4CU5SYU12YRVPCSZALW5003R"}
{"meta_move": "drag_end", "rt": "1321.0", "trial_number": "1", "pre_actions": "1", "move": "2@24", "instance": "prb12715", "distance_to_goal": "NA", "progress": "NA", "move_number": "7", "optimal_length": "11", "subject": "ARWF605I7RWM7:3AZHRG4CU5SYU12YRVPCSZALW5003R"}
{"meta_move": "drag_end", "rt": "2192.0", "trial_number": "1", "pre_actions": "1", "move": "4@8", "instance": "prb12715", "distance_to_goal": "NA", "progress": "NA", "move_number": "8", "optimal_length": "11", "subject": "ARWF605I7RWM7:3AZHRG4CU5SYU12YRVPCSZALW5003R"}
{"meta_move": "drag_end", "rt": "592.0", "trial_number": "1", "pre_actions": "1", "move": "1@27", "instance": "prb12715", "distance_to_goal": "NA", "progress": "NA", "move_number": "9", "optimal_length": "11", "subject": "ARWF605I7RWM7:3AZHRG4CU5SYU12YRVPCSZALW5003R"}
{"meta_move": "drag_end", "rt": "931.0", "trial_number": "1", "pre_actions": "1", "move": "6@28", "instance": "prb12715", "distance_to_goal": "NA", "progress": "NA", "move_number": "10", "optimal_length": "11", "subject": "ARWF605I7RWM7:3AZHRG4CU5SYU12YRVPCSZALW5003R"}
{"meta_move": "drag_end", "rt": "1348.0", "trial_number": "1", "pre_actions": "1", "move": "4@2", "instance": "prb12715", "distance_to_goal": "NA", "progress": "NA", "move_number": "11", "optimal_length": "11", "subject": "ARWF605I7RWM7:3AZHRG4CU5SYU12YRVPCSZALW5003R"}
{"meta_move": "drag_end", "rt": "857.0", "trial_number": "1", "pre_actions": "1", "move": "1@3", "instance": "prb12715", "distance_to_goal": "NA", "progress": "NA", "move_number": "12", "optimal_length": "11", "subject": "ARWF605I7RWM7:3AZHRG4CU5SYU12YRVPCSZALW5003R"}
{"meta_move": "drag_end", "rt": "784.0", "trial_number": "1", "pre_actions": "1", "move": "6@4", "instance": "prb12715", "distance_to_goal": "NA", "progress": "NA", "move_number": "13", "optimal_length": "11", "subject": "ARWF605I7RWM7:3AZHRG4CU5SYU12YRVPCSZALW5003R"}
{"meta_move": "drag_end", "rt": "704.0", "trial_number": "1", "pre_actions": "1", "move": "0@5", "instance": "prb12715", "distance_to_goal": "NA", "progress": "NA", "move_number": "14", "optimal_length": "11", "subject": "ARWF605I7RWM7:3AZHRG4CU5SYU12YRVPCSZALW5003R"}
{"meta_move": "drag_end", "rt": "695.0", "trial_number": "1", "pre_actions": "1", "move": "2@27", "instance": "prb12715", "distance_to_goal": "NA", "progress": "NA", "move_number": "15", "optimal_length": "11", "subject": "ARWF605I7RWM7:3AZHRG4CU5SYU12YRVPCSZALW5003R"}
{"meta_move": "drag_end", "rt": "729.0", "trial_number": "1", "pre_actions": "1", "move": "7@22", "instance": "prb12715", "distance_to_goal": "NA", "progress": "NA", "move_number": "16", "optimal_length": "11", "subject": "ARWF605I7RWM7:3AZHRG4CU5SYU12YRVPCSZALW5003R"}
{"meta_move": "drag_end", "rt": "1592.0", "trial_number": "1", "pre_actions": "1", "move": "4@20", "instance": "prb12715", "distance_to_goal": "NA", "progress": "NA", "move_number": "17", "optimal_length": "11", "subject": "ARWF605I7RWM7:3AZHRG4CU5SYU12YRVPCSZALW5003R"}
{"meta_move": "drag_end", "rt": "2239.0", "trial_number": "1", "pre_actions": "1", "move": "7@21", "instance": "prb12715", "distance_to_goal": "NA", "progress": "NA", "move_number": "18", "optimal_length": "11", "subject": "ARWF605I7RWM7:3AZHRG4CU5SYU12YRVPCSZALW5003R"}
{"meta_move": "drag_end", "rt": "896.0", "trial_number": "1", "pre_actions": "1", "move": "0@11", "instance": "prb12715", "distance_to_goal": "NA", "progress": "NA", "move_number": "19", "optimal_length": "11", "subject": "ARWF605I7RWM7:3AZHRG4CU5SYU12YRVPCSZALW5003R"}
{"meta_move": "drag_end", "rt": "904.0", "trial_number": "1", "pre_actions": "1", "move": "0@5", "instance": "prb12715", "distance_to_goal": "NA", "progress": "NA", "move_number": "20", "optimal_length": "11", "subject": "ARWF605I7RWM7:3AZHRG4CU5SYU12YRVPCSZALW5003R"}
{"meta_move": "drag_end", "rt": "929.0", "trial_number": "1", "pre_actions": "1", "move": "r@15", "instance": "prb12715", "distance_to_goal": "NA", "progress": "NA", "move_number": "21", "optimal_length": "11", "subject": "ARWF605I7RWM7:3AZHRG4CU5SYU12YRVPCSZALW5003R"}
{"meta_move": "drag_end", "rt": "1232.0", "trial_number": "1", "pre_actions": "1", "move": "4@2", "instance": "prb12715", "distance_to_goal": "NA", "progress": "NA", "move_number": "22", "optimal_length": "11", "subject": "ARWF605I7RWM7:3AZHRG4CU5SYU12YRVPCSZALW5003R"}
{"meta_move": "drag_end", "rt": "591.0", "trial_number": "1", "pre_actions": "1", "move": "7@18", "instance": "prb12715", "distance_to_goal": "NA", "progress": "NA", "move_number": "23", "optimal_length": "11", "subject": "ARWF605I7RWM7:3AZHRG4CU5SYU12YRVPCSZALW5003R"}
{"meta_move": "drag_end", "rt": "576.0", "trial_number": "1", "pre_actions": "1", "move": "2@24", "instance": "prb12715", "distance_to_goal": "NA", "progress": "NA", "move_number": "24", "optimal_length": "11", "subject": "ARWF605I7RWM7:3AZHRG4CU5SYU12YRVPCSZALW5003R"}
{"meta_move": "drag_end", "rt": "729.0", "trial_number": "1", "pre_actions": "1", "move": "0@23", "instance": "prb12715", "distance_to_goal": "NA", "progress": "NA", "move_number": "25", "optimal_length": "11", "subject": "ARWF605I7RWM7:3AZHRG4CU5SYU12YRVPCSZALW5003R"}
{"meta_move": "win", "rt": "567.0", "trial_number": "1", "pre_actions": "1", "move": "r@15", "instance": "prb12715", "distance_to_goal": "1", "progress": "NA", "move_number": "26", "optimal_length": "11", "subject": "ARWF605I7RWM7:3AZHRG4CU5SYU12YRVPCSZALW5003R"}
{"meta_move": "drag_end", "rt": "160.0", "trial_number": "0", "pre_actions": "0", "move": "r@16", "instance": "prb12715", "distance_to_goal": "NA", "progress": "NA", "move_number": "26", "optimal_length": "11", "subject": "ARWF605I7RWM7:3AZHRG4CU5SYU12YRVPCSZALW5003R"}
