{"meta_move": "drag_end", "rt": "112479.0", "trial_number": "1", "pre_actions": "1", "move": "5@0", "instance": "prb12604", "distance_to_goal": "NA", "progress": "NA", "move_number": "0", "optimal_length": "7", "subject": "A15781PHGW377Y:3YW4XOSQKRTI0K0Z2YPDTDJVFABU1I"}
{"meta_move": "drag_end", "rt": "893.0", "trial_number": "1", "pre_actions": "1", "move": "1@24", "instance": "prb12604", "distance_to_goal": "NA", "progress": "NA", "move_number": "1", "optimal_length": "7", "subject": "A15781PHGW377Y:3YW4XOSQKRTI0K0Z2YPDTDJVFABU1I"}
{"meta_move": "drag_end", "rt": "901.0", "trial_number": "1", "pre_actions": "1", "move": "6@27", "instance": "prb12604", "distance_to_goal": "NA", "progress": "NA", "move_number": "2", "optimal_length": "7", "subject": "A15781PHGW377Y:3YW4XOSQKRTI0K0Z2YPDTDJVFABU1I"}
{"meta_move": "drag_end", "rt": "2660.0", "trial_number": "1", "pre_actions": "1", "move": "r@14", "instance": "prb12604", "distance_to_goal": "NA", "progress": "NA", "move_number": "3", "optimal_length": "7", "subject": "A15781PHGW377Y:3YW4XOSQKRTI0K0Z2YPDTDJVFABU1I"}
{"meta_move": "drag_end", "rt": "780.0", "trial_number": "1", "pre_actions": "1", "move": "2@4", "instance": "prb12604", "distance_to_goal": "NA", "progress": "NA", "move_number": "4", "optimal_length": "7", "subject": "A15781PHGW377Y:3YW4XOSQKRTI0K0Z2YPDTDJVFABU1I"}
{"meta_move": "drag_end", "rt": "952.0", "trial_number": "1", "pre_actions": "1", "move": "6@27", "instance": "prb12604", "distance_to_goal": "NA", "progress": "NA", "move_number": "5", "optimal_length": "7", "subject": "A15781PHGW377Y:3YW4XOSQKRTI0K0Z2YPDTDJVFABU1I"}
{"meta_move": "drag_end", "rt": "164.0", "trial_number": "1", "pre_actions": "1", "move": "6@27", "instance": "prb12604", "distance_to_goal": "NA", "progress": "NA", "move_number": "5", "optimal_length": "7", "subject": "A15781PHGW377Y:3YW4XOSQKRTI0K0Z2YPDTDJVFABU1I"}
{"meta_move": "drag_end", "rt": "893.0", "trial_number": "1", "pre_actions": "1", "move": "r@13", "instance": "prb12604", "distance_to_goal": "NA", "progress": "NA", "move_number": "5", "optimal_length": "7", "subject": "A15781PHGW377Y:3YW4XOSQKRTI0K0Z2YPDTDJVFABU1I"}
{"meta_move": "drag_end", "rt": "931.0", "trial_number": "1", "pre_actions": "1", "move": "6@15", "instance": "prb12604", "distance_to_goal": "NA", "progress": "NA", "move_number": "6", "optimal_length": "7", "subject": "A15781PHGW377Y:3YW4XOSQKRTI0K0Z2YPDTDJVFABU1I"}
{"meta_move": "drag_end", "rt": "1047.0", "trial_number": "1", "pre_actions": "1", "move": "1@27", "instance": "prb12604", "distance_to_goal": "NA", "progress": "NA", "move_number": "7", "optimal_length": "7", "subject": "A15781PHGW377Y:3YW4XOSQKRTI0K0Z2YPDTDJVFABU1I"}
{"meta_move": "drag_end", "rt": "1321.0", "trial_number": "1", "pre_actions": "1", "move": "4@1", "instance": "prb12604", "distance_to_goal": "NA", "progress": "NA", "move_number": "8", "optimal_length": "7", "subject": "A15781PHGW377Y:3YW4XOSQKRTI0K0Z2YPDTDJVFABU1I"}
{"meta_move": "drag_end", "rt": "882.0", "trial_number": "1", "pre_actions": "1", "move": "5@18", "instance": "prb12604", "distance_to_goal": "NA", "progress": "NA", "move_number": "8", "optimal_length": "7", "subject": "A15781PHGW377Y:3YW4XOSQKRTI0K0Z2YPDTDJVFABU1I"}
{"meta_move": "drag_end", "rt": "1494.0", "trial_number": "1", "pre_actions": "1", "move": "r@12", "instance": "prb12604", "distance_to_goal": "NA", "progress": "NA", "move_number": "9", "optimal_length": "7", "subject": "A15781PHGW377Y:3YW4XOSQKRTI0K0Z2YPDTDJVFABU1I"}
{"meta_move": "drag_end", "rt": "1603.0", "trial_number": "1", "pre_actions": "1", "move": "1@25", "instance": "prb12604", "distance_to_goal": "NA", "progress": "NA", "move_number": "10", "optimal_length": "7", "subject": "A15781PHGW377Y:3YW4XOSQKRTI0K0Z2YPDTDJVFABU1I"}
{"meta_move": "drag_end", "rt": "1259.0", "trial_number": "1", "pre_actions": "1", "move": "2@22", "instance": "prb12604", "distance_to_goal": "NA", "progress": "NA", "move_number": "11", "optimal_length": "7", "subject": "A15781PHGW377Y:3YW4XOSQKRTI0K0Z2YPDTDJVFABU1I"}
{"meta_move": "drag_end", "rt": "891.0", "trial_number": "1", "pre_actions": "1", "move": "7@29", "instance": "prb12604", "distance_to_goal": "NA", "progress": "NA", "move_number": "12", "optimal_length": "7", "subject": "A15781PHGW377Y:3YW4XOSQKRTI0K0Z2YPDTDJVFABU1I"}
{"meta_move": "drag_end", "rt": "1657.0", "trial_number": "1", "pre_actions": "1", "move": "3@9", "instance": "prb12604", "distance_to_goal": "NA", "progress": "NA", "move_number": "13", "optimal_length": "7", "subject": "A15781PHGW377Y:3YW4XOSQKRTI0K0Z2YPDTDJVFABU1I"}
{"meta_move": "drag_end", "rt": "889.0", "trial_number": "1", "pre_actions": "1", "move": "3@8", "instance": "prb12604", "distance_to_goal": "NA", "progress": "NA", "move_number": "14", "optimal_length": "7", "subject": "A15781PHGW377Y:3YW4XOSQKRTI0K0Z2YPDTDJVFABU1I"}
{"meta_move": "drag_end", "rt": "801.0", "trial_number": "1", "pre_actions": "1", "move": "0@17", "instance": "prb12604", "distance_to_goal": "NA", "progress": "NA", "move_number": "15", "optimal_length": "7", "subject": "A15781PHGW377Y:3YW4XOSQKRTI0K0Z2YPDTDJVFABU1I"}
{"meta_move": "drag_end", "rt": "1038.0", "trial_number": "1", "pre_actions": "1", "move": "3@10", "instance": "prb12604", "distance_to_goal": "NA", "progress": "NA", "move_number": "16", "optimal_length": "7", "subject": "A15781PHGW377Y:3YW4XOSQKRTI0K0Z2YPDTDJVFABU1I"}
{"meta_move": "drag_end", "rt": "962.0", "trial_number": "1", "pre_actions": "1", "move": "6@3", "instance": "prb12604", "distance_to_goal": "NA", "progress": "NA", "move_number": "17", "optimal_length": "7", "subject": "A15781PHGW377Y:3YW4XOSQKRTI0K0Z2YPDTDJVFABU1I"}
{"meta_move": "drag_end", "rt": "2146.0", "trial_number": "1", "pre_actions": "1", "move": "2@16", "instance": "prb12604", "distance_to_goal": "NA", "progress": "NA", "move_number": "18", "optimal_length": "7", "subject": "A15781PHGW377Y:3YW4XOSQKRTI0K0Z2YPDTDJVFABU1I"}
{"meta_move": "drag_end", "rt": "1489.0", "trial_number": "1", "pre_actions": "1", "move": "r@13", "instance": "prb12604", "distance_to_goal": "NA", "progress": "NA", "move_number": "19", "optimal_length": "7", "subject": "A15781PHGW377Y:3YW4XOSQKRTI0K0Z2YPDTDJVFABU1I"}
{"meta_move": "drag_end", "rt": "813.0", "trial_number": "1", "pre_actions": "1", "move": "5@0", "instance": "prb12604", "distance_to_goal": "NA", "progress": "NA", "move_number": "20", "optimal_length": "7", "subject": "A15781PHGW377Y:3YW4XOSQKRTI0K0Z2YPDTDJVFABU1I"}
{"meta_move": "drag_end", "rt": "975.0", "trial_number": "1", "pre_actions": "1", "move": "1@24", "instance": "prb12604", "distance_to_goal": "NA", "progress": "NA", "move_number": "21", "optimal_length": "7", "subject": "A15781PHGW377Y:3YW4XOSQKRTI0K0Z2YPDTDJVFABU1I"}
{"meta_move": "drag_end", "rt": "1746.0", "trial_number": "1", "pre_actions": "1", "move": "6@27", "instance": "prb12604", "distance_to_goal": "NA", "progress": "NA", "move_number": "22", "optimal_length": "7", "subject": "A15781PHGW377Y:3YW4XOSQKRTI0K0Z2YPDTDJVFABU1I"}
{"meta_move": "drag_end", "rt": "1251.0", "trial_number": "1", "pre_actions": "1", "move": "3@8", "instance": "prb12604", "distance_to_goal": "NA", "progress": "NA", "move_number": "23", "optimal_length": "7", "subject": "A15781PHGW377Y:3YW4XOSQKRTI0K0Z2YPDTDJVFABU1I"}
{"meta_move": "drag_end", "rt": "1040.0", "trial_number": "1", "pre_actions": "1", "move": "2@4", "instance": "prb12604", "distance_to_goal": "NA", "progress": "NA", "move_number": "24", "optimal_length": "7", "subject": "A15781PHGW377Y:3YW4XOSQKRTI0K0Z2YPDTDJVFABU1I"}
{"meta_move": "drag_end", "rt": "1000.0", "trial_number": "1", "pre_actions": "1", "move": "r@14", "instance": "prb12604", "distance_to_goal": "NA", "progress": "NA", "move_number": "25", "optimal_length": "7", "subject": "A15781PHGW377Y:3YW4XOSQKRTI0K0Z2YPDTDJVFABU1I"}
{"meta_move": "drag_end", "rt": "894.0", "trial_number": "1", "pre_actions": "1", "move": "4@13", "instance": "prb12604", "distance_to_goal": "NA", "progress": "NA", "move_number": "26", "optimal_length": "7", "subject": "A15781PHGW377Y:3YW4XOSQKRTI0K0Z2YPDTDJVFABU1I"}
{"meta_move": "drag_end", "rt": "992.0", "trial_number": "1", "pre_actions": "1", "move": "3@7", "instance": "prb12604", "distance_to_goal": "NA", "progress": "NA", "move_number": "27", "optimal_length": "7", "subject": "A15781PHGW377Y:3YW4XOSQKRTI0K0Z2YPDTDJVFABU1I"}
{"meta_move": "drag_end", "rt": "1748.0", "trial_number": "1", "pre_actions": "1", "move": "5@6", "instance": "prb12604", "distance_to_goal": "NA", "progress": "NA", "move_number": "28", "optimal_length": "7", "subject": "A15781PHGW377Y:3YW4XOSQKRTI0K0Z2YPDTDJVFABU1I"}
{"meta_move": "drag_end", "rt": "1097.0", "trial_number": "1", "pre_actions": "1", "move": "6@21", "instance": "prb12604", "distance_to_goal": "NA", "progress": "NA", "move_number": "29", "optimal_length": "7", "subject": "A15781PHGW377Y:3YW4XOSQKRTI0K0Z2YPDTDJVFABU1I"}
{"meta_move": "drag_end", "rt": "1402.0", "trial_number": "1", "pre_actions": "1", "move": "2@22", "instance": "prb12604", "distance_to_goal": "NA", "progress": "NA", "move_number": "30", "optimal_length": "7", "subject": "A15781PHGW377Y:3YW4XOSQKRTI0K0Z2YPDTDJVFABU1I"}
{"meta_move": "drag_end", "rt": "702.0", "trial_number": "1", "pre_actions": "1", "move": "0@5", "instance": "prb12604", "distance_to_goal": "NA", "progress": "NA", "move_number": "31", "optimal_length": "7", "subject": "A15781PHGW377Y:3YW4XOSQKRTI0K0Z2YPDTDJVFABU1I"}
{"meta_move": "win", "rt": "659.0", "trial_number": "1", "pre_actions": "1", "move": "r@14", "instance": "prb12604", "distance_to_goal": "1", "progress": "NA", "move_number": "32", "optimal_length": "7", "subject": "A15781PHGW377Y:3YW4XOSQKRTI0K0Z2YPDTDJVFABU1I"}
{"meta_move": "drag_end", "rt": "165.0", "trial_number": "0", "pre_actions": "0", "move": "r@16", "instance": "prb12604", "distance_to_goal": "NA", "progress": "NA", "move_number": "32", "optimal_length": "7", "subject": "A15781PHGW377Y:3YW4XOSQKRTI0K0Z2YPDTDJVFABU1I"}
{"meta_move": "drag_end", "rt": "7865.0", "trial_number": "1", "pre_actions": "1", "move": "r@13", "instance": "prb12604", "distance_to_goal": "NA", "progress": "NA", "move_number": "0", "optimal_length": "7", "subject": "A15FXHC1CVNW31:3TS1AR6UQRM7SOIBWPBN8N9589Y7FV"}
{"meta_move": "drag_end", "rt": "1016.0", "trial_number": "1", "pre_actions": "1", "move": "3@9", "instance": "prb12604", "distance_to_goal": "NA", "progress": "NA", "move_number": "0", "optimal_length": "7", "subject": "A15FXHC1CVNW31:3TS1AR6UQRM7SOIBWPBN8N9589Y7FV"}
{"meta_move": "drag_end", "rt": "1302.0", "trial_number": "1", "pre_actions": "1", "move": "2@22", "instance": "prb12604", "distance_to_goal": "NA", "progress": "NA", "move_number": "1", "optimal_length": "7", "subject": "A15FXHC1CVNW31:3TS1AR6UQRM7SOIBWPBN8N9589Y7FV"}
{"meta_move": "drag_end", "rt": "496.0", "trial_number": "1", "pre_actions": "1", "move": "7@29", "instance": "prb12604", "distance_to_goal": "NA", "progress": "NA", "move_number": "2", "optimal_length": "7", "subject": "A15FXHC1CVNW31:3TS1AR6UQRM7SOIBWPBN8N9589Y7FV"}
{"meta_move": "drag_end", "rt": "896.0", "trial_number": "1", "pre_actions": "1", "move": "0@17", "instance": "prb12604", "distance_to_goal": "NA", "progress": "NA", "move_number": "3", "optimal_length": "7", "subject": "A15FXHC1CVNW31:3TS1AR6UQRM7SOIBWPBN8N9589Y7FV"}
{"meta_move": "drag_end", "rt": "740.0", "trial_number": "1", "pre_actions": "1", "move": "3@10", "instance": "prb12604", "distance_to_goal": "NA", "progress": "NA", "move_number": "4", "optimal_length": "7", "subject": "A15FXHC1CVNW31:3TS1AR6UQRM7SOIBWPBN8N9589Y7FV"}
{"meta_move": "drag_end", "rt": "651.0", "trial_number": "1", "pre_actions": "1", "move": "6@3", "instance": "prb12604", "distance_to_goal": "NA", "progress": "NA", "move_number": "5", "optimal_length": "7", "subject": "A15FXHC1CVNW31:3TS1AR6UQRM7SOIBWPBN8N9589Y7FV"}
{"meta_move": "drag_end", "rt": "991.0", "trial_number": "1", "pre_actions": "1", "move": "2@16", "instance": "prb12604", "distance_to_goal": "NA", "progress": "NA", "move_number": "6", "optimal_length": "7", "subject": "A15FXHC1CVNW31:3TS1AR6UQRM7SOIBWPBN8N9589Y7FV"}
{"meta_move": "drag_end", "rt": "2456.0", "trial_number": "1", "pre_actions": "1", "move": "5@0", "instance": "prb12604", "distance_to_goal": "NA", "progress": "NA", "move_number": "7", "optimal_length": "7", "subject": "A15FXHC1CVNW31:3TS1AR6UQRM7SOIBWPBN8N9589Y7FV"}
{"meta_move": "drag_end", "rt": "1033.0", "trial_number": "1", "pre_actions": "1", "move": "6@15", "instance": "prb12604", "distance_to_goal": "NA", "progress": "NA", "move_number": "8", "optimal_length": "7", "subject": "A15FXHC1CVNW31:3TS1AR6UQRM7SOIBWPBN8N9589Y7FV"}
{"meta_move": "drag_end", "rt": "1221.0", "trial_number": "1", "pre_actions": "1", "move": "1@24", "instance": "prb12604", "distance_to_goal": "NA", "progress": "NA", "move_number": "9", "optimal_length": "7", "subject": "A15FXHC1CVNW31:3TS1AR6UQRM7SOIBWPBN8N9589Y7FV"}
{"meta_move": "drag_end", "rt": "726.0", "trial_number": "1", "pre_actions": "1", "move": "6@27", "instance": "prb12604", "distance_to_goal": "NA", "progress": "NA", "move_number": "10", "optimal_length": "7", "subject": "A15FXHC1CVNW31:3TS1AR6UQRM7SOIBWPBN8N9589Y7FV"}
{"meta_move": "drag_end", "rt": "717.0", "trial_number": "1", "pre_actions": "1", "move": "r@14", "instance": "prb12604", "distance_to_goal": "NA", "progress": "NA", "move_number": "11", "optimal_length": "7", "subject": "A15FXHC1CVNW31:3TS1AR6UQRM7SOIBWPBN8N9589Y7FV"}
{"meta_move": "drag_end", "rt": "527.0", "trial_number": "1", "pre_actions": "1", "move": "3@8", "instance": "prb12604", "distance_to_goal": "NA", "progress": "NA", "move_number": "12", "optimal_length": "7", "subject": "A15FXHC1CVNW31:3TS1AR6UQRM7SOIBWPBN8N9589Y7FV"}
{"meta_move": "drag_end", "rt": "779.0", "trial_number": "1", "pre_actions": "1", "move": "2@4", "instance": "prb12604", "distance_to_goal": "NA", "progress": "NA", "move_number": "13", "optimal_length": "7", "subject": "A15FXHC1CVNW31:3TS1AR6UQRM7SOIBWPBN8N9589Y7FV"}
{"meta_move": "drag_end", "rt": "2215.0", "trial_number": "1", "pre_actions": "1", "move": "0@5", "instance": "prb12604", "distance_to_goal": "NA", "progress": "NA", "move_number": "14", "optimal_length": "7", "subject": "A15FXHC1CVNW31:3TS1AR6UQRM7SOIBWPBN8N9589Y7FV"}
{"meta_move": "drag_end", "rt": "1564.0", "trial_number": "1", "pre_actions": "1", "move": "2@22", "instance": "prb12604", "distance_to_goal": "NA", "progress": "NA", "move_number": "15", "optimal_length": "7", "subject": "A15FXHC1CVNW31:3TS1AR6UQRM7SOIBWPBN8N9589Y7FV"}
{"meta_move": "win", "rt": "974.0", "trial_number": "1", "pre_actions": "1", "move": "r@14", "instance": "prb12604", "distance_to_goal": "1", "progress": "NA", "move_number": "16", "optimal_length": "7", "subject": "A15FXHC1CVNW31:3TS1AR6UQRM7SOIBWPBN8N9589Y7FV"}
{"meta_move": "drag_end", "rt": "94.0", "trial_number": "0", "pre_actions": "0", "move": "r@16", "instance": "prb12604", "distance_to_goal": "NA", "progress": "NA", "move_number": "16", "optimal_length": "7", "subject": "A15FXHC1CVNW31:3TS1AR6UQRM7SOIBWPBN8N9589Y7FV"}
{"meta_move": "drag_end", "rt": "14090.0", "trial_number": "1", "pre_actions": "1", "move": "1@25", "instance": "prb12604", "distance_to_goal": "NA", "progress": "NA", "move_number": "0", "optimal_length": "7", "subject": "A18QU0YQB6Q8DF:3VE8AYVF8N5BS2NU6U3TMN50JMNF8V"}
{"meta_move": "drag_end", "rt": "1449.0", "trial_number": "1", "pre_actions": "1", "move": "5@0", "instance": "prb12604", "distance_to_goal": "NA", "progress": "NA", "move_number": "0", "optimal_length": "7", "subject": "A18QU0YQB6Q8DF:3VE8AYVF8N5BS2NU6U3TMN50JMNF8V"}
{"meta_move": "drag_end", "rt": "1112.0", "trial_number": "1", "pre_actions": "1", "move": "1@24", "instance": "prb12604", "distance_to_goal": "NA", "progress": "NA", "move_number": "1", "optimal_length": "7", "subject": "A18QU0YQB6Q8DF:3VE8AYVF8N5BS2NU6U3TMN50JMNF8V"}
{"meta_move": "drag_end", "rt": "2067.0", "trial_number": "1", "pre_actions": "1", "move": "2@22", "instance": "prb12604", "distance_to_goal": "NA", "progress": "NA", "move_number": "2", "optimal_length": "7", "subject": "A18QU0YQB6Q8DF:3VE8AYVF8N5BS2NU6U3TMN50JMNF8V"}
{"meta_move": "drag_end", "rt": "888.0", "trial_number": "1", "pre_actions": "1", "move": "7@29", "instance": "prb12604", "distance_to_goal": "NA", "progress": "NA", "move_number": "3", "optimal_length": "7", "subject": "A18QU0YQB6Q8DF:3VE8AYVF8N5BS2NU6U3TMN50JMNF8V"}
{"meta_move": "drag_end", "rt": "948.0", "trial_number": "1", "pre_actions": "1", "move": "6@27", "instance": "prb12604", "distance_to_goal": "NA", "progress": "NA", "move_number": "4", "optimal_length": "7", "subject": "A18QU0YQB6Q8DF:3VE8AYVF8N5BS2NU6U3TMN50JMNF8V"}
{"meta_move": "win", "rt": "1105.0", "trial_number": "1", "pre_actions": "1", "move": "r@13", "instance": "prb12604", "distance_to_goal": "1", "progress": "NA", "move_number": "5", "optimal_length": "7", "subject": "A18QU0YQB6Q8DF:3VE8AYVF8N5BS2NU6U3TMN50JMNF8V"}
{"meta_move": "drag_end", "rt": "359.0", "trial_number": "0", "pre_actions": "0", "move": "r@16", "instance": "prb12604", "distance_to_goal": "NA", "progress": "NA", "move_number": "5", "optimal_length": "7", "subject": "A18QU0YQB6Q8DF:3VE8AYVF8N5BS2NU6U3TMN50JMNF8V"}
{"meta_move": "drag_end", "rt": "2639.0", "trial_number": "1", "pre_actions": "1", "move": "5@0", "instance": "prb12604", "distance_to_goal": "NA", "progress": "NA", "move_number": "0", "optimal_length": "7", "subject": "A191V7PT3DQKDP:3PMBY0YE28B43VMUKKJ6EDF85RV9C8"}
{"meta_move": "drag_end", "rt": "721.0", "trial_number": "1", "pre_actions": "1", "move": "1@24", "instance": "prb12604", "distance_to_goal": "NA", "progress": "NA", "move_number": "1", "optimal_length": "7", "subject": "A191V7PT3DQKDP:3PMBY0YE28B43VMUKKJ6EDF85RV9C8"}
{"meta_move": "drag_end", "rt": "593.0", "trial_number": "1", "pre_actions": "1", "move": "6@27", "instance": "prb12604", "distance_to_goal": "NA", "progress": "NA", "move_number": "2", "optimal_length": "7", "subject": "A191V7PT3DQKDP:3PMBY0YE28B43VMUKKJ6EDF85RV9C8"}
{"meta_move": "drag_end", "rt": "399.0", "trial_number": "1", "pre_actions": "1", "move": "2@22", "instance": "prb12604", "distance_to_goal": "NA", "progress": "NA", "move_number": "3", "optimal_length": "7", "subject": "A191V7PT3DQKDP:3PMBY0YE28B43VMUKKJ6EDF85RV9C8"}
{"meta_move": "drag_end", "rt": "392.0", "trial_number": "1", "pre_actions": "1", "move": "7@23", "instance": "prb12604", "distance_to_goal": "NA", "progress": "NA", "move_number": "4", "optimal_length": "7", "subject": "A191V7PT3DQKDP:3PMBY0YE28B43VMUKKJ6EDF85RV9C8"}
{"meta_move": "win", "rt": "499.0", "trial_number": "1", "pre_actions": "1", "move": "r@13", "instance": "prb12604", "distance_to_goal": "1", "progress": "NA", "move_number": "5", "optimal_length": "7", "subject": "A191V7PT3DQKDP:3PMBY0YE28B43VMUKKJ6EDF85RV9C8"}
{"meta_move": "drag_end", "rt": "97.0", "trial_number": "0", "pre_actions": "0", "move": "r@16", "instance": "prb12604", "distance_to_goal": "NA", "progress": "NA", "move_number": "5", "optimal_length": "7", "subject": "A191V7PT3DQKDP:3PMBY0YE28B43VMUKKJ6EDF85RV9C8"}
{"meta_move": "drag_end", "rt": "2682.0", "trial_number": "1", "pre_actions": "1", "move": "7@29", "instance": "prb12604", "distance_to_goal": "NA", "progress": "NA", "move_number": "0", "optimal_length": "7", "subject": "A1F4N58CAX8IMK:3TS1AR6UQRM7SOIBWPBN8N9589Y7FV"}
{"meta_move": "drag_end", "rt": "624.0", "trial_number": "1", "pre_actions": "1", "move": "2@22", "instance": "prb12604", "distance_to_goal": "NA", "progress": "NA", "move_number": "1", "optimal_length": "7", "subject": "A1F4N58CAX8IMK:3TS1AR6UQRM7SOIBWPBN8N9589Y7FV"}
{"meta_move": "drag_end", "rt": "776.0", "trial_number": "1", "pre_actions": "1", "move": "3@9", "instance": "prb12604", "distance_to_goal": "NA", "progress": "NA", "move_number": "2", "optimal_length": "7", "subject": "A1F4N58CAX8IMK:3TS1AR6UQRM7SOIBWPBN8N9589Y7FV"}
{"meta_move": "drag_end", "rt": "1128.0", "trial_number": "1", "pre_actions": "1", "move": "1@25", "instance": "prb12604", "distance_to_goal": "NA", "progress": "NA", "move_number": "3", "optimal_length": "7", "subject": "A1F4N58CAX8IMK:3TS1AR6UQRM7SOIBWPBN8N9589Y7FV"}
{"meta_move": "drag_end", "rt": "632.0", "trial_number": "1", "pre_actions": "1", "move": "3@8", "instance": "prb12604", "distance_to_goal": "NA", "progress": "NA", "move_number": "3", "optimal_length": "7", "subject": "A1F4N58CAX8IMK:3TS1AR6UQRM7SOIBWPBN8N9589Y7FV"}
{"meta_move": "drag_end", "rt": "1263.0", "trial_number": "1", "pre_actions": "1", "move": "2@4", "instance": "prb12604", "distance_to_goal": "NA", "progress": "NA", "move_number": "4", "optimal_length": "7", "subject": "A1F4N58CAX8IMK:3TS1AR6UQRM7SOIBWPBN8N9589Y7FV"}
{"meta_move": "drag_end", "rt": "713.0", "trial_number": "1", "pre_actions": "1", "move": "1@26", "instance": "prb12604", "distance_to_goal": "NA", "progress": "NA", "move_number": "5", "optimal_length": "7", "subject": "A1F4N58CAX8IMK:3TS1AR6UQRM7SOIBWPBN8N9589Y7FV"}
{"meta_move": "drag_end", "rt": "736.0", "trial_number": "1", "pre_actions": "1", "move": "5@0", "instance": "prb12604", "distance_to_goal": "NA", "progress": "NA", "move_number": "6", "optimal_length": "7", "subject": "A1F4N58CAX8IMK:3TS1AR6UQRM7SOIBWPBN8N9589Y7FV"}
{"meta_move": "drag_end", "rt": "728.0", "trial_number": "1", "pre_actions": "1", "move": "1@24", "instance": "prb12604", "distance_to_goal": "NA", "progress": "NA", "move_number": "7", "optimal_length": "7", "subject": "A1F4N58CAX8IMK:3TS1AR6UQRM7SOIBWPBN8N9589Y7FV"}
{"meta_move": "drag_end", "rt": "768.0", "trial_number": "1", "pre_actions": "1", "move": "6@27", "instance": "prb12604", "distance_to_goal": "NA", "progress": "NA", "move_number": "8", "optimal_length": "7", "subject": "A1F4N58CAX8IMK:3TS1AR6UQRM7SOIBWPBN8N9589Y7FV"}
{"meta_move": "drag_end", "rt": "824.0", "trial_number": "1", "pre_actions": "1", "move": "2@22", "instance": "prb12604", "distance_to_goal": "NA", "progress": "NA", "move_number": "9", "optimal_length": "7", "subject": "A1F4N58CAX8IMK:3TS1AR6UQRM7SOIBWPBN8N9589Y7FV"}
{"meta_move": "win", "rt": "535.0", "trial_number": "1", "pre_actions": "1", "move": "r@13", "instance": "prb12604", "distance_to_goal": "1", "progress": "NA", "move_number": "10", "optimal_length": "7", "subject": "A1F4N58CAX8IMK:3TS1AR6UQRM7SOIBWPBN8N9589Y7FV"}
{"meta_move": "drag_end", "rt": "121.0", "trial_number": "0", "pre_actions": "0", "move": "r@16", "instance": "prb12604", "distance_to_goal": "NA", "progress": "NA", "move_number": "10", "optimal_length": "7", "subject": "A1F4N58CAX8IMK:3TS1AR6UQRM7SOIBWPBN8N9589Y7FV"}
{"meta_move": "drag_end", "rt": "4859.0", "trial_number": "1", "pre_actions": "1", "move": "2@4", "instance": "prb12604", "distance_to_goal": "NA", "progress": "NA", "move_number": "0", "optimal_length": "7", "subject": "A1LR0VQIHQUJAM:3YW4XOSQKRTI0K0Z2YPDTDJVFABU1I"}
{"meta_move": "drag_end", "rt": "620.0", "trial_number": "1", "pre_actions": "1", "move": "1@27", "instance": "prb12604", "distance_to_goal": "NA", "progress": "NA", "move_number": "1", "optimal_length": "7", "subject": "A1LR0VQIHQUJAM:3YW4XOSQKRTI0K0Z2YPDTDJVFABU1I"}
{"meta_move": "drag_end", "rt": "1124.0", "trial_number": "1", "pre_actions": "1", "move": "r@12", "instance": "prb12604", "distance_to_goal": "NA", "progress": "NA", "move_number": "2", "optimal_length": "7", "subject": "A1LR0VQIHQUJAM:3YW4XOSQKRTI0K0Z2YPDTDJVFABU1I"}
{"meta_move": "drag_end", "rt": "2611.0", "trial_number": "1", "pre_actions": "1", "move": "r@13", "instance": "prb12604", "distance_to_goal": "NA", "progress": "NA", "move_number": "3", "optimal_length": "7", "subject": "A1LR0VQIHQUJAM:3YW4XOSQKRTI0K0Z2YPDTDJVFABU1I"}
{"meta_move": "drag_end", "rt": "551.0", "trial_number": "1", "pre_actions": "1", "move": "5@0", "instance": "prb12604", "distance_to_goal": "NA", "progress": "NA", "move_number": "4", "optimal_length": "7", "subject": "A1LR0VQIHQUJAM:3YW4XOSQKRTI0K0Z2YPDTDJVFABU1I"}
{"meta_move": "drag_end", "rt": "5752.0", "trial_number": "1", "pre_actions": "1", "move": "1@24", "instance": "prb12604", "distance_to_goal": "NA", "progress": "NA", "move_number": "5", "optimal_length": "7", "subject": "A1LR0VQIHQUJAM:3YW4XOSQKRTI0K0Z2YPDTDJVFABU1I"}
{"meta_move": "drag_end", "rt": "674.0", "trial_number": "1", "pre_actions": "1", "move": "6@27", "instance": "prb12604", "distance_to_goal": "NA", "progress": "NA", "move_number": "6", "optimal_length": "7", "subject": "A1LR0VQIHQUJAM:3YW4XOSQKRTI0K0Z2YPDTDJVFABU1I"}
{"meta_move": "drag_end", "rt": "864.0", "trial_number": "1", "pre_actions": "1", "move": "2@22", "instance": "prb12604", "distance_to_goal": "NA", "progress": "NA", "move_number": "7", "optimal_length": "7", "subject": "A1LR0VQIHQUJAM:3YW4XOSQKRTI0K0Z2YPDTDJVFABU1I"}
{"meta_move": "drag_end", "rt": "704.0", "trial_number": "1", "pre_actions": "1", "move": "7@29", "instance": "prb12604", "distance_to_goal": "NA", "progress": "NA", "move_number": "8", "optimal_length": "7", "subject": "A1LR0VQIHQUJAM:3YW4XOSQKRTI0K0Z2YPDTDJVFABU1I"}
{"meta_move": "win", "rt": "710.0", "trial_number": "1", "pre_actions": "1", "move": "r@13", "instance": "prb12604", "distance_to_goal": "1", "progress": "NA", "move_number": "9", "optimal_length": "7", "subject": "A1LR0VQIHQUJAM:3YW4XOSQKRTI0K0Z2YPDTDJVFABU1I"}
{"meta_move": "drag_end", "rt": "49.0", "trial_number": "0", "pre_actions": "0", "move": "r@16", "instance": "prb12604", "distance_to_goal": "NA", "progress": "NA", "move_number": "9", "optimal_length": "7", "subject": "A1LR0VQIHQUJAM:3YW4XOSQKRTI0K0Z2YPDTDJVFABU1I"}
{"meta_move": "drag_end", "rt": "3752.0", "trial_number": "19", "pre_actions": "1", "move": "2@22", "instance": "prb12604", "distance_to_goal": "NA", "progress": "NA", "move_number": "0", "optimal_length": "7", "subject": "A214HWAW1PYWO8:34BBWHLWHBJ6SUL255PK30LEGY5IWG"}
{"meta_move": "drag_end", "rt": "419.0", "trial_number": "19", "pre_actions": "1", "move": "7@29", "instance": "prb12604", "distance_to_goal": "NA", "progress": "NA", "move_number": "1", "optimal_length": "7", "subject": "A214HWAW1PYWO8:34BBWHLWHBJ6SUL255PK30LEGY5IWG"}
{"meta_move": "drag_end", "rt": "1374.0", "trial_number": "19", "pre_actions": "1", "move": "2@4", "instance": "prb12604", "distance_to_goal": "NA", "progress": "NA", "move_number": "2", "optimal_length": "7", "subject": "A214HWAW1PYWO8:34BBWHLWHBJ6SUL255PK30LEGY5IWG"}
{"meta_move": "drag_end", "rt": "1175.0", "trial_number": "19", "pre_actions": "1", "move": "1@26", "instance": "prb12604", "distance_to_goal": "NA", "progress": "NA", "move_number": "3", "optimal_length": "7", "subject": "A214HWAW1PYWO8:34BBWHLWHBJ6SUL255PK30LEGY5IWG"}
{"meta_move": "drag_end", "rt": "506.0", "trial_number": "19", "pre_actions": "1", "move": "5@0", "instance": "prb12604", "distance_to_goal": "NA", "progress": "NA", "move_number": "4", "optimal_length": "7", "subject": "A214HWAW1PYWO8:34BBWHLWHBJ6SUL255PK30LEGY5IWG"}
{"meta_move": "drag_end", "rt": "1146.0", "trial_number": "19", "pre_actions": "1", "move": "1@24", "instance": "prb12604", "distance_to_goal": "NA", "progress": "NA", "move_number": "5", "optimal_length": "7", "subject": "A214HWAW1PYWO8:34BBWHLWHBJ6SUL255PK30LEGY5IWG"}
{"meta_move": "drag_end", "rt": "625.0", "trial_number": "19", "pre_actions": "1", "move": "6@27", "instance": "prb12604", "distance_to_goal": "NA", "progress": "NA", "move_number": "6", "optimal_length": "7", "subject": "A214HWAW1PYWO8:34BBWHLWHBJ6SUL255PK30LEGY5IWG"}
{"meta_move": "drag_end", "rt": "644.0", "trial_number": "19", "pre_actions": "1", "move": "2@22", "instance": "prb12604", "distance_to_goal": "NA", "progress": "NA", "move_number": "7", "optimal_length": "7", "subject": "A214HWAW1PYWO8:34BBWHLWHBJ6SUL255PK30LEGY5IWG"}
{"meta_move": "win", "rt": "523.0", "trial_number": "19", "pre_actions": "1", "move": "r@13", "instance": "prb12604", "distance_to_goal": "1", "progress": "NA", "move_number": "8", "optimal_length": "7", "subject": "A214HWAW1PYWO8:34BBWHLWHBJ6SUL255PK30LEGY5IWG"}
{"meta_move": "drag_end", "rt": "6.0", "trial_number": "0", "pre_actions": "0", "move": "r@16", "instance": "prb12604", "distance_to_goal": "NA", "progress": "NA", "move_number": "8", "optimal_length": "7", "subject": "A214HWAW1PYWO8:34BBWHLWHBJ6SUL255PK30LEGY5IWG"}
{"meta_move": "drag_end", "rt": "2165.0", "trial_number": "4", "pre_actions": "1", "move": "7@17", "instance": "prb12604", "distance_to_goal": "NA", "progress": "NA", "move_number": "0", "optimal_length": "7", "subject": "A21S7MA9DCW95E:3X87C8JFV7JQ2BSCY8KSFD9F2ILSQK"}
{"meta_move": "drag_end", "rt": "1896.0", "trial_number": "4", "pre_actions": "1", "move": "7@29", "instance": "prb12604", "distance_to_goal": "NA", "progress": "NA", "move_number": "0", "optimal_length": "7", "subject": "A21S7MA9DCW95E:3X87C8JFV7JQ2BSCY8KSFD9F2ILSQK"}
{"meta_move": "drag_end", "rt": "2774.0", "trial_number": "4", "pre_actions": "1", "move": "2@4", "instance": "prb12604", "distance_to_goal": "NA", "progress": "NA", "move_number": "1", "optimal_length": "7", "subject": "A21S7MA9DCW95E:3X87C8JFV7JQ2BSCY8KSFD9F2ILSQK"}
{"meta_move": "drag_end", "rt": "2888.0", "trial_number": "4", "pre_actions": "1", "move": "5@0", "instance": "prb12604", "distance_to_goal": "NA", "progress": "NA", "move_number": "2", "optimal_length": "7", "subject": "A21S7MA9DCW95E:3X87C8JFV7JQ2BSCY8KSFD9F2ILSQK"}
{"meta_move": "drag_end", "rt": "1231.0", "trial_number": "4", "pre_actions": "1", "move": "1@24", "instance": "prb12604", "distance_to_goal": "NA", "progress": "NA", "move_number": "3", "optimal_length": "7", "subject": "A21S7MA9DCW95E:3X87C8JFV7JQ2BSCY8KSFD9F2ILSQK"}
{"meta_move": "drag_end", "rt": "1477.0", "trial_number": "4", "pre_actions": "1", "move": "6@27", "instance": "prb12604", "distance_to_goal": "NA", "progress": "NA", "move_number": "4", "optimal_length": "7", "subject": "A21S7MA9DCW95E:3X87C8JFV7JQ2BSCY8KSFD9F2ILSQK"}
{"meta_move": "drag_end", "rt": "3329.0", "trial_number": "4", "pre_actions": "1", "move": "2@22", "instance": "prb12604", "distance_to_goal": "NA", "progress": "NA", "move_number": "5", "optimal_length": "7", "subject": "A21S7MA9DCW95E:3X87C8JFV7JQ2BSCY8KSFD9F2ILSQK"}
{"meta_move": "win", "rt": "975.0", "trial_number": "4", "pre_actions": "1", "move": "r@13", "instance": "prb12604", "distance_to_goal": "1", "progress": "NA", "move_number": "6", "optimal_length": "7", "subject": "A21S7MA9DCW95E:3X87C8JFV7JQ2BSCY8KSFD9F2ILSQK"}
{"meta_move": "drag_end", "rt": "279.0", "trial_number": "0", "pre_actions": "0", "move": "r@16", "instance": "prb12604", "distance_to_goal": "NA", "progress": "NA", "move_number": "6", "optimal_length": "7", "subject": "A21S7MA9DCW95E:3X87C8JFV7JQ2BSCY8KSFD9F2ILSQK"}
{"meta_move": "drag_end", "rt": "2105.0", "trial_number": "2", "pre_actions": "1", "move": "5@0", "instance": "prb12604", "distance_to_goal": "NA", "progress": "NA", "move_number": "0", "optimal_length": "7", "subject": "A23437BMZ5T1FH:3IHR8NYAM89M0EPM8U9LH53ZJDTP4U"}
{"meta_move": "drag_end", "rt": "985.0", "trial_number": "2", "pre_actions": "1", "move": "1@24", "instance": "prb12604", "distance_to_goal": "NA", "progress": "NA", "move_number": "1", "optimal_length": "7", "subject": "A23437BMZ5T1FH:3IHR8NYAM89M0EPM8U9LH53ZJDTP4U"}
{"meta_move": "drag_end", "rt": "761.0", "trial_number": "2", "pre_actions": "1", "move": "6@27", "instance": "prb12604", "distance_to_goal": "NA", "progress": "NA", "move_number": "2", "optimal_length": "7", "subject": "A23437BMZ5T1FH:3IHR8NYAM89M0EPM8U9LH53ZJDTP4U"}
{"meta_move": "drag_end", "rt": "782.0", "trial_number": "2", "pre_actions": "1", "move": "2@22", "instance": "prb12604", "distance_to_goal": "NA", "progress": "NA", "move_number": "3", "optimal_length": "7", "subject": "A23437BMZ5T1FH:3IHR8NYAM89M0EPM8U9LH53ZJDTP4U"}
{"meta_move": "drag_end", "rt": "538.0", "trial_number": "2", "pre_actions": "1", "move": "7@29", "instance": "prb12604", "distance_to_goal": "NA", "progress": "NA", "move_number": "4", "optimal_length": "7", "subject": "A23437BMZ5T1FH:3IHR8NYAM89M0EPM8U9LH53ZJDTP4U"}
{"meta_move": "win", "rt": "443.0", "trial_number": "2", "pre_actions": "1", "move": "r@13", "instance": "prb12604", "distance_to_goal": "1", "progress": "NA", "move_number": "5", "optimal_length": "7", "subject": "A23437BMZ5T1FH:3IHR8NYAM89M0EPM8U9LH53ZJDTP4U"}
{"meta_move": "drag_end", "rt": "67.0", "trial_number": "0", "pre_actions": "0", "move": "r@16", "instance": "prb12604", "distance_to_goal": "NA", "progress": "NA", "move_number": "5", "optimal_length": "7", "subject": "A23437BMZ5T1FH:3IHR8NYAM89M0EPM8U9LH53ZJDTP4U"}
{"meta_move": "drag_end", "rt": "14155.0", "trial_number": "1", "pre_actions": "1", "move": "5@0", "instance": "prb12604", "distance_to_goal": "NA", "progress": "NA", "move_number": "0", "optimal_length": "7", "subject": "A289D98Z4GAZ28:3ZV9H2YQQEFR2R3JK2IXZUJPXAF3WW"}
{"meta_move": "drag_end", "rt": "853.0", "trial_number": "1", "pre_actions": "1", "move": "1@24", "instance": "prb12604", "distance_to_goal": "NA", "progress": "NA", "move_number": "1", "optimal_length": "7", "subject": "A289D98Z4GAZ28:3ZV9H2YQQEFR2R3JK2IXZUJPXAF3WW"}
{"meta_move": "drag_end", "rt": "6317.0", "trial_number": "1", "pre_actions": "1", "move": "6@27", "instance": "prb12604", "distance_to_goal": "NA", "progress": "NA", "move_number": "2", "optimal_length": "7", "subject": "A289D98Z4GAZ28:3ZV9H2YQQEFR2R3JK2IXZUJPXAF3WW"}
{"meta_move": "drag_end", "rt": "808.0", "trial_number": "1", "pre_actions": "1", "move": "r@14", "instance": "prb12604", "distance_to_goal": "NA", "progress": "NA", "move_number": "3", "optimal_length": "7", "subject": "A289D98Z4GAZ28:3ZV9H2YQQEFR2R3JK2IXZUJPXAF3WW"}
{"meta_move": "drag_end", "rt": "2051.0", "trial_number": "1", "pre_actions": "1", "move": "2@22", "instance": "prb12604", "distance_to_goal": "NA", "progress": "NA", "move_number": "4", "optimal_length": "7", "subject": "A289D98Z4GAZ28:3ZV9H2YQQEFR2R3JK2IXZUJPXAF3WW"}
{"meta_move": "drag_end", "rt": "1339.0", "trial_number": "1", "pre_actions": "1", "move": "r@15", "instance": "prb12604", "distance_to_goal": "NA", "progress": "NA", "move_number": "5", "optimal_length": "7", "subject": "A289D98Z4GAZ28:3ZV9H2YQQEFR2R3JK2IXZUJPXAF3WW"}
{"meta_move": "drag_end", "rt": "629.0", "trial_number": "1", "pre_actions": "1", "move": "7@29", "instance": "prb12604", "distance_to_goal": "NA", "progress": "NA", "move_number": "6", "optimal_length": "7", "subject": "A289D98Z4GAZ28:3ZV9H2YQQEFR2R3JK2IXZUJPXAF3WW"}
{"meta_move": "win", "rt": "634.0", "trial_number": "1", "pre_actions": "1", "move": "r@15", "instance": "prb12604", "distance_to_goal": "1", "progress": "NA", "move_number": "7", "optimal_length": "7", "subject": "A289D98Z4GAZ28:3ZV9H2YQQEFR2R3JK2IXZUJPXAF3WW"}
{"meta_move": "drag_end", "rt": "112.0", "trial_number": "0", "pre_actions": "0", "move": "r@16", "instance": "prb12604", "distance_to_goal": "NA", "progress": "NA", "move_number": "7", "optimal_length": "7", "subject": "A289D98Z4GAZ28:3ZV9H2YQQEFR2R3JK2IXZUJPXAF3WW"}
{"meta_move": "drag_end", "rt": "3150.0", "trial_number": "2", "pre_actions": "1", "move": "2@4", "instance": "prb12604", "distance_to_goal": "NA", "progress": "NA", "move_number": "0", "optimal_length": "7", "subject": "A2EPBSY0VPI38S:37WLF8U1WQYZ4AWKEQXSIM1ELVEK6W"}
{"meta_move": "drag_end", "rt": "1875.0", "trial_number": "2", "pre_actions": "1", "move": "1@27", "instance": "prb12604", "distance_to_goal": "NA", "progress": "NA", "move_number": "1", "optimal_length": "7", "subject": "A2EPBSY0VPI38S:37WLF8U1WQYZ4AWKEQXSIM1ELVEK6W"}
{"meta_move": "drag_end", "rt": "1135.0", "trial_number": "2", "pre_actions": "1", "move": "1@25", "instance": "prb12604", "distance_to_goal": "NA", "progress": "NA", "move_number": "2", "optimal_length": "7", "subject": "A2EPBSY0VPI38S:37WLF8U1WQYZ4AWKEQXSIM1ELVEK6W"}
{"meta_move": "drag_end", "rt": "1207.0", "trial_number": "2", "pre_actions": "1", "move": "7@29", "instance": "prb12604", "distance_to_goal": "NA", "progress": "NA", "move_number": "3", "optimal_length": "7", "subject": "A2EPBSY0VPI38S:37WLF8U1WQYZ4AWKEQXSIM1ELVEK6W"}
{"meta_move": "drag_end", "rt": "1470.0", "trial_number": "2", "pre_actions": "1", "move": "2@22", "instance": "prb12604", "distance_to_goal": "NA", "progress": "NA", "move_number": "4", "optimal_length": "7", "subject": "A2EPBSY0VPI38S:37WLF8U1WQYZ4AWKEQXSIM1ELVEK6W"}
{"meta_move": "drag_end", "rt": "1403.0", "trial_number": "2", "pre_actions": "1", "move": "3@9", "instance": "prb12604", "distance_to_goal": "NA", "progress": "NA", "move_number": "5", "optimal_length": "7", "subject": "A2EPBSY0VPI38S:37WLF8U1WQYZ4AWKEQXSIM1ELVEK6W"}
{"meta_move": "drag_end", "rt": "1367.0", "trial_number": "2", "pre_actions": "1", "move": "0@17", "instance": "prb12604", "distance_to_goal": "NA", "progress": "NA", "move_number": "6", "optimal_length": "7", "subject": "A2EPBSY0VPI38S:37WLF8U1WQYZ4AWKEQXSIM1ELVEK6W"}
{"meta_move": "drag_end", "rt": "991.0", "trial_number": "2", "pre_actions": "1", "move": "3@10", "instance": "prb12604", "distance_to_goal": "NA", "progress": "NA", "move_number": "7", "optimal_length": "7", "subject": "A2EPBSY0VPI38S:37WLF8U1WQYZ4AWKEQXSIM1ELVEK6W"}
{"meta_move": "drag_end", "rt": "1203.0", "trial_number": "2", "pre_actions": "1", "move": "6@3", "instance": "prb12604", "distance_to_goal": "NA", "progress": "NA", "move_number": "8", "optimal_length": "7", "subject": "A2EPBSY0VPI38S:37WLF8U1WQYZ4AWKEQXSIM1ELVEK6W"}
{"meta_move": "drag_end", "rt": "1278.0", "trial_number": "2", "pre_actions": "1", "move": "r@15", "instance": "prb12604", "distance_to_goal": "NA", "progress": "NA", "move_number": "9", "optimal_length": "7", "subject": "A2EPBSY0VPI38S:37WLF8U1WQYZ4AWKEQXSIM1ELVEK6W"}
{"meta_move": "drag_end", "rt": "4839.0", "trial_number": "2", "pre_actions": "1", "move": "5@0", "instance": "prb12604", "distance_to_goal": "NA", "progress": "NA", "move_number": "10", "optimal_length": "7", "subject": "A2EPBSY0VPI38S:37WLF8U1WQYZ4AWKEQXSIM1ELVEK6W"}
{"meta_move": "drag_end", "rt": "1272.0", "trial_number": "2", "pre_actions": "1", "move": "1@24", "instance": "prb12604", "distance_to_goal": "NA", "progress": "NA", "move_number": "11", "optimal_length": "7", "subject": "A2EPBSY0VPI38S:37WLF8U1WQYZ4AWKEQXSIM1ELVEK6W"}
{"meta_move": "drag_end", "rt": "3008.0", "trial_number": "2", "pre_actions": "1", "move": "2@22", "instance": "prb12604", "distance_to_goal": "NA", "progress": "NA", "move_number": "12", "optimal_length": "7", "subject": "A2EPBSY0VPI38S:37WLF8U1WQYZ4AWKEQXSIM1ELVEK6W"}
{"meta_move": "drag_end", "rt": "4377.0", "trial_number": "2", "pre_actions": "1", "move": "3@10", "instance": "prb12604", "distance_to_goal": "NA", "progress": "NA", "move_number": "12", "optimal_length": "7", "subject": "A2EPBSY0VPI38S:37WLF8U1WQYZ4AWKEQXSIM1ELVEK6W"}
{"meta_move": "drag_end", "rt": "1193.0", "trial_number": "2", "pre_actions": "1", "move": "0@17", "instance": "prb12604", "distance_to_goal": "NA", "progress": "NA", "move_number": "12", "optimal_length": "7", "subject": "A2EPBSY0VPI38S:37WLF8U1WQYZ4AWKEQXSIM1ELVEK6W"}
{"meta_move": "drag_end", "rt": "902.0", "trial_number": "2", "pre_actions": "1", "move": "2@22", "instance": "prb12604", "distance_to_goal": "NA", "progress": "NA", "move_number": "12", "optimal_length": "7", "subject": "A2EPBSY0VPI38S:37WLF8U1WQYZ4AWKEQXSIM1ELVEK6W"}
{"meta_move": "drag_end", "rt": "1442.0", "trial_number": "2", "pre_actions": "1", "move": "4@13", "instance": "prb12604", "distance_to_goal": "NA", "progress": "NA", "move_number": "12", "optimal_length": "7", "subject": "A2EPBSY0VPI38S:37WLF8U1WQYZ4AWKEQXSIM1ELVEK6W"}
{"meta_move": "drag_end", "rt": "1205.0", "trial_number": "2", "pre_actions": "1", "move": "1@25", "instance": "prb12604", "distance_to_goal": "NA", "progress": "NA", "move_number": "13", "optimal_length": "7", "subject": "A2EPBSY0VPI38S:37WLF8U1WQYZ4AWKEQXSIM1ELVEK6W"}
{"meta_move": "drag_end", "rt": "2772.0", "trial_number": "2", "pre_actions": "1", "move": "r@14", "instance": "prb12604", "distance_to_goal": "NA", "progress": "NA", "move_number": "14", "optimal_length": "7", "subject": "A2EPBSY0VPI38S:37WLF8U1WQYZ4AWKEQXSIM1ELVEK6W"}
{"meta_move": "drag_end", "rt": "1212.0", "trial_number": "2", "pre_actions": "1", "move": "2@16", "instance": "prb12604", "distance_to_goal": "NA", "progress": "NA", "move_number": "15", "optimal_length": "7", "subject": "A2EPBSY0VPI38S:37WLF8U1WQYZ4AWKEQXSIM1ELVEK6W"}
{"meta_move": "drag_end", "rt": "1909.0", "trial_number": "2", "pre_actions": "1", "move": "2@22", "instance": "prb12604", "distance_to_goal": "NA", "progress": "NA", "move_number": "16", "optimal_length": "7", "subject": "A2EPBSY0VPI38S:37WLF8U1WQYZ4AWKEQXSIM1ELVEK6W"}
{"meta_move": "drag_end", "rt": "5008.0", "trial_number": "2", "pre_actions": "1", "move": "r@15", "instance": "prb12604", "distance_to_goal": "NA", "progress": "NA", "move_number": "17", "optimal_length": "7", "subject": "A2EPBSY0VPI38S:37WLF8U1WQYZ4AWKEQXSIM1ELVEK6W"}
{"meta_move": "drag_end", "rt": "1524.0", "trial_number": "2", "pre_actions": "1", "move": "4@1", "instance": "prb12604", "distance_to_goal": "NA", "progress": "NA", "move_number": "18", "optimal_length": "7", "subject": "A2EPBSY0VPI38S:37WLF8U1WQYZ4AWKEQXSIM1ELVEK6W"}
{"meta_move": "drag_end", "rt": "1856.0", "trial_number": "2", "pre_actions": "1", "move": "1@24", "instance": "prb12604", "distance_to_goal": "NA", "progress": "NA", "move_number": "19", "optimal_length": "7", "subject": "A2EPBSY0VPI38S:37WLF8U1WQYZ4AWKEQXSIM1ELVEK6W"}
{"meta_move": "drag_end", "rt": "1698.0", "trial_number": "2", "pre_actions": "1", "move": "4@13", "instance": "prb12604", "distance_to_goal": "NA", "progress": "NA", "move_number": "20", "optimal_length": "7", "subject": "A2EPBSY0VPI38S:37WLF8U1WQYZ4AWKEQXSIM1ELVEK6W"}
{"meta_move": "drag_end", "rt": "2768.0", "trial_number": "2", "pre_actions": "1", "move": "3@10", "instance": "prb12604", "distance_to_goal": "NA", "progress": "NA", "move_number": "21", "optimal_length": "7", "subject": "A2EPBSY0VPI38S:37WLF8U1WQYZ4AWKEQXSIM1ELVEK6W"}
{"meta_move": "drag_end", "rt": "1307.0", "trial_number": "2", "pre_actions": "1", "move": "7@29", "instance": "prb12604", "distance_to_goal": "NA", "progress": "NA", "move_number": "21", "optimal_length": "7", "subject": "A2EPBSY0VPI38S:37WLF8U1WQYZ4AWKEQXSIM1ELVEK6W"}
{"meta_move": "drag_end", "rt": "1067.0", "trial_number": "2", "pre_actions": "1", "move": "3@10", "instance": "prb12604", "distance_to_goal": "NA", "progress": "NA", "move_number": "21", "optimal_length": "7", "subject": "A2EPBSY0VPI38S:37WLF8U1WQYZ4AWKEQXSIM1ELVEK6W"}
{"meta_move": "drag_end", "rt": "3891.0", "trial_number": "2", "pre_actions": "1", "move": "2@22", "instance": "prb12604", "distance_to_goal": "NA", "progress": "NA", "move_number": "21", "optimal_length": "7", "subject": "A2EPBSY0VPI38S:37WLF8U1WQYZ4AWKEQXSIM1ELVEK6W"}
{"meta_move": "drag_end", "rt": "869.0", "trial_number": "2", "pre_actions": "1", "move": "4@1", "instance": "prb12604", "distance_to_goal": "NA", "progress": "NA", "move_number": "21", "optimal_length": "7", "subject": "A2EPBSY0VPI38S:37WLF8U1WQYZ4AWKEQXSIM1ELVEK6W"}
{"meta_move": "drag_end", "rt": "1814.0", "trial_number": "2", "pre_actions": "1", "move": "1@25", "instance": "prb12604", "distance_to_goal": "NA", "progress": "NA", "move_number": "22", "optimal_length": "7", "subject": "A2EPBSY0VPI38S:37WLF8U1WQYZ4AWKEQXSIM1ELVEK6W"}
{"meta_move": "drag_end", "rt": "1229.0", "trial_number": "2", "pre_actions": "1", "move": "5@18", "instance": "prb12604", "distance_to_goal": "NA", "progress": "NA", "move_number": "23", "optimal_length": "7", "subject": "A2EPBSY0VPI38S:37WLF8U1WQYZ4AWKEQXSIM1ELVEK6W"}
{"meta_move": "drag_end", "rt": "2228.0", "trial_number": "2", "pre_actions": "1", "move": "r@12", "instance": "prb12604", "distance_to_goal": "NA", "progress": "NA", "move_number": "24", "optimal_length": "7", "subject": "A2EPBSY0VPI38S:37WLF8U1WQYZ4AWKEQXSIM1ELVEK6W"}
{"meta_move": "drag_end", "rt": "1459.0", "trial_number": "2", "pre_actions": "1", "move": "6@15", "instance": "prb12604", "distance_to_goal": "NA", "progress": "NA", "move_number": "25", "optimal_length": "7", "subject": "A2EPBSY0VPI38S:37WLF8U1WQYZ4AWKEQXSIM1ELVEK6W"}
{"meta_move": "drag_end", "rt": "1097.0", "trial_number": "2", "pre_actions": "1", "move": "3@8", "instance": "prb12604", "distance_to_goal": "NA", "progress": "NA", "move_number": "26", "optimal_length": "7", "subject": "A2EPBSY0VPI38S:37WLF8U1WQYZ4AWKEQXSIM1ELVEK6W"}
{"meta_move": "drag_end", "rt": "1557.0", "trial_number": "2", "pre_actions": "1", "move": "2@4", "instance": "prb12604", "distance_to_goal": "NA", "progress": "NA", "move_number": "27", "optimal_length": "7", "subject": "A2EPBSY0VPI38S:37WLF8U1WQYZ4AWKEQXSIM1ELVEK6W"}
{"meta_move": "drag_end", "rt": "2002.0", "trial_number": "2", "pre_actions": "1", "move": "1@26", "instance": "prb12604", "distance_to_goal": "NA", "progress": "NA", "move_number": "28", "optimal_length": "7", "subject": "A2EPBSY0VPI38S:37WLF8U1WQYZ4AWKEQXSIM1ELVEK6W"}
{"meta_move": "drag_end", "rt": "1246.0", "trial_number": "2", "pre_actions": "1", "move": "1@25", "instance": "prb12604", "distance_to_goal": "NA", "progress": "NA", "move_number": "29", "optimal_length": "7", "subject": "A2EPBSY0VPI38S:37WLF8U1WQYZ4AWKEQXSIM1ELVEK6W"}
{"meta_move": "drag_end", "rt": "2379.0", "trial_number": "2", "pre_actions": "1", "move": "r@13", "instance": "prb12604", "distance_to_goal": "NA", "progress": "NA", "move_number": "30", "optimal_length": "7", "subject": "A2EPBSY0VPI38S:37WLF8U1WQYZ4AWKEQXSIM1ELVEK6W"}
{"meta_move": "drag_end", "rt": "898.0", "trial_number": "2", "pre_actions": "1", "move": "5@0", "instance": "prb12604", "distance_to_goal": "NA", "progress": "NA", "move_number": "31", "optimal_length": "7", "subject": "A2EPBSY0VPI38S:37WLF8U1WQYZ4AWKEQXSIM1ELVEK6W"}
{"meta_move": "drag_end", "rt": "2735.0", "trial_number": "2", "pre_actions": "1", "move": "0@5", "instance": "prb12604", "distance_to_goal": "NA", "progress": "NA", "move_number": "32", "optimal_length": "7", "subject": "A2EPBSY0VPI38S:37WLF8U1WQYZ4AWKEQXSIM1ELVEK6W"}
{"meta_move": "drag_end", "rt": "1540.0", "trial_number": "2", "pre_actions": "1", "move": "2@22", "instance": "prb12604", "distance_to_goal": "NA", "progress": "NA", "move_number": "33", "optimal_length": "7", "subject": "A2EPBSY0VPI38S:37WLF8U1WQYZ4AWKEQXSIM1ELVEK6W"}
{"meta_move": "drag_end", "rt": "1724.0", "trial_number": "2", "pre_actions": "1", "move": "3@9", "instance": "prb12604", "distance_to_goal": "NA", "progress": "NA", "move_number": "34", "optimal_length": "7", "subject": "A2EPBSY0VPI38S:37WLF8U1WQYZ4AWKEQXSIM1ELVEK6W"}
{"meta_move": "drag_end", "rt": "2204.0", "trial_number": "2", "pre_actions": "1", "move": "3@8", "instance": "prb12604", "distance_to_goal": "NA", "progress": "NA", "move_number": "35", "optimal_length": "7", "subject": "A2EPBSY0VPI38S:37WLF8U1WQYZ4AWKEQXSIM1ELVEK6W"}
{"meta_move": "drag_end", "rt": "1082.0", "trial_number": "2", "pre_actions": "1", "move": "5@18", "instance": "prb12604", "distance_to_goal": "NA", "progress": "NA", "move_number": "36", "optimal_length": "7", "subject": "A2EPBSY0VPI38S:37WLF8U1WQYZ4AWKEQXSIM1ELVEK6W"}
{"meta_move": "drag_end", "rt": "1039.0", "trial_number": "2", "pre_actions": "1", "move": "2@4", "instance": "prb12604", "distance_to_goal": "NA", "progress": "NA", "move_number": "37", "optimal_length": "7", "subject": "A2EPBSY0VPI38S:37WLF8U1WQYZ4AWKEQXSIM1ELVEK6W"}
{"meta_move": "drag_end", "rt": "1776.0", "trial_number": "2", "pre_actions": "1", "move": "1@26", "instance": "prb12604", "distance_to_goal": "NA", "progress": "NA", "move_number": "38", "optimal_length": "7", "subject": "A2EPBSY0VPI38S:37WLF8U1WQYZ4AWKEQXSIM1ELVEK6W"}
{"meta_move": "drag_end", "rt": "3330.0", "trial_number": "2", "pre_actions": "1", "move": "2@10", "instance": "prb12604", "distance_to_goal": "NA", "progress": "NA", "move_number": "39", "optimal_length": "7", "subject": "A2EPBSY0VPI38S:37WLF8U1WQYZ4AWKEQXSIM1ELVEK6W"}
{"meta_move": "drag_end", "rt": "648.0", "trial_number": "2", "pre_actions": "1", "move": "2@4", "instance": "prb12604", "distance_to_goal": "NA", "progress": "NA", "move_number": "40", "optimal_length": "7", "subject": "A2EPBSY0VPI38S:37WLF8U1WQYZ4AWKEQXSIM1ELVEK6W"}
{"meta_move": "drag_end", "rt": "1725.0", "trial_number": "2", "pre_actions": "1", "move": "0@17", "instance": "prb12604", "distance_to_goal": "NA", "progress": "NA", "move_number": "41", "optimal_length": "7", "subject": "A2EPBSY0VPI38S:37WLF8U1WQYZ4AWKEQXSIM1ELVEK6W"}
{"meta_move": "drag_end", "rt": "1036.0", "trial_number": "2", "pre_actions": "1", "move": "0@5", "instance": "prb12604", "distance_to_goal": "NA", "progress": "NA", "move_number": "42", "optimal_length": "7", "subject": "A2EPBSY0VPI38S:37WLF8U1WQYZ4AWKEQXSIM1ELVEK6W"}
{"meta_move": "drag_end", "rt": "952.0", "trial_number": "2", "pre_actions": "1", "move": "1@25", "instance": "prb12604", "distance_to_goal": "NA", "progress": "NA", "move_number": "43", "optimal_length": "7", "subject": "A2EPBSY0VPI38S:37WLF8U1WQYZ4AWKEQXSIM1ELVEK6W"}
{"meta_move": "drag_end", "rt": "1499.0", "trial_number": "2", "pre_actions": "1", "move": "2@22", "instance": "prb12604", "distance_to_goal": "NA", "progress": "NA", "move_number": "44", "optimal_length": "7", "subject": "A2EPBSY0VPI38S:37WLF8U1WQYZ4AWKEQXSIM1ELVEK6W"}
{"meta_move": "drag_end", "rt": "1084.0", "trial_number": "2", "pre_actions": "1", "move": "3@9", "instance": "prb12604", "distance_to_goal": "NA", "progress": "NA", "move_number": "45", "optimal_length": "7", "subject": "A2EPBSY0VPI38S:37WLF8U1WQYZ4AWKEQXSIM1ELVEK6W"}
{"meta_move": "drag_end", "rt": "1855.0", "trial_number": "2", "pre_actions": "1", "move": "0@17", "instance": "prb12604", "distance_to_goal": "NA", "progress": "NA", "move_number": "46", "optimal_length": "7", "subject": "A2EPBSY0VPI38S:37WLF8U1WQYZ4AWKEQXSIM1ELVEK6W"}
{"meta_move": "drag_end", "rt": "1193.0", "trial_number": "2", "pre_actions": "1", "move": "3@10", "instance": "prb12604", "distance_to_goal": "NA", "progress": "NA", "move_number": "47", "optimal_length": "7", "subject": "A2EPBSY0VPI38S:37WLF8U1WQYZ4AWKEQXSIM1ELVEK6W"}
{"meta_move": "drag_end", "rt": "1720.0", "trial_number": "2", "pre_actions": "1", "move": "6@3", "instance": "prb12604", "distance_to_goal": "NA", "progress": "NA", "move_number": "48", "optimal_length": "7", "subject": "A2EPBSY0VPI38S:37WLF8U1WQYZ4AWKEQXSIM1ELVEK6W"}
{"meta_move": "drag_end", "rt": "4249.0", "trial_number": "2", "pre_actions": "1", "move": "r@15", "instance": "prb12604", "distance_to_goal": "NA", "progress": "NA", "move_number": "49", "optimal_length": "7", "subject": "A2EPBSY0VPI38S:37WLF8U1WQYZ4AWKEQXSIM1ELVEK6W"}
{"meta_move": "drag_end", "rt": "2773.0", "trial_number": "2", "pre_actions": "1", "move": "3@10", "instance": "prb12604", "distance_to_goal": "NA", "progress": "NA", "move_number": "50", "optimal_length": "7", "subject": "A2EPBSY0VPI38S:37WLF8U1WQYZ4AWKEQXSIM1ELVEK6W"}
{"meta_move": "drag_end", "rt": "1338.0", "trial_number": "2", "pre_actions": "1", "move": "2@22", "instance": "prb12604", "distance_to_goal": "NA", "progress": "NA", "move_number": "50", "optimal_length": "7", "subject": "A2EPBSY0VPI38S:37WLF8U1WQYZ4AWKEQXSIM1ELVEK6W"}
{"meta_move": "drag_end", "rt": "3129.0", "trial_number": "2", "pre_actions": "1", "move": "4@13", "instance": "prb12604", "distance_to_goal": "NA", "progress": "NA", "move_number": "50", "optimal_length": "7", "subject": "A2EPBSY0VPI38S:37WLF8U1WQYZ4AWKEQXSIM1ELVEK6W"}
{"meta_move": "drag_end", "rt": "705.0", "trial_number": "2", "pre_actions": "1", "move": "5@0", "instance": "prb12604", "distance_to_goal": "NA", "progress": "NA", "move_number": "51", "optimal_length": "7", "subject": "A2EPBSY0VPI38S:37WLF8U1WQYZ4AWKEQXSIM1ELVEK6W"}
{"meta_move": "drag_end", "rt": "1499.0", "trial_number": "2", "pre_actions": "1", "move": "1@24", "instance": "prb12604", "distance_to_goal": "NA", "progress": "NA", "move_number": "52", "optimal_length": "7", "subject": "A2EPBSY0VPI38S:37WLF8U1WQYZ4AWKEQXSIM1ELVEK6W"}
{"meta_move": "drag_end", "rt": "1010.0", "trial_number": "2", "pre_actions": "1", "move": "4@1", "instance": "prb12604", "distance_to_goal": "NA", "progress": "NA", "move_number": "53", "optimal_length": "7", "subject": "A2EPBSY0VPI38S:37WLF8U1WQYZ4AWKEQXSIM1ELVEK6W"}
{"meta_move": "drag_end", "rt": "2804.0", "trial_number": "2", "pre_actions": "1", "move": "2@22", "instance": "prb12604", "distance_to_goal": "NA", "progress": "NA", "move_number": "54", "optimal_length": "7", "subject": "A2EPBSY0VPI38S:37WLF8U1WQYZ4AWKEQXSIM1ELVEK6W"}
{"meta_move": "drag_end", "rt": "1236.0", "trial_number": "2", "pre_actions": "1", "move": "r@13", "instance": "prb12604", "distance_to_goal": "NA", "progress": "NA", "move_number": "54", "optimal_length": "7", "subject": "A2EPBSY0VPI38S:37WLF8U1WQYZ4AWKEQXSIM1ELVEK6W"}
{"meta_move": "drag_end", "rt": "1178.0", "trial_number": "2", "pre_actions": "1", "move": "6@27", "instance": "prb12604", "distance_to_goal": "NA", "progress": "NA", "move_number": "55", "optimal_length": "7", "subject": "A2EPBSY0VPI38S:37WLF8U1WQYZ4AWKEQXSIM1ELVEK6W"}
{"meta_move": "drag_end", "rt": "1334.0", "trial_number": "2", "pre_actions": "1", "move": "r@15", "instance": "prb12604", "distance_to_goal": "NA", "progress": "NA", "move_number": "56", "optimal_length": "7", "subject": "A2EPBSY0VPI38S:37WLF8U1WQYZ4AWKEQXSIM1ELVEK6W"}
{"meta_move": "drag_end", "rt": "902.0", "trial_number": "2", "pre_actions": "1", "move": "3@8", "instance": "prb12604", "distance_to_goal": "NA", "progress": "NA", "move_number": "57", "optimal_length": "7", "subject": "A2EPBSY0VPI38S:37WLF8U1WQYZ4AWKEQXSIM1ELVEK6W"}
{"meta_move": "drag_end", "rt": "804.0", "trial_number": "2", "pre_actions": "1", "move": "0@5", "instance": "prb12604", "distance_to_goal": "NA", "progress": "NA", "move_number": "58", "optimal_length": "7", "subject": "A2EPBSY0VPI38S:37WLF8U1WQYZ4AWKEQXSIM1ELVEK6W"}
{"meta_move": "win", "rt": "944.0", "trial_number": "2", "pre_actions": "1", "move": "r@15", "instance": "prb12604", "distance_to_goal": "1", "progress": "NA", "move_number": "59", "optimal_length": "7", "subject": "A2EPBSY0VPI38S:37WLF8U1WQYZ4AWKEQXSIM1ELVEK6W"}
{"meta_move": "drag_end", "rt": "252.0", "trial_number": "0", "pre_actions": "0", "move": "r@16", "instance": "prb12604", "distance_to_goal": "NA", "progress": "NA", "move_number": "59", "optimal_length": "7", "subject": "A2EPBSY0VPI38S:37WLF8U1WQYZ4AWKEQXSIM1ELVEK6W"}
{"meta_move": "drag_end", "rt": "4559.0", "trial_number": "1", "pre_actions": "1", "move": "5@0", "instance": "prb12604", "distance_to_goal": "NA", "progress": "NA", "move_number": "0", "optimal_length": "7", "subject": "A2IBQA01NR5N76:3X4MXAO0BHWJLTOLVSJTHSM54OHWRG"}
{"meta_move": "drag_end", "rt": "890.0", "trial_number": "1", "pre_actions": "1", "move": "1@24", "instance": "prb12604", "distance_to_goal": "NA", "progress": "NA", "move_number": "1", "optimal_length": "7", "subject": "A2IBQA01NR5N76:3X4MXAO0BHWJLTOLVSJTHSM54OHWRG"}
{"meta_move": "drag_end", "rt": "1058.0", "trial_number": "1", "pre_actions": "1", "move": "2@22", "instance": "prb12604", "distance_to_goal": "NA", "progress": "NA", "move_number": "2", "optimal_length": "7", "subject": "A2IBQA01NR5N76:3X4MXAO0BHWJLTOLVSJTHSM54OHWRG"}
{"meta_move": "drag_end", "rt": "1184.0", "trial_number": "1", "pre_actions": "1", "move": "6@27", "instance": "prb12604", "distance_to_goal": "NA", "progress": "NA", "move_number": "3", "optimal_length": "7", "subject": "A2IBQA01NR5N76:3X4MXAO0BHWJLTOLVSJTHSM54OHWRG"}
{"meta_move": "drag_end", "rt": "1439.0", "trial_number": "1", "pre_actions": "1", "move": "7@29", "instance": "prb12604", "distance_to_goal": "NA", "progress": "NA", "move_number": "4", "optimal_length": "7", "subject": "A2IBQA01NR5N76:3X4MXAO0BHWJLTOLVSJTHSM54OHWRG"}
{"meta_move": "win", "rt": "705.0", "trial_number": "1", "pre_actions": "1", "move": "r@13", "instance": "prb12604", "distance_to_goal": "1", "progress": "NA", "move_number": "5", "optimal_length": "7", "subject": "A2IBQA01NR5N76:3X4MXAO0BHWJLTOLVSJTHSM54OHWRG"}
{"meta_move": "drag_end", "rt": "8951.0", "trial_number": "0", "pre_actions": "0", "move": "r@16", "instance": "prb12604", "distance_to_goal": "NA", "progress": "NA", "move_number": "5", "optimal_length": "7", "subject": "A2IBQA01NR5N76:3X4MXAO0BHWJLTOLVSJTHSM54OHWRG"}
{"meta_move": "drag_end", "rt": "2935.0", "trial_number": "1", "pre_actions": "1", "move": "2@22", "instance": "prb12604", "distance_to_goal": "NA", "progress": "NA", "move_number": "0", "optimal_length": "7", "subject": "A2RTJ6BDY0DZVZ:3IJXV6UZ1YR1KY4G6BFEG1DXP7SRI1"}
{"meta_move": "drag_end", "rt": "2012.0", "trial_number": "1", "pre_actions": "1", "move": "5@0", "instance": "prb12604", "distance_to_goal": "NA", "progress": "NA", "move_number": "1", "optimal_length": "7", "subject": "A2RTJ6BDY0DZVZ:3IJXV6UZ1YR1KY4G6BFEG1DXP7SRI1"}
{"meta_move": "drag_end", "rt": "1104.0", "trial_number": "1", "pre_actions": "1", "move": "1@24", "instance": "prb12604", "distance_to_goal": "NA", "progress": "NA", "move_number": "2", "optimal_length": "7", "subject": "A2RTJ6BDY0DZVZ:3IJXV6UZ1YR1KY4G6BFEG1DXP7SRI1"}
{"meta_move": "drag_end", "rt": "603.0", "trial_number": "1", "pre_actions": "1", "move": "6@27", "instance": "prb12604", "distance_to_goal": "NA", "progress": "NA", "move_number": "3", "optimal_length": "7", "subject": "A2RTJ6BDY0DZVZ:3IJXV6UZ1YR1KY4G6BFEG1DXP7SRI1"}
{"meta_move": "drag_end", "rt": "629.0", "trial_number": "1", "pre_actions": "1", "move": "7@29", "instance": "prb12604", "distance_to_goal": "NA", "progress": "NA", "move_number": "4", "optimal_length": "7", "subject": "A2RTJ6BDY0DZVZ:3IJXV6UZ1YR1KY4G6BFEG1DXP7SRI1"}
{"meta_move": "win", "rt": "713.0", "trial_number": "1", "pre_actions": "1", "move": "r@13", "instance": "prb12604", "distance_to_goal": "1", "progress": "NA", "move_number": "5", "optimal_length": "7", "subject": "A2RTJ6BDY0DZVZ:3IJXV6UZ1YR1KY4G6BFEG1DXP7SRI1"}
{"meta_move": "drag_end", "rt": "333.0", "trial_number": "0", "pre_actions": "0", "move": "r@16", "instance": "prb12604", "distance_to_goal": "NA", "progress": "NA", "move_number": "5", "optimal_length": "7", "subject": "A2RTJ6BDY0DZVZ:3IJXV6UZ1YR1KY4G6BFEG1DXP7SRI1"}
{"meta_move": "drag_end", "rt": "2127.0", "trial_number": "4", "pre_actions": "1", "move": "2@22", "instance": "prb12604", "distance_to_goal": "NA", "progress": "NA", "move_number": "0", "optimal_length": "7", "subject": "A2TQNX64349OZ9:3WSELTNVR4AZUVYAYCSWZIQW0J4ATB"}
{"meta_move": "drag_end", "rt": "1504.0", "trial_number": "4", "pre_actions": "1", "move": "3@9", "instance": "prb12604", "distance_to_goal": "NA", "progress": "NA", "move_number": "1", "optimal_length": "7", "subject": "A2TQNX64349OZ9:3WSELTNVR4AZUVYAYCSWZIQW0J4ATB"}
{"meta_move": "drag_end", "rt": "1635.0", "trial_number": "4", "pre_actions": "1", "move": "r@12", "instance": "prb12604", "distance_to_goal": "NA", "progress": "NA", "move_number": "2", "optimal_length": "7", "subject": "A2TQNX64349OZ9:3WSELTNVR4AZUVYAYCSWZIQW0J4ATB"}
{"meta_move": "drag_end", "rt": "1276.0", "trial_number": "4", "pre_actions": "1", "move": "3@8", "instance": "prb12604", "distance_to_goal": "NA", "progress": "NA", "move_number": "3", "optimal_length": "7", "subject": "A2TQNX64349OZ9:3WSELTNVR4AZUVYAYCSWZIQW0J4ATB"}
{"meta_move": "drag_end", "rt": "980.0", "trial_number": "4", "pre_actions": "1", "move": "2@4", "instance": "prb12604", "distance_to_goal": "NA", "progress": "NA", "move_number": "4", "optimal_length": "7", "subject": "A2TQNX64349OZ9:3WSELTNVR4AZUVYAYCSWZIQW0J4ATB"}
{"meta_move": "drag_end", "rt": "893.0", "trial_number": "4", "pre_actions": "1", "move": "7@29", "instance": "prb12604", "distance_to_goal": "NA", "progress": "NA", "move_number": "5", "optimal_length": "7", "subject": "A2TQNX64349OZ9:3WSELTNVR4AZUVYAYCSWZIQW0J4ATB"}
{"meta_move": "drag_end", "rt": "1962.0", "trial_number": "4", "pre_actions": "1", "move": "1@26", "instance": "prb12604", "distance_to_goal": "NA", "progress": "NA", "move_number": "6", "optimal_length": "7", "subject": "A2TQNX64349OZ9:3WSELTNVR4AZUVYAYCSWZIQW0J4ATB"}
{"meta_move": "drag_end", "rt": "810.0", "trial_number": "4", "pre_actions": "1", "move": "1@25", "instance": "prb12604", "distance_to_goal": "NA", "progress": "NA", "move_number": "7", "optimal_length": "7", "subject": "A2TQNX64349OZ9:3WSELTNVR4AZUVYAYCSWZIQW0J4ATB"}
{"meta_move": "drag_end", "rt": "1337.0", "trial_number": "4", "pre_actions": "1", "move": "0@17", "instance": "prb12604", "distance_to_goal": "NA", "progress": "NA", "move_number": "8", "optimal_length": "7", "subject": "A2TQNX64349OZ9:3WSELTNVR4AZUVYAYCSWZIQW0J4ATB"}
{"meta_move": "drag_end", "rt": "1347.0", "trial_number": "4", "pre_actions": "1", "move": "2@22", "instance": "prb12604", "distance_to_goal": "NA", "progress": "NA", "move_number": "9", "optimal_length": "7", "subject": "A2TQNX64349OZ9:3WSELTNVR4AZUVYAYCSWZIQW0J4ATB"}
{"meta_move": "drag_end", "rt": "1621.0", "trial_number": "4", "pre_actions": "1", "move": "3@10", "instance": "prb12604", "distance_to_goal": "NA", "progress": "NA", "move_number": "10", "optimal_length": "7", "subject": "A2TQNX64349OZ9:3WSELTNVR4AZUVYAYCSWZIQW0J4ATB"}
{"meta_move": "drag_end", "rt": "710.0", "trial_number": "4", "pre_actions": "1", "move": "6@3", "instance": "prb12604", "distance_to_goal": "NA", "progress": "NA", "move_number": "11", "optimal_length": "7", "subject": "A2TQNX64349OZ9:3WSELTNVR4AZUVYAYCSWZIQW0J4ATB"}
{"meta_move": "drag_end", "rt": "1346.0", "trial_number": "4", "pre_actions": "1", "move": "r@15", "instance": "prb12604", "distance_to_goal": "NA", "progress": "NA", "move_number": "12", "optimal_length": "7", "subject": "A2TQNX64349OZ9:3WSELTNVR4AZUVYAYCSWZIQW0J4ATB"}
{"meta_move": "drag_end", "rt": "2986.0", "trial_number": "4", "pre_actions": "1", "move": "4@1", "instance": "prb12604", "distance_to_goal": "NA", "progress": "NA", "move_number": "13", "optimal_length": "7", "subject": "A2TQNX64349OZ9:3WSELTNVR4AZUVYAYCSWZIQW0J4ATB"}
{"meta_move": "drag_end", "rt": "539.0", "trial_number": "4", "pre_actions": "1", "move": "5@0", "instance": "prb12604", "distance_to_goal": "NA", "progress": "NA", "move_number": "13", "optimal_length": "7", "subject": "A2TQNX64349OZ9:3WSELTNVR4AZUVYAYCSWZIQW0J4ATB"}
{"meta_move": "drag_end", "rt": "647.0", "trial_number": "4", "pre_actions": "1", "move": "1@24", "instance": "prb12604", "distance_to_goal": "NA", "progress": "NA", "move_number": "14", "optimal_length": "7", "subject": "A2TQNX64349OZ9:3WSELTNVR4AZUVYAYCSWZIQW0J4ATB"}
{"meta_move": "drag_end", "rt": "1576.0", "trial_number": "4", "pre_actions": "1", "move": "r@13", "instance": "prb12604", "distance_to_goal": "NA", "progress": "NA", "move_number": "15", "optimal_length": "7", "subject": "A2TQNX64349OZ9:3WSELTNVR4AZUVYAYCSWZIQW0J4ATB"}
{"meta_move": "drag_end", "rt": "1318.0", "trial_number": "4", "pre_actions": "1", "move": "6@27", "instance": "prb12604", "distance_to_goal": "NA", "progress": "NA", "move_number": "16", "optimal_length": "7", "subject": "A2TQNX64349OZ9:3WSELTNVR4AZUVYAYCSWZIQW0J4ATB"}
{"meta_move": "drag_end", "rt": "930.0", "trial_number": "4", "pre_actions": "1", "move": "3@8", "instance": "prb12604", "distance_to_goal": "NA", "progress": "NA", "move_number": "17", "optimal_length": "7", "subject": "A2TQNX64349OZ9:3WSELTNVR4AZUVYAYCSWZIQW0J4ATB"}
{"meta_move": "drag_end", "rt": "1155.0", "trial_number": "4", "pre_actions": "1", "move": "0@5", "instance": "prb12604", "distance_to_goal": "NA", "progress": "NA", "move_number": "18", "optimal_length": "7", "subject": "A2TQNX64349OZ9:3WSELTNVR4AZUVYAYCSWZIQW0J4ATB"}
{"meta_move": "win", "rt": "736.0", "trial_number": "4", "pre_actions": "1", "move": "r@13", "instance": "prb12604", "distance_to_goal": "1", "progress": "NA", "move_number": "19", "optimal_length": "7", "subject": "A2TQNX64349OZ9:3WSELTNVR4AZUVYAYCSWZIQW0J4ATB"}
{"meta_move": "drag_end", "rt": "164.0", "trial_number": "0", "pre_actions": "0", "move": "r@16", "instance": "prb12604", "distance_to_goal": "NA", "progress": "NA", "move_number": "19", "optimal_length": "7", "subject": "A2TQNX64349OZ9:3WSELTNVR4AZUVYAYCSWZIQW0J4ATB"}
{"meta_move": "drag_end", "rt": "4110.0", "trial_number": "1", "pre_actions": "1", "move": "5@0", "instance": "prb12604", "distance_to_goal": "NA", "progress": "NA", "move_number": "0", "optimal_length": "7", "subject": "A3Q0XAGQ7TD7MP:3X87C8JFV7JQ2BSCY8KSFD9F2ILSQK"}
{"meta_move": "drag_end", "rt": "1236.0", "trial_number": "1", "pre_actions": "1", "move": "1@24", "instance": "prb12604", "distance_to_goal": "NA", "progress": "NA", "move_number": "1", "optimal_length": "7", "subject": "A3Q0XAGQ7TD7MP:3X87C8JFV7JQ2BSCY8KSFD9F2ILSQK"}
{"meta_move": "drag_end", "rt": "1249.0", "trial_number": "1", "pre_actions": "1", "move": "6@27", "instance": "prb12604", "distance_to_goal": "NA", "progress": "NA", "move_number": "2", "optimal_length": "7", "subject": "A3Q0XAGQ7TD7MP:3X87C8JFV7JQ2BSCY8KSFD9F2ILSQK"}
{"meta_move": "drag_end", "rt": "945.0", "trial_number": "1", "pre_actions": "1", "move": "2@22", "instance": "prb12604", "distance_to_goal": "NA", "progress": "NA", "move_number": "3", "optimal_length": "7", "subject": "A3Q0XAGQ7TD7MP:3X87C8JFV7JQ2BSCY8KSFD9F2ILSQK"}
{"meta_move": "drag_end", "rt": "2126.0", "trial_number": "1", "pre_actions": "1", "move": "7@29", "instance": "prb12604", "distance_to_goal": "NA", "progress": "NA", "move_number": "4", "optimal_length": "7", "subject": "A3Q0XAGQ7TD7MP:3X87C8JFV7JQ2BSCY8KSFD9F2ILSQK"}
{"meta_move": "win", "rt": "2222.0", "trial_number": "1", "pre_actions": "1", "move": "r@13", "instance": "prb12604", "distance_to_goal": "1", "progress": "NA", "move_number": "5", "optimal_length": "7", "subject": "A3Q0XAGQ7TD7MP:3X87C8JFV7JQ2BSCY8KSFD9F2ILSQK"}
{"meta_move": "drag_end", "rt": "119.0", "trial_number": "0", "pre_actions": "0", "move": "r@16", "instance": "prb12604", "distance_to_goal": "NA", "progress": "NA", "move_number": "5", "optimal_length": "7", "subject": "A3Q0XAGQ7TD7MP:3X87C8JFV7JQ2BSCY8KSFD9F2ILSQK"}
{"meta_move": "drag_end", "rt": "19735.0", "trial_number": "1", "pre_actions": "1", "move": "5@0", "instance": "prb12604", "distance_to_goal": "NA", "progress": "NA", "move_number": "0", "optimal_length": "7", "subject": "A3VZJ2T28HAQ2A:3VBEN272ML7ZPMYYVCFGLZ5DV7CGS0"}
{"meta_move": "drag_end", "rt": "893.0", "trial_number": "1", "pre_actions": "1", "move": "1@24", "instance": "prb12604", "distance_to_goal": "NA", "progress": "NA", "move_number": "1", "optimal_length": "7", "subject": "A3VZJ2T28HAQ2A:3VBEN272ML7ZPMYYVCFGLZ5DV7CGS0"}
{"meta_move": "drag_end", "rt": "847.0", "trial_number": "1", "pre_actions": "1", "move": "6@27", "instance": "prb12604", "distance_to_goal": "NA", "progress": "NA", "move_number": "2", "optimal_length": "7", "subject": "A3VZJ2T28HAQ2A:3VBEN272ML7ZPMYYVCFGLZ5DV7CGS0"}
{"meta_move": "drag_end", "rt": "983.0", "trial_number": "1", "pre_actions": "1", "move": "2@4", "instance": "prb12604", "distance_to_goal": "NA", "progress": "NA", "move_number": "3", "optimal_length": "7", "subject": "A3VZJ2T28HAQ2A:3VBEN272ML7ZPMYYVCFGLZ5DV7CGS0"}
{"meta_move": "drag_end", "rt": "583.0", "trial_number": "1", "pre_actions": "1", "move": "7@29", "instance": "prb12604", "distance_to_goal": "NA", "progress": "NA", "move_number": "4", "optimal_length": "7", "subject": "A3VZJ2T28HAQ2A:3VBEN272ML7ZPMYYVCFGLZ5DV7CGS0"}
{"meta_move": "drag_end", "rt": "875.0", "trial_number": "1", "pre_actions": "1", "move": "r@14", "instance": "prb12604", "distance_to_goal": "NA", "progress": "NA", "move_number": "5", "optimal_length": "7", "subject": "A3VZJ2T28HAQ2A:3VBEN272ML7ZPMYYVCFGLZ5DV7CGS0"}
{"meta_move": "drag_end", "rt": "753.0", "trial_number": "1", "pre_actions": "1", "move": "0@17", "instance": "prb12604", "distance_to_goal": "NA", "progress": "NA", "move_number": "6", "optimal_length": "7", "subject": "A3VZJ2T28HAQ2A:3VBEN272ML7ZPMYYVCFGLZ5DV7CGS0"}
{"meta_move": "drag_end", "rt": "878.0", "trial_number": "1", "pre_actions": "1", "move": "2@22", "instance": "prb12604", "distance_to_goal": "NA", "progress": "NA", "move_number": "7", "optimal_length": "7", "subject": "A3VZJ2T28HAQ2A:3VBEN272ML7ZPMYYVCFGLZ5DV7CGS0"}
{"meta_move": "drag_end", "rt": "806.0", "trial_number": "1", "pre_actions": "1", "move": "r@14", "instance": "prb12604", "distance_to_goal": "NA", "progress": "NA", "move_number": "8", "optimal_length": "7", "subject": "A3VZJ2T28HAQ2A:3VBEN272ML7ZPMYYVCFGLZ5DV7CGS0"}
{"meta_move": "drag_end", "rt": "913.0", "trial_number": "1", "pre_actions": "1", "move": "0@5", "instance": "prb12604", "distance_to_goal": "NA", "progress": "NA", "move_number": "8", "optimal_length": "7", "subject": "A3VZJ2T28HAQ2A:3VBEN272ML7ZPMYYVCFGLZ5DV7CGS0"}
{"meta_move": "win", "rt": "613.0", "trial_number": "1", "pre_actions": "1", "move": "r@14", "instance": "prb12604", "distance_to_goal": "1", "progress": "NA", "move_number": "9", "optimal_length": "7", "subject": "A3VZJ2T28HAQ2A:3VBEN272ML7ZPMYYVCFGLZ5DV7CGS0"}
{"meta_move": "drag_end", "rt": "181.0", "trial_number": "0", "pre_actions": "0", "move": "r@16", "instance": "prb12604", "distance_to_goal": "NA", "progress": "NA", "move_number": "9", "optimal_length": "7", "subject": "A3VZJ2T28HAQ2A:3VBEN272ML7ZPMYYVCFGLZ5DV7CGS0"}
{"meta_move": "drag_end", "rt": "3474.0", "trial_number": "3", "pre_actions": "1", "move": "5@0", "instance": "prb12604", "distance_to_goal": "NA", "progress": "NA", "move_number": "0", "optimal_length": "7", "subject": "AU4KK3OYS2UZF:3ZSY5X72NYJBGKFJ46SJ0Y9J0RLROB"}
{"meta_move": "drag_end", "rt": "1088.0", "trial_number": "3", "pre_actions": "1", "move": "1@24", "instance": "prb12604", "distance_to_goal": "NA", "progress": "NA", "move_number": "1", "optimal_length": "7", "subject": "AU4KK3OYS2UZF:3ZSY5X72NYJBGKFJ46SJ0Y9J0RLROB"}
{"meta_move": "drag_end", "rt": "1145.0", "trial_number": "3", "pre_actions": "1", "move": "6@27", "instance": "prb12604", "distance_to_goal": "NA", "progress": "NA", "move_number": "2", "optimal_length": "7", "subject": "AU4KK3OYS2UZF:3ZSY5X72NYJBGKFJ46SJ0Y9J0RLROB"}
{"meta_move": "drag_end", "rt": "896.0", "trial_number": "3", "pre_actions": "1", "move": "2@22", "instance": "prb12604", "distance_to_goal": "NA", "progress": "NA", "move_number": "3", "optimal_length": "7", "subject": "AU4KK3OYS2UZF:3ZSY5X72NYJBGKFJ46SJ0Y9J0RLROB"}
{"meta_move": "drag_end", "rt": "478.0", "trial_number": "3", "pre_actions": "1", "move": "7@29", "instance": "prb12604", "distance_to_goal": "NA", "progress": "NA", "move_number": "4", "optimal_length": "7", "subject": "AU4KK3OYS2UZF:3ZSY5X72NYJBGKFJ46SJ0Y9J0RLROB"}
{"meta_move": "win", "rt": "630.0", "trial_number": "3", "pre_actions": "1", "move": "r@13", "instance": "prb12604", "distance_to_goal": "1", "progress": "NA", "move_number": "5", "optimal_length": "7", "subject": "AU4KK3OYS2UZF:3ZSY5X72NYJBGKFJ46SJ0Y9J0RLROB"}
{"meta_move": "drag_end", "rt": "107.0", "trial_number": "0", "pre_actions": "0", "move": "r@16", "instance": "prb12604", "distance_to_goal": "NA", "progress": "NA", "move_number": "5", "optimal_length": "7", "subject": "AU4KK3OYS2UZF:3ZSY5X72NYJBGKFJ46SJ0Y9J0RLROB"}
