{"meta_move": "drag_end", "rt": "2510.0", "trial_number": "1", "pre_actions": "1", "move": "4@7", "instance": "prb29027", "distance_to_goal": "NA", "progress": "NA", "move_number": "0", "optimal_length": "16", "subject": "A15781PHGW377Y:3YW4XOSQKRTI0K0Z2YPDTDJVFABU1I"}
{"meta_move": "drag_end", "rt": "1256.0", "trial_number": "1", "pre_actions": "1", "move": "4@19", "instance": "prb29027", "distance_to_goal": "NA", "progress": "NA", "move_number": "1", "optimal_length": "16", "subject": "A15781PHGW377Y:3YW4XOSQKRTI0K0Z2YPDTDJVFABU1I"}
{"meta_move": "drag_end", "rt": "3570.0", "trial_number": "1", "pre_actions": "1", "move": "1@4", "instance": "prb29027", "distance_to_goal": "NA", "progress": "NA", "move_number": "2", "optimal_length": "16", "subject": "A15781PHGW377Y:3YW4XOSQKRTI0K0Z2YPDTDJVFABU1I"}
{"meta_move": "drag_end", "rt": "1530.0", "trial_number": "1", "pre_actions": "1", "move": "2@22", "instance": "prb29027", "distance_to_goal": "NA", "progress": "NA", "move_number": "3", "optimal_length": "16", "subject": "A15781PHGW377Y:3YW4XOSQKRTI0K0Z2YPDTDJVFABU1I"}
{"meta_move": "drag_end", "rt": "1268.0", "trial_number": "1", "pre_actions": "1", "move": "r@12", "instance": "prb29027", "distance_to_goal": "NA", "progress": "NA", "move_number": "4", "optimal_length": "16", "subject": "A15781PHGW377Y:3YW4XOSQKRTI0K0Z2YPDTDJVFABU1I"}
{"meta_move": "drag_end", "rt": "2985.0", "trial_number": "1", "pre_actions": "1", "move": "6@8", "instance": "prb29027", "distance_to_goal": "NA", "progress": "NA", "move_number": "5", "optimal_length": "16", "subject": "A15781PHGW377Y:3YW4XOSQKRTI0K0Z2YPDTDJVFABU1I"}
{"meta_move": "drag_end", "rt": "1868.0", "trial_number": "1", "pre_actions": "1", "move": "0@27", "instance": "prb29027", "distance_to_goal": "NA", "progress": "NA", "move_number": "6", "optimal_length": "16", "subject": "A15781PHGW377Y:3YW4XOSQKRTI0K0Z2YPDTDJVFABU1I"}
{"meta_move": "drag_end", "rt": "1141.0", "trial_number": "1", "pre_actions": "1", "move": "6@26", "instance": "prb29027", "distance_to_goal": "NA", "progress": "NA", "move_number": "6", "optimal_length": "16", "subject": "A15781PHGW377Y:3YW4XOSQKRTI0K0Z2YPDTDJVFABU1I"}
{"meta_move": "drag_end", "rt": "1695.0", "trial_number": "1", "pre_actions": "1", "move": "2@20", "instance": "prb29027", "distance_to_goal": "NA", "progress": "NA", "move_number": "7", "optimal_length": "16", "subject": "A15781PHGW377Y:3YW4XOSQKRTI0K0Z2YPDTDJVFABU1I"}
{"meta_move": "drag_end", "rt": "1503.0", "trial_number": "1", "pre_actions": "1", "move": "0@28", "instance": "prb29027", "distance_to_goal": "NA", "progress": "NA", "move_number": "8", "optimal_length": "16", "subject": "A15781PHGW377Y:3YW4XOSQKRTI0K0Z2YPDTDJVFABU1I"}
{"meta_move": "drag_end", "rt": "1558.0", "trial_number": "1", "pre_actions": "1", "move": "r@14", "instance": "prb29027", "distance_to_goal": "NA", "progress": "NA", "move_number": "9", "optimal_length": "16", "subject": "A15781PHGW377Y:3YW4XOSQKRTI0K0Z2YPDTDJVFABU1I"}
{"meta_move": "drag_end", "rt": "1942.0", "trial_number": "1", "pre_actions": "1", "move": "2@22", "instance": "prb29027", "distance_to_goal": "NA", "progress": "NA", "move_number": "10", "optimal_length": "16", "subject": "A15781PHGW377Y:3YW4XOSQKRTI0K0Z2YPDTDJVFABU1I"}
{"meta_move": "drag_end", "rt": "1117.0", "trial_number": "1", "pre_actions": "1", "move": "6@20", "instance": "prb29027", "distance_to_goal": "NA", "progress": "NA", "move_number": "11", "optimal_length": "16", "subject": "A15781PHGW377Y:3YW4XOSQKRTI0K0Z2YPDTDJVFABU1I"}
{"meta_move": "drag_end", "rt": "592.0", "trial_number": "1", "pre_actions": "1", "move": "4@7", "instance": "prb29027", "distance_to_goal": "NA", "progress": "NA", "move_number": "12", "optimal_length": "16", "subject": "A15781PHGW377Y:3YW4XOSQKRTI0K0Z2YPDTDJVFABU1I"}
{"meta_move": "drag_end", "rt": "1118.0", "trial_number": "1", "pre_actions": "1", "move": "3@30", "instance": "prb29027", "distance_to_goal": "NA", "progress": "NA", "move_number": "13", "optimal_length": "16", "subject": "A15781PHGW377Y:3YW4XOSQKRTI0K0Z2YPDTDJVFABU1I"}
{"meta_move": "drag_end", "rt": "4938.0", "trial_number": "1", "pre_actions": "1", "move": "2@21", "instance": "prb29027", "distance_to_goal": "NA", "progress": "NA", "move_number": "14", "optimal_length": "16", "subject": "A15781PHGW377Y:3YW4XOSQKRTI0K0Z2YPDTDJVFABU1I"}
{"meta_move": "drag_end", "rt": "2598.0", "trial_number": "1", "pre_actions": "1", "move": "4@13", "instance": "prb29027", "distance_to_goal": "NA", "progress": "NA", "move_number": "15", "optimal_length": "16", "subject": "A15781PHGW377Y:3YW4XOSQKRTI0K0Z2YPDTDJVFABU1I"}
{"meta_move": "drag_end", "rt": "942.0", "trial_number": "1", "pre_actions": "1", "move": "3@33", "instance": "prb29027", "distance_to_goal": "NA", "progress": "NA", "move_number": "16", "optimal_length": "16", "subject": "A15781PHGW377Y:3YW4XOSQKRTI0K0Z2YPDTDJVFABU1I"}
{"meta_move": "drag_end", "rt": "1101.0", "trial_number": "1", "pre_actions": "1", "move": "4@19", "instance": "prb29027", "distance_to_goal": "NA", "progress": "NA", "move_number": "17", "optimal_length": "16", "subject": "A15781PHGW377Y:3YW4XOSQKRTI0K0Z2YPDTDJVFABU1I"}
{"meta_move": "drag_end", "rt": "971.0", "trial_number": "1", "pre_actions": "1", "move": "r@12", "instance": "prb29027", "distance_to_goal": "NA", "progress": "NA", "move_number": "18", "optimal_length": "16", "subject": "A15781PHGW377Y:3YW4XOSQKRTI0K0Z2YPDTDJVFABU1I"}
{"meta_move": "drag_end", "rt": "1056.0", "trial_number": "1", "pre_actions": "1", "move": "6@8", "instance": "prb29027", "distance_to_goal": "NA", "progress": "NA", "move_number": "19", "optimal_length": "16", "subject": "A15781PHGW377Y:3YW4XOSQKRTI0K0Z2YPDTDJVFABU1I"}
{"meta_move": "drag_end", "rt": "806.0", "trial_number": "1", "pre_actions": "1", "move": "2@20", "instance": "prb29027", "distance_to_goal": "NA", "progress": "NA", "move_number": "20", "optimal_length": "16", "subject": "A15781PHGW377Y:3YW4XOSQKRTI0K0Z2YPDTDJVFABU1I"}
{"meta_move": "drag_end", "rt": "881.0", "trial_number": "1", "pre_actions": "1", "move": "0@26", "instance": "prb29027", "distance_to_goal": "NA", "progress": "NA", "move_number": "21", "optimal_length": "16", "subject": "A15781PHGW377Y:3YW4XOSQKRTI0K0Z2YPDTDJVFABU1I"}
{"meta_move": "drag_end", "rt": "942.0", "trial_number": "1", "pre_actions": "1", "move": "3@32", "instance": "prb29027", "distance_to_goal": "NA", "progress": "NA", "move_number": "22", "optimal_length": "16", "subject": "A15781PHGW377Y:3YW4XOSQKRTI0K0Z2YPDTDJVFABU1I"}
{"meta_move": "drag_end", "rt": "3052.0", "trial_number": "1", "pre_actions": "1", "move": "1@16", "instance": "prb29027", "distance_to_goal": "NA", "progress": "NA", "move_number": "23", "optimal_length": "16", "subject": "A15781PHGW377Y:3YW4XOSQKRTI0K0Z2YPDTDJVFABU1I"}
{"meta_move": "drag_end", "rt": "915.0", "trial_number": "1", "pre_actions": "1", "move": "7@4", "instance": "prb29027", "distance_to_goal": "NA", "progress": "NA", "move_number": "24", "optimal_length": "16", "subject": "A15781PHGW377Y:3YW4XOSQKRTI0K0Z2YPDTDJVFABU1I"}
{"meta_move": "drag_end", "rt": "1061.0", "trial_number": "1", "pre_actions": "1", "move": "6@2", "instance": "prb29027", "distance_to_goal": "NA", "progress": "NA", "move_number": "25", "optimal_length": "16", "subject": "A15781PHGW377Y:3YW4XOSQKRTI0K0Z2YPDTDJVFABU1I"}
{"meta_move": "drag_end", "rt": "1063.0", "trial_number": "1", "pre_actions": "1", "move": "r@14", "instance": "prb29027", "distance_to_goal": "NA", "progress": "NA", "move_number": "26", "optimal_length": "16", "subject": "A15781PHGW377Y:3YW4XOSQKRTI0K0Z2YPDTDJVFABU1I"}
{"meta_move": "drag_end", "rt": "1556.0", "trial_number": "1", "pre_actions": "1", "move": "4@7", "instance": "prb29027", "distance_to_goal": "NA", "progress": "NA", "move_number": "27", "optimal_length": "16", "subject": "A15781PHGW377Y:3YW4XOSQKRTI0K0Z2YPDTDJVFABU1I"}
{"meta_move": "drag_end", "rt": "1434.0", "trial_number": "1", "pre_actions": "1", "move": "0@24", "instance": "prb29027", "distance_to_goal": "NA", "progress": "NA", "move_number": "28", "optimal_length": "16", "subject": "A15781PHGW377Y:3YW4XOSQKRTI0K0Z2YPDTDJVFABU1I"}
{"meta_move": "drag_end", "rt": "792.0", "trial_number": "1", "pre_actions": "1", "move": "3@30", "instance": "prb29027", "distance_to_goal": "NA", "progress": "NA", "move_number": "29", "optimal_length": "16", "subject": "A15781PHGW377Y:3YW4XOSQKRTI0K0Z2YPDTDJVFABU1I"}
{"meta_move": "drag_end", "rt": "945.0", "trial_number": "1", "pre_actions": "1", "move": "1@22", "instance": "prb29027", "distance_to_goal": "NA", "progress": "NA", "move_number": "30", "optimal_length": "16", "subject": "A15781PHGW377Y:3YW4XOSQKRTI0K0Z2YPDTDJVFABU1I"}
{"meta_move": "drag_end", "rt": "1974.0", "trial_number": "1", "pre_actions": "1", "move": "r@16", "instance": "prb29027", "distance_to_goal": "NA", "progress": "NA", "move_number": "31", "optimal_length": "16", "subject": "A15781PHGW377Y:3YW4XOSQKRTI0K0Z2YPDTDJVFABU1I"}
{"meta_move": "win", "rt": "1392.0", "trial_number": "1", "pre_actions": "1", "move": "r@16", "instance": "prb29027", "distance_to_goal": "1", "progress": "NA", "move_number": "32", "optimal_length": "16", "subject": "A15781PHGW377Y:3YW4XOSQKRTI0K0Z2YPDTDJVFABU1I"}
{"meta_move": "drag_end", "rt": "254.0", "trial_number": "0", "pre_actions": "0", "move": "r@16", "instance": "prb29027", "distance_to_goal": "NA", "progress": "NA", "move_number": "32", "optimal_length": "16", "subject": "A15781PHGW377Y:3YW4XOSQKRTI0K0Z2YPDTDJVFABU1I"}
{"meta_move": "drag_end", "rt": "1936.0", "trial_number": "1", "pre_actions": "1", "move": "1@4", "instance": "prb29027", "distance_to_goal": "NA", "progress": "NA", "move_number": "0", "optimal_length": "16", "subject": "A191V7PT3DQKDP:3PMBY0YE28B43VMUKKJ6EDF85RV9C8"}
{"meta_move": "drag_end", "rt": "896.0", "trial_number": "1", "pre_actions": "1", "move": "4@7", "instance": "prb29027", "distance_to_goal": "NA", "progress": "NA", "move_number": "1", "optimal_length": "16", "subject": "A191V7PT3DQKDP:3PMBY0YE28B43VMUKKJ6EDF85RV9C8"}
{"meta_move": "drag_end", "rt": "1392.0", "trial_number": "1", "pre_actions": "1", "move": "4@19", "instance": "prb29027", "distance_to_goal": "NA", "progress": "NA", "move_number": "2", "optimal_length": "16", "subject": "A191V7PT3DQKDP:3PMBY0YE28B43VMUKKJ6EDF85RV9C8"}
{"meta_move": "drag_end", "rt": "952.0", "trial_number": "1", "pre_actions": "1", "move": "r@12", "instance": "prb29027", "distance_to_goal": "NA", "progress": "NA", "move_number": "3", "optimal_length": "16", "subject": "A191V7PT3DQKDP:3PMBY0YE28B43VMUKKJ6EDF85RV9C8"}
{"meta_move": "drag_end", "rt": "920.0", "trial_number": "1", "pre_actions": "1", "move": "2@22", "instance": "prb29027", "distance_to_goal": "NA", "progress": "NA", "move_number": "4", "optimal_length": "16", "subject": "A191V7PT3DQKDP:3PMBY0YE28B43VMUKKJ6EDF85RV9C8"}
{"meta_move": "drag_end", "rt": "2040.0", "trial_number": "1", "pre_actions": "1", "move": "2@20", "instance": "prb29027", "distance_to_goal": "NA", "progress": "NA", "move_number": "5", "optimal_length": "16", "subject": "A191V7PT3DQKDP:3PMBY0YE28B43VMUKKJ6EDF85RV9C8"}
{"meta_move": "drag_end", "rt": "592.0", "trial_number": "1", "pre_actions": "1", "move": "1@10", "instance": "prb29027", "distance_to_goal": "NA", "progress": "NA", "move_number": "6", "optimal_length": "16", "subject": "A191V7PT3DQKDP:3PMBY0YE28B43VMUKKJ6EDF85RV9C8"}
{"meta_move": "drag_end", "rt": "728.0", "trial_number": "1", "pre_actions": "1", "move": "7@4", "instance": "prb29027", "distance_to_goal": "NA", "progress": "NA", "move_number": "7", "optimal_length": "16", "subject": "A191V7PT3DQKDP:3PMBY0YE28B43VMUKKJ6EDF85RV9C8"}
{"meta_move": "drag_end", "rt": "1424.0", "trial_number": "1", "pre_actions": "1", "move": "7@2", "instance": "prb29027", "distance_to_goal": "NA", "progress": "NA", "move_number": "8", "optimal_length": "16", "subject": "A191V7PT3DQKDP:3PMBY0YE28B43VMUKKJ6EDF85RV9C8"}
{"meta_move": "drag_end", "rt": "840.0", "trial_number": "1", "pre_actions": "1", "move": "1@4", "instance": "prb29027", "distance_to_goal": "NA", "progress": "NA", "move_number": "9", "optimal_length": "16", "subject": "A191V7PT3DQKDP:3PMBY0YE28B43VMUKKJ6EDF85RV9C8"}
{"meta_move": "drag_end", "rt": "1048.0", "trial_number": "1", "pre_actions": "1", "move": "2@22", "instance": "prb29027", "distance_to_goal": "NA", "progress": "NA", "move_number": "10", "optimal_length": "16", "subject": "A191V7PT3DQKDP:3PMBY0YE28B43VMUKKJ6EDF85RV9C8"}
{"meta_move": "drag_end", "rt": "1088.0", "trial_number": "1", "pre_actions": "1", "move": "6@8", "instance": "prb29027", "distance_to_goal": "NA", "progress": "NA", "move_number": "11", "optimal_length": "16", "subject": "A191V7PT3DQKDP:3PMBY0YE28B43VMUKKJ6EDF85RV9C8"}
{"meta_move": "drag_end", "rt": "2400.0", "trial_number": "1", "pre_actions": "1", "move": "6@20", "instance": "prb29027", "distance_to_goal": "NA", "progress": "NA", "move_number": "12", "optimal_length": "16", "subject": "A191V7PT3DQKDP:3PMBY0YE28B43VMUKKJ6EDF85RV9C8"}
{"meta_move": "drag_end", "rt": "896.0", "trial_number": "1", "pre_actions": "1", "move": "r@14", "instance": "prb29027", "distance_to_goal": "NA", "progress": "NA", "move_number": "13", "optimal_length": "16", "subject": "A191V7PT3DQKDP:3PMBY0YE28B43VMUKKJ6EDF85RV9C8"}
{"meta_move": "drag_end", "rt": "856.0", "trial_number": "1", "pre_actions": "1", "move": "3@32", "instance": "prb29027", "distance_to_goal": "NA", "progress": "NA", "move_number": "14", "optimal_length": "16", "subject": "A191V7PT3DQKDP:3PMBY0YE28B43VMUKKJ6EDF85RV9C8"}
{"meta_move": "drag_end", "rt": "560.0", "trial_number": "1", "pre_actions": "1", "move": "4@7", "instance": "prb29027", "distance_to_goal": "NA", "progress": "NA", "move_number": "15", "optimal_length": "16", "subject": "A191V7PT3DQKDP:3PMBY0YE28B43VMUKKJ6EDF85RV9C8"}
{"meta_move": "drag_end", "rt": "864.0", "trial_number": "1", "pre_actions": "1", "move": "3@30", "instance": "prb29027", "distance_to_goal": "NA", "progress": "NA", "move_number": "16", "optimal_length": "16", "subject": "A191V7PT3DQKDP:3PMBY0YE28B43VMUKKJ6EDF85RV9C8"}
{"meta_move": "drag_end", "rt": "2800.0", "trial_number": "1", "pre_actions": "1", "move": "4@13", "instance": "prb29027", "distance_to_goal": "NA", "progress": "NA", "move_number": "17", "optimal_length": "16", "subject": "A191V7PT3DQKDP:3PMBY0YE28B43VMUKKJ6EDF85RV9C8"}
{"meta_move": "drag_end", "rt": "3152.0", "trial_number": "1", "pre_actions": "1", "move": "0@28", "instance": "prb29027", "distance_to_goal": "NA", "progress": "NA", "move_number": "18", "optimal_length": "16", "subject": "A191V7PT3DQKDP:3PMBY0YE28B43VMUKKJ6EDF85RV9C8"}
{"meta_move": "drag_end", "rt": "1656.0", "trial_number": "1", "pre_actions": "1", "move": "4@7", "instance": "prb29027", "distance_to_goal": "NA", "progress": "NA", "move_number": "19", "optimal_length": "16", "subject": "A191V7PT3DQKDP:3PMBY0YE28B43VMUKKJ6EDF85RV9C8"}
{"meta_move": "drag_end", "rt": "1096.0", "trial_number": "1", "pre_actions": "1", "move": "3@32", "instance": "prb29027", "distance_to_goal": "NA", "progress": "NA", "move_number": "20", "optimal_length": "16", "subject": "A191V7PT3DQKDP:3PMBY0YE28B43VMUKKJ6EDF85RV9C8"}
{"meta_move": "drag_end", "rt": "745.0", "trial_number": "1", "pre_actions": "1", "move": "4@19", "instance": "prb29027", "distance_to_goal": "NA", "progress": "NA", "move_number": "21", "optimal_length": "16", "subject": "A191V7PT3DQKDP:3PMBY0YE28B43VMUKKJ6EDF85RV9C8"}
{"meta_move": "drag_end", "rt": "759.0", "trial_number": "1", "pre_actions": "1", "move": "r@12", "instance": "prb29027", "distance_to_goal": "NA", "progress": "NA", "move_number": "22", "optimal_length": "16", "subject": "A191V7PT3DQKDP:3PMBY0YE28B43VMUKKJ6EDF85RV9C8"}
{"meta_move": "drag_end", "rt": "4542.0", "trial_number": "1", "pre_actions": "1", "move": "r@14", "instance": "prb29027", "distance_to_goal": "NA", "progress": "NA", "move_number": "23", "optimal_length": "16", "subject": "A191V7PT3DQKDP:3PMBY0YE28B43VMUKKJ6EDF85RV9C8"}
{"meta_move": "drag_end", "rt": "9128.0", "trial_number": "1", "pre_actions": "1", "move": "r@12", "instance": "prb29027", "distance_to_goal": "NA", "progress": "NA", "move_number": "24", "optimal_length": "16", "subject": "A191V7PT3DQKDP:3PMBY0YE28B43VMUKKJ6EDF85RV9C8"}
{"meta_move": "drag_end", "rt": "1039.0", "trial_number": "1", "pre_actions": "1", "move": "6@8", "instance": "prb29027", "distance_to_goal": "NA", "progress": "NA", "move_number": "25", "optimal_length": "16", "subject": "A191V7PT3DQKDP:3PMBY0YE28B43VMUKKJ6EDF85RV9C8"}
{"meta_move": "drag_end", "rt": "752.0", "trial_number": "1", "pre_actions": "1", "move": "2@20", "instance": "prb29027", "distance_to_goal": "NA", "progress": "NA", "move_number": "26", "optimal_length": "16", "subject": "A191V7PT3DQKDP:3PMBY0YE28B43VMUKKJ6EDF85RV9C8"}
{"meta_move": "drag_end", "rt": "600.0", "trial_number": "1", "pre_actions": "1", "move": "0@26", "instance": "prb29027", "distance_to_goal": "NA", "progress": "NA", "move_number": "27", "optimal_length": "16", "subject": "A191V7PT3DQKDP:3PMBY0YE28B43VMUKKJ6EDF85RV9C8"}
{"meta_move": "drag_end", "rt": "2536.0", "trial_number": "1", "pre_actions": "1", "move": "1@16", "instance": "prb29027", "distance_to_goal": "NA", "progress": "NA", "move_number": "28", "optimal_length": "16", "subject": "A191V7PT3DQKDP:3PMBY0YE28B43VMUKKJ6EDF85RV9C8"}
{"meta_move": "drag_end", "rt": "1361.0", "trial_number": "1", "pre_actions": "1", "move": "7@4", "instance": "prb29027", "distance_to_goal": "NA", "progress": "NA", "move_number": "29", "optimal_length": "16", "subject": "A191V7PT3DQKDP:3PMBY0YE28B43VMUKKJ6EDF85RV9C8"}
{"meta_move": "drag_end", "rt": "768.0", "trial_number": "1", "pre_actions": "1", "move": "6@2", "instance": "prb29027", "distance_to_goal": "NA", "progress": "NA", "move_number": "30", "optimal_length": "16", "subject": "A191V7PT3DQKDP:3PMBY0YE28B43VMUKKJ6EDF85RV9C8"}
{"meta_move": "drag_end", "rt": "1119.0", "trial_number": "1", "pre_actions": "1", "move": "r@14", "instance": "prb29027", "distance_to_goal": "NA", "progress": "NA", "move_number": "31", "optimal_length": "16", "subject": "A191V7PT3DQKDP:3PMBY0YE28B43VMUKKJ6EDF85RV9C8"}
{"meta_move": "drag_end", "rt": "720.0", "trial_number": "1", "pre_actions": "1", "move": "4@7", "instance": "prb29027", "distance_to_goal": "NA", "progress": "NA", "move_number": "32", "optimal_length": "16", "subject": "A191V7PT3DQKDP:3PMBY0YE28B43VMUKKJ6EDF85RV9C8"}
{"meta_move": "drag_end", "rt": "808.0", "trial_number": "1", "pre_actions": "1", "move": "0@24", "instance": "prb29027", "distance_to_goal": "NA", "progress": "NA", "move_number": "33", "optimal_length": "16", "subject": "A191V7PT3DQKDP:3PMBY0YE28B43VMUKKJ6EDF85RV9C8"}
{"meta_move": "drag_end", "rt": "473.0", "trial_number": "1", "pre_actions": "1", "move": "3@30", "instance": "prb29027", "distance_to_goal": "NA", "progress": "NA", "move_number": "34", "optimal_length": "16", "subject": "A191V7PT3DQKDP:3PMBY0YE28B43VMUKKJ6EDF85RV9C8"}
{"meta_move": "drag_end", "rt": "543.0", "trial_number": "1", "pre_actions": "1", "move": "1@22", "instance": "prb29027", "distance_to_goal": "NA", "progress": "NA", "move_number": "35", "optimal_length": "16", "subject": "A191V7PT3DQKDP:3PMBY0YE28B43VMUKKJ6EDF85RV9C8"}
{"meta_move": "win", "rt": "493.0", "trial_number": "1", "pre_actions": "1", "move": "r@14", "instance": "prb29027", "distance_to_goal": "1", "progress": "NA", "move_number": "36", "optimal_length": "16", "subject": "A191V7PT3DQKDP:3PMBY0YE28B43VMUKKJ6EDF85RV9C8"}
{"meta_move": "drag_end", "rt": "195.0", "trial_number": "0", "pre_actions": "0", "move": "r@16", "instance": "prb29027", "distance_to_goal": "NA", "progress": "NA", "move_number": "36", "optimal_length": "16", "subject": "A191V7PT3DQKDP:3PMBY0YE28B43VMUKKJ6EDF85RV9C8"}
{"meta_move": "drag_end", "rt": "2099.0", "trial_number": "1", "pre_actions": "1", "move": "1@4", "instance": "prb29027", "distance_to_goal": "NA", "progress": "NA", "move_number": "0", "optimal_length": "16", "subject": "A1F4N58CAX8IMK:3TS1AR6UQRM7SOIBWPBN8N9589Y7FV"}
{"meta_move": "drag_end", "rt": "872.0", "trial_number": "1", "pre_actions": "1", "move": "4@7", "instance": "prb29027", "distance_to_goal": "NA", "progress": "NA", "move_number": "1", "optimal_length": "16", "subject": "A1F4N58CAX8IMK:3TS1AR6UQRM7SOIBWPBN8N9589Y7FV"}
{"meta_move": "drag_end", "rt": "680.0", "trial_number": "1", "pre_actions": "1", "move": "0@28", "instance": "prb29027", "distance_to_goal": "NA", "progress": "NA", "move_number": "2", "optimal_length": "16", "subject": "A1F4N58CAX8IMK:3TS1AR6UQRM7SOIBWPBN8N9589Y7FV"}
{"meta_move": "drag_end", "rt": "1255.0", "trial_number": "1", "pre_actions": "1", "move": "0@27", "instance": "prb29027", "distance_to_goal": "NA", "progress": "NA", "move_number": "3", "optimal_length": "16", "subject": "A1F4N58CAX8IMK:3TS1AR6UQRM7SOIBWPBN8N9589Y7FV"}
{"meta_move": "drag_end", "rt": "1353.0", "trial_number": "1", "pre_actions": "1", "move": "1@10", "instance": "prb29027", "distance_to_goal": "NA", "progress": "NA", "move_number": "4", "optimal_length": "16", "subject": "A1F4N58CAX8IMK:3TS1AR6UQRM7SOIBWPBN8N9589Y7FV"}
{"meta_move": "drag_end", "rt": "515.0", "trial_number": "1", "pre_actions": "1", "move": "7@2", "instance": "prb29027", "distance_to_goal": "NA", "progress": "NA", "move_number": "5", "optimal_length": "16", "subject": "A1F4N58CAX8IMK:3TS1AR6UQRM7SOIBWPBN8N9589Y7FV"}
{"meta_move": "drag_end", "rt": "653.0", "trial_number": "1", "pre_actions": "1", "move": "7@4", "instance": "prb29027", "distance_to_goal": "NA", "progress": "NA", "move_number": "5", "optimal_length": "16", "subject": "A1F4N58CAX8IMK:3TS1AR6UQRM7SOIBWPBN8N9589Y7FV"}
{"meta_move": "drag_end", "rt": "1088.0", "trial_number": "1", "pre_actions": "1", "move": "5@2", "instance": "prb29027", "distance_to_goal": "NA", "progress": "NA", "move_number": "6", "optimal_length": "16", "subject": "A1F4N58CAX8IMK:3TS1AR6UQRM7SOIBWPBN8N9589Y7FV"}
{"meta_move": "drag_end", "rt": "991.0", "trial_number": "1", "pre_actions": "1", "move": "4@1", "instance": "prb29027", "distance_to_goal": "NA", "progress": "NA", "move_number": "7", "optimal_length": "16", "subject": "A1F4N58CAX8IMK:3TS1AR6UQRM7SOIBWPBN8N9589Y7FV"}
{"meta_move": "drag_end", "rt": "920.0", "trial_number": "1", "pre_actions": "1", "move": "2@18", "instance": "prb29027", "distance_to_goal": "NA", "progress": "NA", "move_number": "8", "optimal_length": "16", "subject": "A1F4N58CAX8IMK:3TS1AR6UQRM7SOIBWPBN8N9589Y7FV"}
{"meta_move": "drag_end", "rt": "1392.0", "trial_number": "1", "pre_actions": "1", "move": "6@20", "instance": "prb29027", "distance_to_goal": "NA", "progress": "NA", "move_number": "9", "optimal_length": "16", "subject": "A1F4N58CAX8IMK:3TS1AR6UQRM7SOIBWPBN8N9589Y7FV"}
{"meta_move": "drag_end", "rt": "761.0", "trial_number": "1", "pre_actions": "1", "move": "3@30", "instance": "prb29027", "distance_to_goal": "NA", "progress": "NA", "move_number": "10", "optimal_length": "16", "subject": "A1F4N58CAX8IMK:3TS1AR6UQRM7SOIBWPBN8N9589Y7FV"}
{"meta_move": "drag_end", "rt": "1199.0", "trial_number": "1", "pre_actions": "1", "move": "0@28", "instance": "prb29027", "distance_to_goal": "NA", "progress": "NA", "move_number": "11", "optimal_length": "16", "subject": "A1F4N58CAX8IMK:3TS1AR6UQRM7SOIBWPBN8N9589Y7FV"}
{"meta_move": "drag_end", "rt": "1225.0", "trial_number": "1", "pre_actions": "1", "move": "0@28", "instance": "prb29027", "distance_to_goal": "NA", "progress": "NA", "move_number": "12", "optimal_length": "16", "subject": "A1F4N58CAX8IMK:3TS1AR6UQRM7SOIBWPBN8N9589Y7FV"}
{"meta_move": "drag_end", "rt": "672.0", "trial_number": "1", "pre_actions": "1", "move": "6@20", "instance": "prb29027", "distance_to_goal": "NA", "progress": "NA", "move_number": "12", "optimal_length": "16", "subject": "A1F4N58CAX8IMK:3TS1AR6UQRM7SOIBWPBN8N9589Y7FV"}
{"meta_move": "drag_end", "rt": "649.0", "trial_number": "1", "pre_actions": "1", "move": "r@14", "instance": "prb29027", "distance_to_goal": "NA", "progress": "NA", "move_number": "12", "optimal_length": "16", "subject": "A1F4N58CAX8IMK:3TS1AR6UQRM7SOIBWPBN8N9589Y7FV"}
{"meta_move": "drag_end", "rt": "1375.0", "trial_number": "1", "pre_actions": "1", "move": "4@1", "instance": "prb29027", "distance_to_goal": "NA", "progress": "NA", "move_number": "12", "optimal_length": "16", "subject": "A1F4N58CAX8IMK:3TS1AR6UQRM7SOIBWPBN8N9589Y7FV"}
{"meta_move": "drag_end", "rt": "839.0", "trial_number": "1", "pre_actions": "1", "move": "3@30", "instance": "prb29027", "distance_to_goal": "NA", "progress": "NA", "move_number": "12", "optimal_length": "16", "subject": "A1F4N58CAX8IMK:3TS1AR6UQRM7SOIBWPBN8N9589Y7FV"}
{"meta_move": "drag_end", "rt": "994.0", "trial_number": "1", "pre_actions": "1", "move": "1@10", "instance": "prb29027", "distance_to_goal": "NA", "progress": "NA", "move_number": "12", "optimal_length": "16", "subject": "A1F4N58CAX8IMK:3TS1AR6UQRM7SOIBWPBN8N9589Y7FV"}
{"meta_move": "drag_end", "rt": "479.0", "trial_number": "1", "pre_actions": "1", "move": "0@27", "instance": "prb29027", "distance_to_goal": "NA", "progress": "NA", "move_number": "12", "optimal_length": "16", "subject": "A1F4N58CAX8IMK:3TS1AR6UQRM7SOIBWPBN8N9589Y7FV"}
{"meta_move": "drag_end", "rt": "920.0", "trial_number": "1", "pre_actions": "1", "move": "1@10", "instance": "prb29027", "distance_to_goal": "NA", "progress": "NA", "move_number": "13", "optimal_length": "16", "subject": "A1F4N58CAX8IMK:3TS1AR6UQRM7SOIBWPBN8N9589Y7FV"}
{"meta_move": "drag_end", "rt": "624.0", "trial_number": "1", "pre_actions": "1", "move": "0@28", "instance": "prb29027", "distance_to_goal": "NA", "progress": "NA", "move_number": "13", "optimal_length": "16", "subject": "A1F4N58CAX8IMK:3TS1AR6UQRM7SOIBWPBN8N9589Y7FV"}
{"meta_move": "drag_end", "rt": "1200.0", "trial_number": "1", "pre_actions": "1", "move": "3@33", "instance": "prb29027", "distance_to_goal": "NA", "progress": "NA", "move_number": "14", "optimal_length": "16", "subject": "A1F4N58CAX8IMK:3TS1AR6UQRM7SOIBWPBN8N9589Y7FV"}
{"meta_move": "drag_end", "rt": "1392.0", "trial_number": "1", "pre_actions": "1", "move": "6@26", "instance": "prb29027", "distance_to_goal": "NA", "progress": "NA", "move_number": "15", "optimal_length": "16", "subject": "A1F4N58CAX8IMK:3TS1AR6UQRM7SOIBWPBN8N9589Y7FV"}
{"meta_move": "drag_end", "rt": "712.0", "trial_number": "1", "pre_actions": "1", "move": "2@20", "instance": "prb29027", "distance_to_goal": "NA", "progress": "NA", "move_number": "16", "optimal_length": "16", "subject": "A1F4N58CAX8IMK:3TS1AR6UQRM7SOIBWPBN8N9589Y7FV"}
{"meta_move": "drag_end", "rt": "744.0", "trial_number": "1", "pre_actions": "1", "move": "4@19", "instance": "prb29027", "distance_to_goal": "NA", "progress": "NA", "move_number": "17", "optimal_length": "16", "subject": "A1F4N58CAX8IMK:3TS1AR6UQRM7SOIBWPBN8N9589Y7FV"}
{"meta_move": "drag_end", "rt": "648.0", "trial_number": "1", "pre_actions": "1", "move": "r@12", "instance": "prb29027", "distance_to_goal": "NA", "progress": "NA", "move_number": "18", "optimal_length": "16", "subject": "A1F4N58CAX8IMK:3TS1AR6UQRM7SOIBWPBN8N9589Y7FV"}
{"meta_move": "drag_end", "rt": "976.0", "trial_number": "1", "pre_actions": "1", "move": "5@0", "instance": "prb29027", "distance_to_goal": "NA", "progress": "NA", "move_number": "19", "optimal_length": "16", "subject": "A1F4N58CAX8IMK:3TS1AR6UQRM7SOIBWPBN8N9589Y7FV"}
{"meta_move": "drag_end", "rt": "1088.0", "trial_number": "1", "pre_actions": "1", "move": "7@2", "instance": "prb29027", "distance_to_goal": "NA", "progress": "NA", "move_number": "20", "optimal_length": "16", "subject": "A1F4N58CAX8IMK:3TS1AR6UQRM7SOIBWPBN8N9589Y7FV"}
{"meta_move": "drag_end", "rt": "847.0", "trial_number": "1", "pre_actions": "1", "move": "1@4", "instance": "prb29027", "distance_to_goal": "NA", "progress": "NA", "move_number": "21", "optimal_length": "16", "subject": "A1F4N58CAX8IMK:3TS1AR6UQRM7SOIBWPBN8N9589Y7FV"}
{"meta_move": "drag_end", "rt": "977.0", "trial_number": "1", "pre_actions": "1", "move": "r@14", "instance": "prb29027", "distance_to_goal": "NA", "progress": "NA", "move_number": "22", "optimal_length": "16", "subject": "A1F4N58CAX8IMK:3TS1AR6UQRM7SOIBWPBN8N9589Y7FV"}
{"meta_move": "drag_end", "rt": "1199.0", "trial_number": "1", "pre_actions": "1", "move": "4@7", "instance": "prb29027", "distance_to_goal": "NA", "progress": "NA", "move_number": "23", "optimal_length": "16", "subject": "A1F4N58CAX8IMK:3TS1AR6UQRM7SOIBWPBN8N9589Y7FV"}
{"meta_move": "drag_end", "rt": "2240.0", "trial_number": "1", "pre_actions": "1", "move": "5@0", "instance": "prb29027", "distance_to_goal": "NA", "progress": "NA", "move_number": "24", "optimal_length": "16", "subject": "A1F4N58CAX8IMK:3TS1AR6UQRM7SOIBWPBN8N9589Y7FV"}
{"meta_move": "drag_end", "rt": "576.0", "trial_number": "1", "pre_actions": "1", "move": "7@2", "instance": "prb29027", "distance_to_goal": "NA", "progress": "NA", "move_number": "24", "optimal_length": "16", "subject": "A1F4N58CAX8IMK:3TS1AR6UQRM7SOIBWPBN8N9589Y7FV"}
{"meta_move": "drag_end", "rt": "440.0", "trial_number": "1", "pre_actions": "1", "move": "1@10", "instance": "prb29027", "distance_to_goal": "NA", "progress": "NA", "move_number": "24", "optimal_length": "16", "subject": "A1F4N58CAX8IMK:3TS1AR6UQRM7SOIBWPBN8N9589Y7FV"}
{"meta_move": "drag_end", "rt": "872.0", "trial_number": "1", "pre_actions": "1", "move": "7@4", "instance": "prb29027", "distance_to_goal": "NA", "progress": "NA", "move_number": "25", "optimal_length": "16", "subject": "A1F4N58CAX8IMK:3TS1AR6UQRM7SOIBWPBN8N9589Y7FV"}
{"meta_move": "drag_end", "rt": "897.0", "trial_number": "1", "pre_actions": "1", "move": "5@2", "instance": "prb29027", "distance_to_goal": "NA", "progress": "NA", "move_number": "26", "optimal_length": "16", "subject": "A1F4N58CAX8IMK:3TS1AR6UQRM7SOIBWPBN8N9589Y7FV"}
{"meta_move": "drag_end", "rt": "792.0", "trial_number": "1", "pre_actions": "1", "move": "4@1", "instance": "prb29027", "distance_to_goal": "NA", "progress": "NA", "move_number": "27", "optimal_length": "16", "subject": "A1F4N58CAX8IMK:3TS1AR6UQRM7SOIBWPBN8N9589Y7FV"}
{"meta_move": "drag_end", "rt": "656.0", "trial_number": "1", "pre_actions": "1", "move": "2@18", "instance": "prb29027", "distance_to_goal": "NA", "progress": "NA", "move_number": "28", "optimal_length": "16", "subject": "A1F4N58CAX8IMK:3TS1AR6UQRM7SOIBWPBN8N9589Y7FV"}
{"meta_move": "drag_end", "rt": "1744.0", "trial_number": "1", "pre_actions": "1", "move": "6@20", "instance": "prb29027", "distance_to_goal": "NA", "progress": "NA", "move_number": "29", "optimal_length": "16", "subject": "A1F4N58CAX8IMK:3TS1AR6UQRM7SOIBWPBN8N9589Y7FV"}
{"meta_move": "drag_end", "rt": "704.0", "trial_number": "1", "pre_actions": "1", "move": "3@30", "instance": "prb29027", "distance_to_goal": "NA", "progress": "NA", "move_number": "30", "optimal_length": "16", "subject": "A1F4N58CAX8IMK:3TS1AR6UQRM7SOIBWPBN8N9589Y7FV"}
{"meta_move": "drag_end", "rt": "800.0", "trial_number": "1", "pre_actions": "1", "move": "0@27", "instance": "prb29027", "distance_to_goal": "NA", "progress": "NA", "move_number": "31", "optimal_length": "16", "subject": "A1F4N58CAX8IMK:3TS1AR6UQRM7SOIBWPBN8N9589Y7FV"}
{"meta_move": "drag_end", "rt": "1703.0", "trial_number": "1", "pre_actions": "1", "move": "1@10", "instance": "prb29027", "distance_to_goal": "NA", "progress": "NA", "move_number": "32", "optimal_length": "16", "subject": "A1F4N58CAX8IMK:3TS1AR6UQRM7SOIBWPBN8N9589Y7FV"}
{"meta_move": "drag_end", "rt": "592.0", "trial_number": "1", "pre_actions": "1", "move": "0@28", "instance": "prb29027", "distance_to_goal": "NA", "progress": "NA", "move_number": "32", "optimal_length": "16", "subject": "A1F4N58CAX8IMK:3TS1AR6UQRM7SOIBWPBN8N9589Y7FV"}
{"meta_move": "drag_end", "rt": "1017.0", "trial_number": "1", "pre_actions": "1", "move": "r@14", "instance": "prb29027", "distance_to_goal": "NA", "progress": "NA", "move_number": "33", "optimal_length": "16", "subject": "A1F4N58CAX8IMK:3TS1AR6UQRM7SOIBWPBN8N9589Y7FV"}
{"meta_move": "drag_end", "rt": "2720.0", "trial_number": "1", "pre_actions": "1", "move": "0@27", "instance": "prb29027", "distance_to_goal": "NA", "progress": "NA", "move_number": "33", "optimal_length": "16", "subject": "A1F4N58CAX8IMK:3TS1AR6UQRM7SOIBWPBN8N9589Y7FV"}
{"meta_move": "drag_end", "rt": "560.0", "trial_number": "1", "pre_actions": "1", "move": "1@10", "instance": "prb29027", "distance_to_goal": "NA", "progress": "NA", "move_number": "34", "optimal_length": "16", "subject": "A1F4N58CAX8IMK:3TS1AR6UQRM7SOIBWPBN8N9589Y7FV"}
{"meta_move": "drag_end", "rt": "608.0", "trial_number": "1", "pre_actions": "1", "move": "0@28", "instance": "prb29027", "distance_to_goal": "NA", "progress": "NA", "move_number": "34", "optimal_length": "16", "subject": "A1F4N58CAX8IMK:3TS1AR6UQRM7SOIBWPBN8N9589Y7FV"}
{"meta_move": "drag_end", "rt": "698.0", "trial_number": "1", "pre_actions": "1", "move": "6@20", "instance": "prb29027", "distance_to_goal": "NA", "progress": "NA", "move_number": "35", "optimal_length": "16", "subject": "A1F4N58CAX8IMK:3TS1AR6UQRM7SOIBWPBN8N9589Y7FV"}
{"meta_move": "drag_end", "rt": "198.0", "trial_number": "1", "pre_actions": "1", "move": "6@20", "instance": "prb29027", "distance_to_goal": "NA", "progress": "NA", "move_number": "35", "optimal_length": "16", "subject": "A1F4N58CAX8IMK:3TS1AR6UQRM7SOIBWPBN8N9589Y7FV"}
{"meta_move": "drag_end", "rt": "783.0", "trial_number": "1", "pre_actions": "1", "move": "r@14", "instance": "prb29027", "distance_to_goal": "NA", "progress": "NA", "move_number": "35", "optimal_length": "16", "subject": "A1F4N58CAX8IMK:3TS1AR6UQRM7SOIBWPBN8N9589Y7FV"}
{"meta_move": "drag_end", "rt": "1111.0", "trial_number": "1", "pre_actions": "1", "move": "2@18", "instance": "prb29027", "distance_to_goal": "NA", "progress": "NA", "move_number": "35", "optimal_length": "16", "subject": "A1F4N58CAX8IMK:3TS1AR6UQRM7SOIBWPBN8N9589Y7FV"}
{"meta_move": "drag_end", "rt": "777.0", "trial_number": "1", "pre_actions": "1", "move": "3@32", "instance": "prb29027", "distance_to_goal": "NA", "progress": "NA", "move_number": "35", "optimal_length": "16", "subject": "A1F4N58CAX8IMK:3TS1AR6UQRM7SOIBWPBN8N9589Y7FV"}
{"meta_move": "drag_end", "rt": "959.0", "trial_number": "1", "pre_actions": "1", "move": "3@30", "instance": "prb29027", "distance_to_goal": "NA", "progress": "NA", "move_number": "36", "optimal_length": "16", "subject": "A1F4N58CAX8IMK:3TS1AR6UQRM7SOIBWPBN8N9589Y7FV"}
{"meta_move": "drag_end", "rt": "785.0", "trial_number": "1", "pre_actions": "1", "move": "0@27", "instance": "prb29027", "distance_to_goal": "NA", "progress": "NA", "move_number": "37", "optimal_length": "16", "subject": "A1F4N58CAX8IMK:3TS1AR6UQRM7SOIBWPBN8N9589Y7FV"}
{"meta_move": "drag_end", "rt": "904.0", "trial_number": "1", "pre_actions": "1", "move": "0@28", "instance": "prb29027", "distance_to_goal": "NA", "progress": "NA", "move_number": "38", "optimal_length": "16", "subject": "A1F4N58CAX8IMK:3TS1AR6UQRM7SOIBWPBN8N9589Y7FV"}
{"meta_move": "drag_end", "rt": "903.0", "trial_number": "1", "pre_actions": "1", "move": "r@14", "instance": "prb29027", "distance_to_goal": "NA", "progress": "NA", "move_number": "39", "optimal_length": "16", "subject": "A1F4N58CAX8IMK:3TS1AR6UQRM7SOIBWPBN8N9589Y7FV"}
{"meta_move": "drag_end", "rt": "744.0", "trial_number": "1", "pre_actions": "1", "move": "1@10", "instance": "prb29027", "distance_to_goal": "NA", "progress": "NA", "move_number": "39", "optimal_length": "16", "subject": "A1F4N58CAX8IMK:3TS1AR6UQRM7SOIBWPBN8N9589Y7FV"}
{"meta_move": "drag_end", "rt": "1201.0", "trial_number": "1", "pre_actions": "1", "move": "4@1", "instance": "prb29027", "distance_to_goal": "NA", "progress": "NA", "move_number": "39", "optimal_length": "16", "subject": "A1F4N58CAX8IMK:3TS1AR6UQRM7SOIBWPBN8N9589Y7FV"}
{"meta_move": "drag_end", "rt": "688.0", "trial_number": "1", "pre_actions": "1", "move": "2@18", "instance": "prb29027", "distance_to_goal": "NA", "progress": "NA", "move_number": "39", "optimal_length": "16", "subject": "A1F4N58CAX8IMK:3TS1AR6UQRM7SOIBWPBN8N9589Y7FV"}
{"meta_move": "drag_end", "rt": "840.0", "trial_number": "1", "pre_actions": "1", "move": "6@20", "instance": "prb29027", "distance_to_goal": "NA", "progress": "NA", "move_number": "39", "optimal_length": "16", "subject": "A1F4N58CAX8IMK:3TS1AR6UQRM7SOIBWPBN8N9589Y7FV"}
{"meta_move": "drag_end", "rt": "704.0", "trial_number": "1", "pre_actions": "1", "move": "3@33", "instance": "prb29027", "distance_to_goal": "NA", "progress": "NA", "move_number": "39", "optimal_length": "16", "subject": "A1F4N58CAX8IMK:3TS1AR6UQRM7SOIBWPBN8N9589Y7FV"}
{"meta_move": "drag_end", "rt": "752.0", "trial_number": "1", "pre_actions": "1", "move": "6@26", "instance": "prb29027", "distance_to_goal": "NA", "progress": "NA", "move_number": "40", "optimal_length": "16", "subject": "A1F4N58CAX8IMK:3TS1AR6UQRM7SOIBWPBN8N9589Y7FV"}
{"meta_move": "drag_end", "rt": "887.0", "trial_number": "1", "pre_actions": "1", "move": "2@18", "instance": "prb29027", "distance_to_goal": "NA", "progress": "NA", "move_number": "41", "optimal_length": "16", "subject": "A1F4N58CAX8IMK:3TS1AR6UQRM7SOIBWPBN8N9589Y7FV"}
{"meta_move": "drag_end", "rt": "801.0", "trial_number": "1", "pre_actions": "1", "move": "1@10", "instance": "prb29027", "distance_to_goal": "NA", "progress": "NA", "move_number": "41", "optimal_length": "16", "subject": "A1F4N58CAX8IMK:3TS1AR6UQRM7SOIBWPBN8N9589Y7FV"}
{"meta_move": "drag_end", "rt": "1399.0", "trial_number": "1", "pre_actions": "1", "move": "0@27", "instance": "prb29027", "distance_to_goal": "NA", "progress": "NA", "move_number": "41", "optimal_length": "16", "subject": "A1F4N58CAX8IMK:3TS1AR6UQRM7SOIBWPBN8N9589Y7FV"}
{"meta_move": "drag_end", "rt": "721.0", "trial_number": "1", "pre_actions": "1", "move": "1@10", "instance": "prb29027", "distance_to_goal": "NA", "progress": "NA", "move_number": "42", "optimal_length": "16", "subject": "A1F4N58CAX8IMK:3TS1AR6UQRM7SOIBWPBN8N9589Y7FV"}
{"meta_move": "drag_end", "rt": "2896.0", "trial_number": "1", "pre_actions": "1", "move": "4@1", "instance": "prb29027", "distance_to_goal": "NA", "progress": "NA", "move_number": "42", "optimal_length": "16", "subject": "A1F4N58CAX8IMK:3TS1AR6UQRM7SOIBWPBN8N9589Y7FV"}
{"meta_move": "drag_end", "rt": "824.0", "trial_number": "1", "pre_actions": "1", "move": "6@20", "instance": "prb29027", "distance_to_goal": "NA", "progress": "NA", "move_number": "42", "optimal_length": "16", "subject": "A1F4N58CAX8IMK:3TS1AR6UQRM7SOIBWPBN8N9589Y7FV"}
{"meta_move": "drag_end", "rt": "647.0", "trial_number": "1", "pre_actions": "1", "move": "3@30", "instance": "prb29027", "distance_to_goal": "NA", "progress": "NA", "move_number": "43", "optimal_length": "16", "subject": "A1F4N58CAX8IMK:3TS1AR6UQRM7SOIBWPBN8N9589Y7FV"}
{"meta_move": "drag_end", "rt": "785.0", "trial_number": "1", "pre_actions": "1", "move": "0@28", "instance": "prb29027", "distance_to_goal": "NA", "progress": "NA", "move_number": "44", "optimal_length": "16", "subject": "A1F4N58CAX8IMK:3TS1AR6UQRM7SOIBWPBN8N9589Y7FV"}
{"meta_move": "drag_end", "rt": "1232.0", "trial_number": "1", "pre_actions": "1", "move": "0@28", "instance": "prb29027", "distance_to_goal": "NA", "progress": "NA", "move_number": "45", "optimal_length": "16", "subject": "A1F4N58CAX8IMK:3TS1AR6UQRM7SOIBWPBN8N9589Y7FV"}
{"meta_move": "drag_end", "rt": "664.0", "trial_number": "1", "pre_actions": "1", "move": "r@14", "instance": "prb29027", "distance_to_goal": "NA", "progress": "NA", "move_number": "45", "optimal_length": "16", "subject": "A1F4N58CAX8IMK:3TS1AR6UQRM7SOIBWPBN8N9589Y7FV"}
{"meta_move": "drag_end", "rt": "944.0", "trial_number": "1", "pre_actions": "1", "move": "3@33", "instance": "prb29027", "distance_to_goal": "NA", "progress": "NA", "move_number": "45", "optimal_length": "16", "subject": "A1F4N58CAX8IMK:3TS1AR6UQRM7SOIBWPBN8N9589Y7FV"}
{"meta_move": "drag_end", "rt": "743.0", "trial_number": "1", "pre_actions": "1", "move": "6@26", "instance": "prb29027", "distance_to_goal": "NA", "progress": "NA", "move_number": "46", "optimal_length": "16", "subject": "A1F4N58CAX8IMK:3TS1AR6UQRM7SOIBWPBN8N9589Y7FV"}
{"meta_move": "drag_end", "rt": "1673.0", "trial_number": "1", "pre_actions": "1", "move": "1@10", "instance": "prb29027", "distance_to_goal": "NA", "progress": "NA", "move_number": "47", "optimal_length": "16", "subject": "A1F4N58CAX8IMK:3TS1AR6UQRM7SOIBWPBN8N9589Y7FV"}
{"meta_move": "drag_end", "rt": "671.0", "trial_number": "1", "pre_actions": "1", "move": "0@27", "instance": "prb29027", "distance_to_goal": "NA", "progress": "NA", "move_number": "47", "optimal_length": "16", "subject": "A1F4N58CAX8IMK:3TS1AR6UQRM7SOIBWPBN8N9589Y7FV"}
{"meta_move": "drag_end", "rt": "641.0", "trial_number": "1", "pre_actions": "1", "move": "6@20", "instance": "prb29027", "distance_to_goal": "NA", "progress": "NA", "move_number": "48", "optimal_length": "16", "subject": "A1F4N58CAX8IMK:3TS1AR6UQRM7SOIBWPBN8N9589Y7FV"}
{"meta_move": "drag_end", "rt": "743.0", "trial_number": "1", "pre_actions": "1", "move": "3@30", "instance": "prb29027", "distance_to_goal": "NA", "progress": "NA", "move_number": "49", "optimal_length": "16", "subject": "A1F4N58CAX8IMK:3TS1AR6UQRM7SOIBWPBN8N9589Y7FV"}
{"meta_move": "drag_end", "rt": "2177.0", "trial_number": "1", "pre_actions": "1", "move": "0@28", "instance": "prb29027", "distance_to_goal": "NA", "progress": "NA", "move_number": "50", "optimal_length": "16", "subject": "A1F4N58CAX8IMK:3TS1AR6UQRM7SOIBWPBN8N9589Y7FV"}
{"meta_move": "drag_end", "rt": "1216.0", "trial_number": "1", "pre_actions": "1", "move": "r@14", "instance": "prb29027", "distance_to_goal": "NA", "progress": "NA", "move_number": "51", "optimal_length": "16", "subject": "A1F4N58CAX8IMK:3TS1AR6UQRM7SOIBWPBN8N9589Y7FV"}
{"meta_move": "drag_end", "rt": "744.0", "trial_number": "1", "pre_actions": "1", "move": "1@10", "instance": "prb29027", "distance_to_goal": "NA", "progress": "NA", "move_number": "51", "optimal_length": "16", "subject": "A1F4N58CAX8IMK:3TS1AR6UQRM7SOIBWPBN8N9589Y7FV"}
{"meta_move": "drag_end", "rt": "7352.0", "trial_number": "1", "pre_actions": "1", "move": "4@7", "instance": "prb29027", "distance_to_goal": "NA", "progress": "NA", "move_number": "0", "optimal_length": "16", "subject": "A1LR0VQIHQUJAM:3YW4XOSQKRTI0K0Z2YPDTDJVFABU1I"}
{"meta_move": "drag_end", "rt": "512.0", "trial_number": "1", "pre_actions": "1", "move": "7@4", "instance": "prb29027", "distance_to_goal": "NA", "progress": "NA", "move_number": "1", "optimal_length": "16", "subject": "A1LR0VQIHQUJAM:3YW4XOSQKRTI0K0Z2YPDTDJVFABU1I"}
{"meta_move": "drag_end", "rt": "499.0", "trial_number": "1", "pre_actions": "1", "move": "5@2", "instance": "prb29027", "distance_to_goal": "NA", "progress": "NA", "move_number": "2", "optimal_length": "16", "subject": "A1LR0VQIHQUJAM:3YW4XOSQKRTI0K0Z2YPDTDJVFABU1I"}
{"meta_move": "drag_end", "rt": "512.0", "trial_number": "1", "pre_actions": "1", "move": "4@1", "instance": "prb29027", "distance_to_goal": "NA", "progress": "NA", "move_number": "3", "optimal_length": "16", "subject": "A1LR0VQIHQUJAM:3YW4XOSQKRTI0K0Z2YPDTDJVFABU1I"}
{"meta_move": "drag_end", "rt": "619.0", "trial_number": "1", "pre_actions": "1", "move": "2@18", "instance": "prb29027", "distance_to_goal": "NA", "progress": "NA", "move_number": "4", "optimal_length": "16", "subject": "A1LR0VQIHQUJAM:3YW4XOSQKRTI0K0Z2YPDTDJVFABU1I"}
{"meta_move": "drag_end", "rt": "605.0", "trial_number": "1", "pre_actions": "1", "move": "6@20", "instance": "prb29027", "distance_to_goal": "NA", "progress": "NA", "move_number": "5", "optimal_length": "16", "subject": "A1LR0VQIHQUJAM:3YW4XOSQKRTI0K0Z2YPDTDJVFABU1I"}
{"meta_move": "drag_end", "rt": "1121.0", "trial_number": "1", "pre_actions": "1", "move": "3@30", "instance": "prb29027", "distance_to_goal": "NA", "progress": "NA", "move_number": "6", "optimal_length": "16", "subject": "A1LR0VQIHQUJAM:3YW4XOSQKRTI0K0Z2YPDTDJVFABU1I"}
{"meta_move": "drag_end", "rt": "96580.0", "trial_number": "1", "pre_actions": "1", "move": "0@28", "instance": "prb29027", "distance_to_goal": "NA", "progress": "NA", "move_number": "7", "optimal_length": "16", "subject": "A1LR0VQIHQUJAM:3YW4XOSQKRTI0K0Z2YPDTDJVFABU1I"}
{"meta_move": "drag_end", "rt": "2259.0", "trial_number": "1", "pre_actions": "1", "move": "0@27", "instance": "prb29027", "distance_to_goal": "NA", "progress": "NA", "move_number": "8", "optimal_length": "16", "subject": "A1LR0VQIHQUJAM:3YW4XOSQKRTI0K0Z2YPDTDJVFABU1I"}
{"meta_move": "drag_end", "rt": "599.0", "trial_number": "1", "pre_actions": "1", "move": "3@33", "instance": "prb29027", "distance_to_goal": "NA", "progress": "NA", "move_number": "9", "optimal_length": "16", "subject": "A1LR0VQIHQUJAM:3YW4XOSQKRTI0K0Z2YPDTDJVFABU1I"}
{"meta_move": "drag_end", "rt": "621.0", "trial_number": "1", "pre_actions": "1", "move": "6@26", "instance": "prb29027", "distance_to_goal": "NA", "progress": "NA", "move_number": "10", "optimal_length": "16", "subject": "A1LR0VQIHQUJAM:3YW4XOSQKRTI0K0Z2YPDTDJVFABU1I"}
{"meta_move": "drag_end", "rt": "1284.0", "trial_number": "1", "pre_actions": "1", "move": "2@20", "instance": "prb29027", "distance_to_goal": "NA", "progress": "NA", "move_number": "11", "optimal_length": "16", "subject": "A1LR0VQIHQUJAM:3YW4XOSQKRTI0K0Z2YPDTDJVFABU1I"}
{"meta_move": "drag_end", "rt": "814.0", "trial_number": "1", "pre_actions": "1", "move": "4@19", "instance": "prb29027", "distance_to_goal": "NA", "progress": "NA", "move_number": "12", "optimal_length": "16", "subject": "A1LR0VQIHQUJAM:3YW4XOSQKRTI0K0Z2YPDTDJVFABU1I"}
{"meta_move": "drag_end", "rt": "1636.0", "trial_number": "1", "pre_actions": "1", "move": "5@0", "instance": "prb29027", "distance_to_goal": "NA", "progress": "NA", "move_number": "13", "optimal_length": "16", "subject": "A1LR0VQIHQUJAM:3YW4XOSQKRTI0K0Z2YPDTDJVFABU1I"}
{"meta_move": "drag_end", "rt": "565.0", "trial_number": "1", "pre_actions": "1", "move": "7@2", "instance": "prb29027", "distance_to_goal": "NA", "progress": "NA", "move_number": "14", "optimal_length": "16", "subject": "A1LR0VQIHQUJAM:3YW4XOSQKRTI0K0Z2YPDTDJVFABU1I"}
{"meta_move": "drag_end", "rt": "537.0", "trial_number": "1", "pre_actions": "1", "move": "1@4", "instance": "prb29027", "distance_to_goal": "NA", "progress": "NA", "move_number": "15", "optimal_length": "16", "subject": "A1LR0VQIHQUJAM:3YW4XOSQKRTI0K0Z2YPDTDJVFABU1I"}
{"meta_move": "drag_end", "rt": "2093.0", "trial_number": "1", "pre_actions": "1", "move": "2@22", "instance": "prb29027", "distance_to_goal": "NA", "progress": "NA", "move_number": "16", "optimal_length": "16", "subject": "A1LR0VQIHQUJAM:3YW4XOSQKRTI0K0Z2YPDTDJVFABU1I"}
{"meta_move": "drag_end", "rt": "988.0", "trial_number": "1", "pre_actions": "1", "move": "4@7", "instance": "prb29027", "distance_to_goal": "NA", "progress": "NA", "move_number": "17", "optimal_length": "16", "subject": "A1LR0VQIHQUJAM:3YW4XOSQKRTI0K0Z2YPDTDJVFABU1I"}
{"meta_move": "drag_end", "rt": "847.0", "trial_number": "1", "pre_actions": "1", "move": "6@20", "instance": "prb29027", "distance_to_goal": "NA", "progress": "NA", "move_number": "18", "optimal_length": "16", "subject": "A1LR0VQIHQUJAM:3YW4XOSQKRTI0K0Z2YPDTDJVFABU1I"}
{"meta_move": "drag_end", "rt": "5672.0", "trial_number": "1", "pre_actions": "1", "move": "4@19", "instance": "prb29027", "distance_to_goal": "NA", "progress": "NA", "move_number": "19", "optimal_length": "16", "subject": "A1LR0VQIHQUJAM:3YW4XOSQKRTI0K0Z2YPDTDJVFABU1I"}
{"meta_move": "drag_end", "rt": "3811.0", "trial_number": "1", "pre_actions": "1", "move": "3@32", "instance": "prb29027", "distance_to_goal": "NA", "progress": "NA", "move_number": "20", "optimal_length": "16", "subject": "A1LR0VQIHQUJAM:3YW4XOSQKRTI0K0Z2YPDTDJVFABU1I"}
{"meta_move": "drag_end", "rt": "1065.0", "trial_number": "1", "pre_actions": "1", "move": "0@28", "instance": "prb29027", "distance_to_goal": "NA", "progress": "NA", "move_number": "21", "optimal_length": "16", "subject": "A1LR0VQIHQUJAM:3YW4XOSQKRTI0K0Z2YPDTDJVFABU1I"}
{"meta_move": "drag_end", "rt": "3744.0", "trial_number": "1", "pre_actions": "1", "move": "3@33", "instance": "prb29027", "distance_to_goal": "NA", "progress": "NA", "move_number": "22", "optimal_length": "16", "subject": "A1LR0VQIHQUJAM:3YW4XOSQKRTI0K0Z2YPDTDJVFABU1I"}
{"meta_move": "drag_end", "rt": "6651.0", "trial_number": "1", "pre_actions": "1", "move": "4@7", "instance": "prb29027", "distance_to_goal": "NA", "progress": "NA", "move_number": "23", "optimal_length": "16", "subject": "A1LR0VQIHQUJAM:3YW4XOSQKRTI0K0Z2YPDTDJVFABU1I"}
{"meta_move": "drag_end", "rt": "1739.0", "trial_number": "1", "pre_actions": "1", "move": "6@26", "instance": "prb29027", "distance_to_goal": "NA", "progress": "NA", "move_number": "24", "optimal_length": "16", "subject": "A1LR0VQIHQUJAM:3YW4XOSQKRTI0K0Z2YPDTDJVFABU1I"}
{"meta_move": "drag_end", "rt": "740.0", "trial_number": "1", "pre_actions": "1", "move": "2@20", "instance": "prb29027", "distance_to_goal": "NA", "progress": "NA", "move_number": "25", "optimal_length": "16", "subject": "A1LR0VQIHQUJAM:3YW4XOSQKRTI0K0Z2YPDTDJVFABU1I"}
{"meta_move": "drag_end", "rt": "525.0", "trial_number": "1", "pre_actions": "1", "move": "1@10", "instance": "prb29027", "distance_to_goal": "NA", "progress": "NA", "move_number": "26", "optimal_length": "16", "subject": "A1LR0VQIHQUJAM:3YW4XOSQKRTI0K0Z2YPDTDJVFABU1I"}
{"meta_move": "drag_end", "rt": "759.0", "trial_number": "1", "pre_actions": "1", "move": "7@4", "instance": "prb29027", "distance_to_goal": "NA", "progress": "NA", "move_number": "27", "optimal_length": "16", "subject": "A1LR0VQIHQUJAM:3YW4XOSQKRTI0K0Z2YPDTDJVFABU1I"}
{"meta_move": "drag_end", "rt": "630.0", "trial_number": "1", "pre_actions": "1", "move": "5@2", "instance": "prb29027", "distance_to_goal": "NA", "progress": "NA", "move_number": "28", "optimal_length": "16", "subject": "A1LR0VQIHQUJAM:3YW4XOSQKRTI0K0Z2YPDTDJVFABU1I"}
{"meta_move": "drag_end", "rt": "679.0", "trial_number": "1", "pre_actions": "1", "move": "4@1", "instance": "prb29027", "distance_to_goal": "NA", "progress": "NA", "move_number": "29", "optimal_length": "16", "subject": "A1LR0VQIHQUJAM:3YW4XOSQKRTI0K0Z2YPDTDJVFABU1I"}
{"meta_move": "drag_end", "rt": "908.0", "trial_number": "1", "pre_actions": "1", "move": "2@18", "instance": "prb29027", "distance_to_goal": "NA", "progress": "NA", "move_number": "30", "optimal_length": "16", "subject": "A1LR0VQIHQUJAM:3YW4XOSQKRTI0K0Z2YPDTDJVFABU1I"}
{"meta_move": "drag_end", "rt": "787.0", "trial_number": "1", "pre_actions": "1", "move": "6@20", "instance": "prb29027", "distance_to_goal": "NA", "progress": "NA", "move_number": "31", "optimal_length": "16", "subject": "A1LR0VQIHQUJAM:3YW4XOSQKRTI0K0Z2YPDTDJVFABU1I"}
{"meta_move": "drag_end", "rt": "932.0", "trial_number": "1", "pre_actions": "1", "move": "3@30", "instance": "prb29027", "distance_to_goal": "NA", "progress": "NA", "move_number": "32", "optimal_length": "16", "subject": "A1LR0VQIHQUJAM:3YW4XOSQKRTI0K0Z2YPDTDJVFABU1I"}
{"meta_move": "drag_end", "rt": "8552.0", "trial_number": "1", "pre_actions": "1", "move": "3@33", "instance": "prb29027", "distance_to_goal": "NA", "progress": "NA", "move_number": "33", "optimal_length": "16", "subject": "A1LR0VQIHQUJAM:3YW4XOSQKRTI0K0Z2YPDTDJVFABU1I"}
{"meta_move": "drag_end", "rt": "990.0", "trial_number": "1", "pre_actions": "1", "move": "6@26", "instance": "prb29027", "distance_to_goal": "NA", "progress": "NA", "move_number": "34", "optimal_length": "16", "subject": "A1LR0VQIHQUJAM:3YW4XOSQKRTI0K0Z2YPDTDJVFABU1I"}
{"meta_move": "drag_end", "rt": "491.0", "trial_number": "1", "pre_actions": "1", "move": "2@20", "instance": "prb29027", "distance_to_goal": "NA", "progress": "NA", "move_number": "35", "optimal_length": "16", "subject": "A1LR0VQIHQUJAM:3YW4XOSQKRTI0K0Z2YPDTDJVFABU1I"}
{"meta_move": "drag_end", "rt": "610.0", "trial_number": "1", "pre_actions": "1", "move": "4@19", "instance": "prb29027", "distance_to_goal": "NA", "progress": "NA", "move_number": "36", "optimal_length": "16", "subject": "A1LR0VQIHQUJAM:3YW4XOSQKRTI0K0Z2YPDTDJVFABU1I"}
{"meta_move": "drag_end", "rt": "861.0", "trial_number": "1", "pre_actions": "1", "move": "r@12", "instance": "prb29027", "distance_to_goal": "NA", "progress": "NA", "move_number": "37", "optimal_length": "16", "subject": "A1LR0VQIHQUJAM:3YW4XOSQKRTI0K0Z2YPDTDJVFABU1I"}
{"meta_move": "drag_end", "rt": "3481.0", "trial_number": "1", "pre_actions": "1", "move": "5@0", "instance": "prb29027", "distance_to_goal": "NA", "progress": "NA", "move_number": "38", "optimal_length": "16", "subject": "A1LR0VQIHQUJAM:3YW4XOSQKRTI0K0Z2YPDTDJVFABU1I"}
{"meta_move": "drag_end", "rt": "482.0", "trial_number": "1", "pre_actions": "1", "move": "7@2", "instance": "prb29027", "distance_to_goal": "NA", "progress": "NA", "move_number": "39", "optimal_length": "16", "subject": "A1LR0VQIHQUJAM:3YW4XOSQKRTI0K0Z2YPDTDJVFABU1I"}
{"meta_move": "drag_end", "rt": "699.0", "trial_number": "1", "pre_actions": "1", "move": "1@4", "instance": "prb29027", "distance_to_goal": "NA", "progress": "NA", "move_number": "40", "optimal_length": "16", "subject": "A1LR0VQIHQUJAM:3YW4XOSQKRTI0K0Z2YPDTDJVFABU1I"}
{"meta_move": "drag_end", "rt": "754.0", "trial_number": "1", "pre_actions": "1", "move": "2@22", "instance": "prb29027", "distance_to_goal": "NA", "progress": "NA", "move_number": "41", "optimal_length": "16", "subject": "A1LR0VQIHQUJAM:3YW4XOSQKRTI0K0Z2YPDTDJVFABU1I"}
{"meta_move": "drag_end", "rt": "1654.0", "trial_number": "1", "pre_actions": "1", "move": "6@8", "instance": "prb29027", "distance_to_goal": "NA", "progress": "NA", "move_number": "42", "optimal_length": "16", "subject": "A1LR0VQIHQUJAM:3YW4XOSQKRTI0K0Z2YPDTDJVFABU1I"}
{"meta_move": "drag_end", "rt": "2571.0", "trial_number": "1", "pre_actions": "1", "move": "3@32", "instance": "prb29027", "distance_to_goal": "NA", "progress": "NA", "move_number": "43", "optimal_length": "16", "subject": "A1LR0VQIHQUJAM:3YW4XOSQKRTI0K0Z2YPDTDJVFABU1I"}
{"meta_move": "drag_end", "rt": "401.0", "trial_number": "1", "pre_actions": "1", "move": "0@26", "instance": "prb29027", "distance_to_goal": "NA", "progress": "NA", "move_number": "44", "optimal_length": "16", "subject": "A1LR0VQIHQUJAM:3YW4XOSQKRTI0K0Z2YPDTDJVFABU1I"}
{"meta_move": "drag_end", "rt": "513.0", "trial_number": "1", "pre_actions": "1", "move": "2@20", "instance": "prb29027", "distance_to_goal": "NA", "progress": "NA", "move_number": "45", "optimal_length": "16", "subject": "A1LR0VQIHQUJAM:3YW4XOSQKRTI0K0Z2YPDTDJVFABU1I"}
{"meta_move": "drag_end", "rt": "683.0", "trial_number": "1", "pre_actions": "1", "move": "1@16", "instance": "prb29027", "distance_to_goal": "NA", "progress": "NA", "move_number": "46", "optimal_length": "16", "subject": "A1LR0VQIHQUJAM:3YW4XOSQKRTI0K0Z2YPDTDJVFABU1I"}
{"meta_move": "drag_end", "rt": "1379.0", "trial_number": "1", "pre_actions": "1", "move": "7@4", "instance": "prb29027", "distance_to_goal": "NA", "progress": "NA", "move_number": "47", "optimal_length": "16", "subject": "A1LR0VQIHQUJAM:3YW4XOSQKRTI0K0Z2YPDTDJVFABU1I"}
{"meta_move": "drag_end", "rt": "751.0", "trial_number": "1", "pre_actions": "1", "move": "6@2", "instance": "prb29027", "distance_to_goal": "NA", "progress": "NA", "move_number": "48", "optimal_length": "16", "subject": "A1LR0VQIHQUJAM:3YW4XOSQKRTI0K0Z2YPDTDJVFABU1I"}
{"meta_move": "drag_end", "rt": "6147.0", "trial_number": "1", "pre_actions": "1", "move": "r@14", "instance": "prb29027", "distance_to_goal": "NA", "progress": "NA", "move_number": "49", "optimal_length": "16", "subject": "A1LR0VQIHQUJAM:3YW4XOSQKRTI0K0Z2YPDTDJVFABU1I"}
{"meta_move": "drag_end", "rt": "553.0", "trial_number": "1", "pre_actions": "1", "move": "4@7", "instance": "prb29027", "distance_to_goal": "NA", "progress": "NA", "move_number": "50", "optimal_length": "16", "subject": "A1LR0VQIHQUJAM:3YW4XOSQKRTI0K0Z2YPDTDJVFABU1I"}
{"meta_move": "drag_end", "rt": "767.0", "trial_number": "1", "pre_actions": "1", "move": "3@30", "instance": "prb29027", "distance_to_goal": "NA", "progress": "NA", "move_number": "51", "optimal_length": "16", "subject": "A1LR0VQIHQUJAM:3YW4XOSQKRTI0K0Z2YPDTDJVFABU1I"}
{"meta_move": "drag_end", "rt": "520.0", "trial_number": "1", "pre_actions": "1", "move": "0@24", "instance": "prb29027", "distance_to_goal": "NA", "progress": "NA", "move_number": "52", "optimal_length": "16", "subject": "A1LR0VQIHQUJAM:3YW4XOSQKRTI0K0Z2YPDTDJVFABU1I"}
{"meta_move": "drag_end", "rt": "734.0", "trial_number": "1", "pre_actions": "1", "move": "1@22", "instance": "prb29027", "distance_to_goal": "NA", "progress": "NA", "move_number": "53", "optimal_length": "16", "subject": "A1LR0VQIHQUJAM:3YW4XOSQKRTI0K0Z2YPDTDJVFABU1I"}
{"meta_move": "win", "rt": "576.0", "trial_number": "1", "pre_actions": "1", "move": "r@14", "instance": "prb29027", "distance_to_goal": "1", "progress": "NA", "move_number": "54", "optimal_length": "16", "subject": "A1LR0VQIHQUJAM:3YW4XOSQKRTI0K0Z2YPDTDJVFABU1I"}
{"meta_move": "drag_end", "rt": "66.0", "trial_number": "0", "pre_actions": "0", "move": "r@16", "instance": "prb29027", "distance_to_goal": "NA", "progress": "NA", "move_number": "54", "optimal_length": "16", "subject": "A1LR0VQIHQUJAM:3YW4XOSQKRTI0K0Z2YPDTDJVFABU1I"}
{"meta_move": "drag_end", "rt": "7693.0", "trial_number": "1", "pre_actions": "1", "move": "1@10", "instance": "prb29027", "distance_to_goal": "NA", "progress": "NA", "move_number": "0", "optimal_length": "16", "subject": "A214HWAW1PYWO8:34BBWHLWHBJ6SUL255PK30LEGY5IWG"}
{"meta_move": "drag_end", "rt": "4615.0", "trial_number": "1", "pre_actions": "1", "move": "7@3", "instance": "prb29027", "distance_to_goal": "NA", "progress": "NA", "move_number": "0", "optimal_length": "16", "subject": "A214HWAW1PYWO8:34BBWHLWHBJ6SUL255PK30LEGY5IWG"}
{"meta_move": "drag_end", "rt": "919.0", "trial_number": "1", "pre_actions": "1", "move": "4@7", "instance": "prb29027", "distance_to_goal": "NA", "progress": "NA", "move_number": "1", "optimal_length": "16", "subject": "A214HWAW1PYWO8:34BBWHLWHBJ6SUL255PK30LEGY5IWG"}
{"meta_move": "drag_end", "rt": "828.0", "trial_number": "1", "pre_actions": "1", "move": "4@19", "instance": "prb29027", "distance_to_goal": "NA", "progress": "NA", "move_number": "2", "optimal_length": "16", "subject": "A214HWAW1PYWO8:34BBWHLWHBJ6SUL255PK30LEGY5IWG"}
{"meta_move": "drag_end", "rt": "1028.0", "trial_number": "1", "pre_actions": "1", "move": "7@2", "instance": "prb29027", "distance_to_goal": "NA", "progress": "NA", "move_number": "3", "optimal_length": "16", "subject": "A214HWAW1PYWO8:34BBWHLWHBJ6SUL255PK30LEGY5IWG"}
{"meta_move": "drag_end", "rt": "891.0", "trial_number": "1", "pre_actions": "1", "move": "7@4", "instance": "prb29027", "distance_to_goal": "NA", "progress": "NA", "move_number": "4", "optimal_length": "16", "subject": "A214HWAW1PYWO8:34BBWHLWHBJ6SUL255PK30LEGY5IWG"}
{"meta_move": "drag_end", "rt": "1317.0", "trial_number": "1", "pre_actions": "1", "move": "5@2", "instance": "prb29027", "distance_to_goal": "NA", "progress": "NA", "move_number": "5", "optimal_length": "16", "subject": "A214HWAW1PYWO8:34BBWHLWHBJ6SUL255PK30LEGY5IWG"}
{"meta_move": "drag_end", "rt": "466.0", "trial_number": "1", "pre_actions": "1", "move": "4@1", "instance": "prb29027", "distance_to_goal": "NA", "progress": "NA", "move_number": "6", "optimal_length": "16", "subject": "A214HWAW1PYWO8:34BBWHLWHBJ6SUL255PK30LEGY5IWG"}
{"meta_move": "drag_end", "rt": "1088.0", "trial_number": "1", "pre_actions": "1", "move": "2@18", "instance": "prb29027", "distance_to_goal": "NA", "progress": "NA", "move_number": "7", "optimal_length": "16", "subject": "A214HWAW1PYWO8:34BBWHLWHBJ6SUL255PK30LEGY5IWG"}
{"meta_move": "drag_end", "rt": "1332.0", "trial_number": "1", "pre_actions": "1", "move": "6@20", "instance": "prb29027", "distance_to_goal": "NA", "progress": "NA", "move_number": "8", "optimal_length": "16", "subject": "A214HWAW1PYWO8:34BBWHLWHBJ6SUL255PK30LEGY5IWG"}
{"meta_move": "drag_end", "rt": "438.0", "trial_number": "1", "pre_actions": "1", "move": "3@30", "instance": "prb29027", "distance_to_goal": "NA", "progress": "NA", "move_number": "9", "optimal_length": "16", "subject": "A214HWAW1PYWO8:34BBWHLWHBJ6SUL255PK30LEGY5IWG"}
{"meta_move": "drag_end", "rt": "946.0", "trial_number": "1", "pre_actions": "1", "move": "0@27", "instance": "prb29027", "distance_to_goal": "NA", "progress": "NA", "move_number": "10", "optimal_length": "16", "subject": "A214HWAW1PYWO8:34BBWHLWHBJ6SUL255PK30LEGY5IWG"}
{"meta_move": "drag_end", "rt": "11398.0", "trial_number": "1", "pre_actions": "1", "move": "3@33", "instance": "prb29027", "distance_to_goal": "NA", "progress": "NA", "move_number": "10", "optimal_length": "16", "subject": "A214HWAW1PYWO8:34BBWHLWHBJ6SUL255PK30LEGY5IWG"}
{"meta_move": "drag_end", "rt": "1897.0", "trial_number": "1", "pre_actions": "1", "move": "6@26", "instance": "prb29027", "distance_to_goal": "NA", "progress": "NA", "move_number": "11", "optimal_length": "16", "subject": "A214HWAW1PYWO8:34BBWHLWHBJ6SUL255PK30LEGY5IWG"}
{"meta_move": "drag_end", "rt": "571.0", "trial_number": "1", "pre_actions": "1", "move": "2@20", "instance": "prb29027", "distance_to_goal": "NA", "progress": "NA", "move_number": "12", "optimal_length": "16", "subject": "A214HWAW1PYWO8:34BBWHLWHBJ6SUL255PK30LEGY5IWG"}
{"meta_move": "drag_end", "rt": "516.0", "trial_number": "1", "pre_actions": "1", "move": "4@19", "instance": "prb29027", "distance_to_goal": "NA", "progress": "NA", "move_number": "13", "optimal_length": "16", "subject": "A214HWAW1PYWO8:34BBWHLWHBJ6SUL255PK30LEGY5IWG"}
{"meta_move": "drag_end", "rt": "1488.0", "trial_number": "1", "pre_actions": "1", "move": "r@12", "instance": "prb29027", "distance_to_goal": "NA", "progress": "NA", "move_number": "14", "optimal_length": "16", "subject": "A214HWAW1PYWO8:34BBWHLWHBJ6SUL255PK30LEGY5IWG"}
{"meta_move": "drag_end", "rt": "882.0", "trial_number": "1", "pre_actions": "1", "move": "r@14", "instance": "prb29027", "distance_to_goal": "NA", "progress": "NA", "move_number": "15", "optimal_length": "16", "subject": "A214HWAW1PYWO8:34BBWHLWHBJ6SUL255PK30LEGY5IWG"}
{"meta_move": "drag_end", "rt": "1227.0", "trial_number": "1", "pre_actions": "1", "move": "5@1", "instance": "prb29027", "distance_to_goal": "NA", "progress": "NA", "move_number": "16", "optimal_length": "16", "subject": "A214HWAW1PYWO8:34BBWHLWHBJ6SUL255PK30LEGY5IWG"}
{"meta_move": "drag_end", "rt": "2686.0", "trial_number": "1", "pre_actions": "1", "move": "0@28", "instance": "prb29027", "distance_to_goal": "NA", "progress": "NA", "move_number": "17", "optimal_length": "16", "subject": "A214HWAW1PYWO8:34BBWHLWHBJ6SUL255PK30LEGY5IWG"}
{"meta_move": "drag_end", "rt": "566.0", "trial_number": "1", "pre_actions": "1", "move": "0@27", "instance": "prb29027", "distance_to_goal": "NA", "progress": "NA", "move_number": "18", "optimal_length": "16", "subject": "A214HWAW1PYWO8:34BBWHLWHBJ6SUL255PK30LEGY5IWG"}
{"meta_move": "drag_end", "rt": "1117.0", "trial_number": "1", "pre_actions": "1", "move": "r@12", "instance": "prb29027", "distance_to_goal": "NA", "progress": "NA", "move_number": "19", "optimal_length": "16", "subject": "A214HWAW1PYWO8:34BBWHLWHBJ6SUL255PK30LEGY5IWG"}
{"meta_move": "drag_end", "rt": "8554.0", "trial_number": "2", "pre_actions": "1", "move": "4@19", "instance": "prb29027", "distance_to_goal": "NA", "progress": "NA", "move_number": "0", "optimal_length": "16", "subject": "A214HWAW1PYWO8:34BBWHLWHBJ6SUL255PK30LEGY5IWG"}
{"meta_move": "drag_end", "rt": "631.0", "trial_number": "2", "pre_actions": "1", "move": "r@12", "instance": "prb29027", "distance_to_goal": "NA", "progress": "NA", "move_number": "1", "optimal_length": "16", "subject": "A214HWAW1PYWO8:34BBWHLWHBJ6SUL255PK30LEGY5IWG"}
{"meta_move": "drag_end", "rt": "747.0", "trial_number": "2", "pre_actions": "1", "move": "1@4", "instance": "prb29027", "distance_to_goal": "NA", "progress": "NA", "move_number": "2", "optimal_length": "16", "subject": "A214HWAW1PYWO8:34BBWHLWHBJ6SUL255PK30LEGY5IWG"}
{"meta_move": "drag_end", "rt": "588.0", "trial_number": "2", "pre_actions": "1", "move": "2@22", "instance": "prb29027", "distance_to_goal": "NA", "progress": "NA", "move_number": "3", "optimal_length": "16", "subject": "A214HWAW1PYWO8:34BBWHLWHBJ6SUL255PK30LEGY5IWG"}
{"meta_move": "drag_end", "rt": "680.0", "trial_number": "2", "pre_actions": "1", "move": "6@8", "instance": "prb29027", "distance_to_goal": "NA", "progress": "NA", "move_number": "4", "optimal_length": "16", "subject": "A214HWAW1PYWO8:34BBWHLWHBJ6SUL255PK30LEGY5IWG"}
{"meta_move": "drag_end", "rt": "1202.0", "trial_number": "2", "pre_actions": "1", "move": "0@26", "instance": "prb29027", "distance_to_goal": "NA", "progress": "NA", "move_number": "5", "optimal_length": "16", "subject": "A214HWAW1PYWO8:34BBWHLWHBJ6SUL255PK30LEGY5IWG"}
{"meta_move": "drag_end", "rt": "543.0", "trial_number": "2", "pre_actions": "1", "move": "3@32", "instance": "prb29027", "distance_to_goal": "NA", "progress": "NA", "move_number": "6", "optimal_length": "16", "subject": "A214HWAW1PYWO8:34BBWHLWHBJ6SUL255PK30LEGY5IWG"}
{"meta_move": "drag_end", "rt": "4696.0", "trial_number": "2", "pre_actions": "1", "move": "6@14", "instance": "prb29027", "distance_to_goal": "NA", "progress": "NA", "move_number": "7", "optimal_length": "16", "subject": "A214HWAW1PYWO8:34BBWHLWHBJ6SUL255PK30LEGY5IWG"}
{"meta_move": "drag_end", "rt": "795.0", "trial_number": "2", "pre_actions": "1", "move": "2@21", "instance": "prb29027", "distance_to_goal": "NA", "progress": "NA", "move_number": "8", "optimal_length": "16", "subject": "A214HWAW1PYWO8:34BBWHLWHBJ6SUL255PK30LEGY5IWG"}
{"meta_move": "drag_end", "rt": "1256.0", "trial_number": "2", "pre_actions": "1", "move": "2@22", "instance": "prb29027", "distance_to_goal": "NA", "progress": "NA", "move_number": "9", "optimal_length": "16", "subject": "A214HWAW1PYWO8:34BBWHLWHBJ6SUL255PK30LEGY5IWG"}
{"meta_move": "drag_end", "rt": "2743.0", "trial_number": "2", "pre_actions": "1", "move": "0@28", "instance": "prb29027", "distance_to_goal": "NA", "progress": "NA", "move_number": "10", "optimal_length": "16", "subject": "A214HWAW1PYWO8:34BBWHLWHBJ6SUL255PK30LEGY5IWG"}
{"meta_move": "drag_end", "rt": "584.0", "trial_number": "2", "pre_actions": "1", "move": "2@21", "instance": "prb29027", "distance_to_goal": "NA", "progress": "NA", "move_number": "11", "optimal_length": "16", "subject": "A214HWAW1PYWO8:34BBWHLWHBJ6SUL255PK30LEGY5IWG"}
{"meta_move": "drag_end", "rt": "631.0", "trial_number": "2", "pre_actions": "1", "move": "6@8", "instance": "prb29027", "distance_to_goal": "NA", "progress": "NA", "move_number": "12", "optimal_length": "16", "subject": "A214HWAW1PYWO8:34BBWHLWHBJ6SUL255PK30LEGY5IWG"}
{"meta_move": "drag_end", "rt": "419.0", "trial_number": "2", "pre_actions": "1", "move": "2@20", "instance": "prb29027", "distance_to_goal": "NA", "progress": "NA", "move_number": "13", "optimal_length": "16", "subject": "A214HWAW1PYWO8:34BBWHLWHBJ6SUL255PK30LEGY5IWG"}
{"meta_move": "drag_end", "rt": "431.0", "trial_number": "2", "pre_actions": "1", "move": "1@10", "instance": "prb29027", "distance_to_goal": "NA", "progress": "NA", "move_number": "14", "optimal_length": "16", "subject": "A214HWAW1PYWO8:34BBWHLWHBJ6SUL255PK30LEGY5IWG"}
{"meta_move": "drag_end", "rt": "557.0", "trial_number": "2", "pre_actions": "1", "move": "7@4", "instance": "prb29027", "distance_to_goal": "NA", "progress": "NA", "move_number": "15", "optimal_length": "16", "subject": "A214HWAW1PYWO8:34BBWHLWHBJ6SUL255PK30LEGY5IWG"}
{"meta_move": "drag_end", "rt": "700.0", "trial_number": "2", "pre_actions": "1", "move": "6@2", "instance": "prb29027", "distance_to_goal": "NA", "progress": "NA", "move_number": "16", "optimal_length": "16", "subject": "A214HWAW1PYWO8:34BBWHLWHBJ6SUL255PK30LEGY5IWG"}
{"meta_move": "drag_end", "rt": "549.0", "trial_number": "2", "pre_actions": "1", "move": "r@14", "instance": "prb29027", "distance_to_goal": "NA", "progress": "NA", "move_number": "17", "optimal_length": "16", "subject": "A214HWAW1PYWO8:34BBWHLWHBJ6SUL255PK30LEGY5IWG"}
{"meta_move": "drag_end", "rt": "634.0", "trial_number": "2", "pre_actions": "1", "move": "4@7", "instance": "prb29027", "distance_to_goal": "NA", "progress": "NA", "move_number": "18", "optimal_length": "16", "subject": "A214HWAW1PYWO8:34BBWHLWHBJ6SUL255PK30LEGY5IWG"}
{"meta_move": "drag_end", "rt": "640.0", "trial_number": "2", "pre_actions": "1", "move": "0@24", "instance": "prb29027", "distance_to_goal": "NA", "progress": "NA", "move_number": "19", "optimal_length": "16", "subject": "A214HWAW1PYWO8:34BBWHLWHBJ6SUL255PK30LEGY5IWG"}
{"meta_move": "drag_end", "rt": "395.0", "trial_number": "2", "pre_actions": "1", "move": "3@30", "instance": "prb29027", "distance_to_goal": "NA", "progress": "NA", "move_number": "20", "optimal_length": "16", "subject": "A214HWAW1PYWO8:34BBWHLWHBJ6SUL255PK30LEGY5IWG"}
{"meta_move": "drag_end", "rt": "462.0", "trial_number": "2", "pre_actions": "1", "move": "1@22", "instance": "prb29027", "distance_to_goal": "NA", "progress": "NA", "move_number": "21", "optimal_length": "16", "subject": "A214HWAW1PYWO8:34BBWHLWHBJ6SUL255PK30LEGY5IWG"}
{"meta_move": "win", "rt": "380.0", "trial_number": "2", "pre_actions": "1", "move": "r@14", "instance": "prb29027", "distance_to_goal": "1", "progress": "NA", "move_number": "22", "optimal_length": "16", "subject": "A214HWAW1PYWO8:34BBWHLWHBJ6SUL255PK30LEGY5IWG"}
{"meta_move": "drag_end", "rt": "39.0", "trial_number": "0", "pre_actions": "0", "move": "r@16", "instance": "prb29027", "distance_to_goal": "NA", "progress": "NA", "move_number": "22", "optimal_length": "16", "subject": "A214HWAW1PYWO8:34BBWHLWHBJ6SUL255PK30LEGY5IWG"}
{"meta_move": "drag_end", "rt": "1766.0", "trial_number": "1", "pre_actions": "1", "move": "1@4", "instance": "prb29027", "distance_to_goal": "NA", "progress": "NA", "move_number": "0", "optimal_length": "16", "subject": "A23437BMZ5T1FH:3IHR8NYAM89M0EPM8U9LH53ZJDTP4U"}
{"meta_move": "drag_end", "rt": "1208.0", "trial_number": "1", "pre_actions": "1", "move": "2@20", "instance": "prb29027", "distance_to_goal": "NA", "progress": "NA", "move_number": "1", "optimal_length": "16", "subject": "A23437BMZ5T1FH:3IHR8NYAM89M0EPM8U9LH53ZJDTP4U"}
{"meta_move": "drag_end", "rt": "546.0", "trial_number": "1", "pre_actions": "1", "move": "4@7", "instance": "prb29027", "distance_to_goal": "NA", "progress": "NA", "move_number": "1", "optimal_length": "16", "subject": "A23437BMZ5T1FH:3IHR8NYAM89M0EPM8U9LH53ZJDTP4U"}
{"meta_move": "drag_end", "rt": "805.0", "trial_number": "1", "pre_actions": "1", "move": "4@19", "instance": "prb29027", "distance_to_goal": "NA", "progress": "NA", "move_number": "2", "optimal_length": "16", "subject": "A23437BMZ5T1FH:3IHR8NYAM89M0EPM8U9LH53ZJDTP4U"}
{"meta_move": "drag_end", "rt": "561.0", "trial_number": "1", "pre_actions": "1", "move": "r@12", "instance": "prb29027", "distance_to_goal": "NA", "progress": "NA", "move_number": "3", "optimal_length": "16", "subject": "A23437BMZ5T1FH:3IHR8NYAM89M0EPM8U9LH53ZJDTP4U"}
{"meta_move": "drag_end", "rt": "984.0", "trial_number": "1", "pre_actions": "1", "move": "2@22", "instance": "prb29027", "distance_to_goal": "NA", "progress": "NA", "move_number": "4", "optimal_length": "16", "subject": "A23437BMZ5T1FH:3IHR8NYAM89M0EPM8U9LH53ZJDTP4U"}
{"meta_move": "drag_end", "rt": "1137.0", "trial_number": "1", "pre_actions": "1", "move": "r@14", "instance": "prb29027", "distance_to_goal": "NA", "progress": "NA", "move_number": "5", "optimal_length": "16", "subject": "A23437BMZ5T1FH:3IHR8NYAM89M0EPM8U9LH53ZJDTP4U"}
{"meta_move": "drag_end", "rt": "680.0", "trial_number": "1", "pre_actions": "1", "move": "4@7", "instance": "prb29027", "distance_to_goal": "NA", "progress": "NA", "move_number": "6", "optimal_length": "16", "subject": "A23437BMZ5T1FH:3IHR8NYAM89M0EPM8U9LH53ZJDTP4U"}
{"meta_move": "drag_end", "rt": "3207.0", "trial_number": "1", "pre_actions": "1", "move": "6@20", "instance": "prb29027", "distance_to_goal": "NA", "progress": "NA", "move_number": "7", "optimal_length": "16", "subject": "A23437BMZ5T1FH:3IHR8NYAM89M0EPM8U9LH53ZJDTP4U"}
{"meta_move": "drag_end", "rt": "936.0", "trial_number": "1", "pre_actions": "1", "move": "3@30", "instance": "prb29027", "distance_to_goal": "NA", "progress": "NA", "move_number": "8", "optimal_length": "16", "subject": "A23437BMZ5T1FH:3IHR8NYAM89M0EPM8U9LH53ZJDTP4U"}
{"meta_move": "drag_end", "rt": "930.0", "trial_number": "1", "pre_actions": "1", "move": "0@28", "instance": "prb29027", "distance_to_goal": "NA", "progress": "NA", "move_number": "9", "optimal_length": "16", "subject": "A23437BMZ5T1FH:3IHR8NYAM89M0EPM8U9LH53ZJDTP4U"}
{"meta_move": "drag_end", "rt": "1495.0", "trial_number": "1", "pre_actions": "1", "move": "3@30", "instance": "prb29027", "distance_to_goal": "NA", "progress": "NA", "move_number": "10", "optimal_length": "16", "subject": "A23437BMZ5T1FH:3IHR8NYAM89M0EPM8U9LH53ZJDTP4U"}
{"meta_move": "drag_end", "rt": "1224.0", "trial_number": "1", "pre_actions": "1", "move": "3@30", "instance": "prb29027", "distance_to_goal": "NA", "progress": "NA", "move_number": "10", "optimal_length": "16", "subject": "A23437BMZ5T1FH:3IHR8NYAM89M0EPM8U9LH53ZJDTP4U"}
{"meta_move": "drag_end", "rt": "591.0", "trial_number": "1", "pre_actions": "1", "move": "4@13", "instance": "prb29027", "distance_to_goal": "NA", "progress": "NA", "move_number": "10", "optimal_length": "16", "subject": "A23437BMZ5T1FH:3IHR8NYAM89M0EPM8U9LH53ZJDTP4U"}
{"meta_move": "drag_end", "rt": "1553.0", "trial_number": "1", "pre_actions": "1", "move": "0@27", "instance": "prb29027", "distance_to_goal": "NA", "progress": "NA", "move_number": "11", "optimal_length": "16", "subject": "A23437BMZ5T1FH:3IHR8NYAM89M0EPM8U9LH53ZJDTP4U"}
{"meta_move": "drag_end", "rt": "1791.0", "trial_number": "1", "pre_actions": "1", "move": "0@28", "instance": "prb29027", "distance_to_goal": "NA", "progress": "NA", "move_number": "12", "optimal_length": "16", "subject": "A23437BMZ5T1FH:3IHR8NYAM89M0EPM8U9LH53ZJDTP4U"}
{"meta_move": "drag_end", "rt": "1073.0", "trial_number": "1", "pre_actions": "1", "move": "4@7", "instance": "prb29027", "distance_to_goal": "NA", "progress": "NA", "move_number": "13", "optimal_length": "16", "subject": "A23437BMZ5T1FH:3IHR8NYAM89M0EPM8U9LH53ZJDTP4U"}
{"meta_move": "drag_end", "rt": "919.0", "trial_number": "1", "pre_actions": "1", "move": "3@33", "instance": "prb29027", "distance_to_goal": "NA", "progress": "NA", "move_number": "14", "optimal_length": "16", "subject": "A23437BMZ5T1FH:3IHR8NYAM89M0EPM8U9LH53ZJDTP4U"}
{"meta_move": "drag_end", "rt": "864.0", "trial_number": "1", "pre_actions": "1", "move": "4@19", "instance": "prb29027", "distance_to_goal": "NA", "progress": "NA", "move_number": "15", "optimal_length": "16", "subject": "A23437BMZ5T1FH:3IHR8NYAM89M0EPM8U9LH53ZJDTP4U"}
{"meta_move": "drag_end", "rt": "897.0", "trial_number": "1", "pre_actions": "1", "move": "r@12", "instance": "prb29027", "distance_to_goal": "NA", "progress": "NA", "move_number": "16", "optimal_length": "16", "subject": "A23437BMZ5T1FH:3IHR8NYAM89M0EPM8U9LH53ZJDTP4U"}
{"meta_move": "drag_end", "rt": "864.0", "trial_number": "1", "pre_actions": "1", "move": "6@8", "instance": "prb29027", "distance_to_goal": "NA", "progress": "NA", "move_number": "17", "optimal_length": "16", "subject": "A23437BMZ5T1FH:3IHR8NYAM89M0EPM8U9LH53ZJDTP4U"}
{"meta_move": "drag_end", "rt": "2630.0", "trial_number": "1", "pre_actions": "1", "move": "0@26", "instance": "prb29027", "distance_to_goal": "NA", "progress": "NA", "move_number": "18", "optimal_length": "16", "subject": "A23437BMZ5T1FH:3IHR8NYAM89M0EPM8U9LH53ZJDTP4U"}
{"meta_move": "drag_end", "rt": "961.0", "trial_number": "1", "pre_actions": "1", "move": "2@20", "instance": "prb29027", "distance_to_goal": "NA", "progress": "NA", "move_number": "19", "optimal_length": "16", "subject": "A23437BMZ5T1FH:3IHR8NYAM89M0EPM8U9LH53ZJDTP4U"}
{"meta_move": "drag_end", "rt": "913.0", "trial_number": "1", "pre_actions": "1", "move": "1@16", "instance": "prb29027", "distance_to_goal": "NA", "progress": "NA", "move_number": "20", "optimal_length": "16", "subject": "A23437BMZ5T1FH:3IHR8NYAM89M0EPM8U9LH53ZJDTP4U"}
{"meta_move": "drag_end", "rt": "1119.0", "trial_number": "1", "pre_actions": "1", "move": "7@4", "instance": "prb29027", "distance_to_goal": "NA", "progress": "NA", "move_number": "21", "optimal_length": "16", "subject": "A23437BMZ5T1FH:3IHR8NYAM89M0EPM8U9LH53ZJDTP4U"}
{"meta_move": "drag_end", "rt": "635.0", "trial_number": "1", "pre_actions": "1", "move": "6@2", "instance": "prb29027", "distance_to_goal": "NA", "progress": "NA", "move_number": "22", "optimal_length": "16", "subject": "A23437BMZ5T1FH:3IHR8NYAM89M0EPM8U9LH53ZJDTP4U"}
{"meta_move": "drag_end", "rt": "789.0", "trial_number": "1", "pre_actions": "1", "move": "r@14", "instance": "prb29027", "distance_to_goal": "NA", "progress": "NA", "move_number": "23", "optimal_length": "16", "subject": "A23437BMZ5T1FH:3IHR8NYAM89M0EPM8U9LH53ZJDTP4U"}
{"meta_move": "drag_end", "rt": "1696.0", "trial_number": "1", "pre_actions": "1", "move": "4@7", "instance": "prb29027", "distance_to_goal": "NA", "progress": "NA", "move_number": "24", "optimal_length": "16", "subject": "A23437BMZ5T1FH:3IHR8NYAM89M0EPM8U9LH53ZJDTP4U"}
{"meta_move": "drag_end", "rt": "648.0", "trial_number": "1", "pre_actions": "1", "move": "0@24", "instance": "prb29027", "distance_to_goal": "NA", "progress": "NA", "move_number": "25", "optimal_length": "16", "subject": "A23437BMZ5T1FH:3IHR8NYAM89M0EPM8U9LH53ZJDTP4U"}
{"meta_move": "drag_end", "rt": "810.0", "trial_number": "1", "pre_actions": "1", "move": "1@10", "instance": "prb29027", "distance_to_goal": "NA", "progress": "NA", "move_number": "26", "optimal_length": "16", "subject": "A23437BMZ5T1FH:3IHR8NYAM89M0EPM8U9LH53ZJDTP4U"}
{"meta_move": "drag_end", "rt": "918.0", "trial_number": "1", "pre_actions": "1", "move": "3@30", "instance": "prb29027", "distance_to_goal": "NA", "progress": "NA", "move_number": "27", "optimal_length": "16", "subject": "A23437BMZ5T1FH:3IHR8NYAM89M0EPM8U9LH53ZJDTP4U"}
{"meta_move": "drag_end", "rt": "808.0", "trial_number": "1", "pre_actions": "1", "move": "1@22", "instance": "prb29027", "distance_to_goal": "NA", "progress": "NA", "move_number": "28", "optimal_length": "16", "subject": "A23437BMZ5T1FH:3IHR8NYAM89M0EPM8U9LH53ZJDTP4U"}
{"meta_move": "win", "rt": "521.0", "trial_number": "1", "pre_actions": "1", "move": "r@14", "instance": "prb29027", "distance_to_goal": "1", "progress": "NA", "move_number": "29", "optimal_length": "16", "subject": "A23437BMZ5T1FH:3IHR8NYAM89M0EPM8U9LH53ZJDTP4U"}
{"meta_move": "drag_end", "rt": "86.0", "trial_number": "0", "pre_actions": "0", "move": "r@16", "instance": "prb29027", "distance_to_goal": "NA", "progress": "NA", "move_number": "29", "optimal_length": "16", "subject": "A23437BMZ5T1FH:3IHR8NYAM89M0EPM8U9LH53ZJDTP4U"}
{"meta_move": "drag_end", "rt": "9360.0", "trial_number": "1", "pre_actions": "1", "move": "7@3", "instance": "prb29027", "distance_to_goal": "NA", "progress": "NA", "move_number": "0", "optimal_length": "16", "subject": "A2MYB6MLQW0IGN:3TYCR1GOTDRCCQYD1V64UK7OE48LZS"}
{"meta_move": "drag_end", "rt": "215.0", "trial_number": "1", "pre_actions": "1", "move": "7@3", "instance": "prb29027", "distance_to_goal": "NA", "progress": "NA", "move_number": "1", "optimal_length": "16", "subject": "A2MYB6MLQW0IGN:3TYCR1GOTDRCCQYD1V64UK7OE48LZS"}
{"meta_move": "drag_end", "rt": "1634.0", "trial_number": "1", "pre_actions": "1", "move": "7@4", "instance": "prb29027", "distance_to_goal": "NA", "progress": "NA", "move_number": "1", "optimal_length": "16", "subject": "A2MYB6MLQW0IGN:3TYCR1GOTDRCCQYD1V64UK7OE48LZS"}
{"meta_move": "drag_end", "rt": "1417.0", "trial_number": "1", "pre_actions": "1", "move": "5@2", "instance": "prb29027", "distance_to_goal": "NA", "progress": "NA", "move_number": "2", "optimal_length": "16", "subject": "A2MYB6MLQW0IGN:3TYCR1GOTDRCCQYD1V64UK7OE48LZS"}
{"meta_move": "drag_end", "rt": "1115.0", "trial_number": "1", "pre_actions": "1", "move": "4@1", "instance": "prb29027", "distance_to_goal": "NA", "progress": "NA", "move_number": "3", "optimal_length": "16", "subject": "A2MYB6MLQW0IGN:3TYCR1GOTDRCCQYD1V64UK7OE48LZS"}
{"meta_move": "drag_end", "rt": "1056.0", "trial_number": "1", "pre_actions": "1", "move": "2@18", "instance": "prb29027", "distance_to_goal": "NA", "progress": "NA", "move_number": "4", "optimal_length": "16", "subject": "A2MYB6MLQW0IGN:3TYCR1GOTDRCCQYD1V64UK7OE48LZS"}
{"meta_move": "drag_end", "rt": "1689.0", "trial_number": "1", "pre_actions": "1", "move": "6@20", "instance": "prb29027", "distance_to_goal": "NA", "progress": "NA", "move_number": "5", "optimal_length": "16", "subject": "A2MYB6MLQW0IGN:3TYCR1GOTDRCCQYD1V64UK7OE48LZS"}
{"meta_move": "drag_end", "rt": "994.0", "trial_number": "1", "pre_actions": "1", "move": "3@30", "instance": "prb29027", "distance_to_goal": "NA", "progress": "NA", "move_number": "6", "optimal_length": "16", "subject": "A2MYB6MLQW0IGN:3TYCR1GOTDRCCQYD1V64UK7OE48LZS"}
{"meta_move": "drag_end", "rt": "1306.0", "trial_number": "1", "pre_actions": "1", "move": "0@28", "instance": "prb29027", "distance_to_goal": "NA", "progress": "NA", "move_number": "7", "optimal_length": "16", "subject": "A2MYB6MLQW0IGN:3TYCR1GOTDRCCQYD1V64UK7OE48LZS"}
{"meta_move": "drag_end", "rt": "4954.0", "trial_number": "1", "pre_actions": "1", "move": "3@33", "instance": "prb29027", "distance_to_goal": "NA", "progress": "NA", "move_number": "8", "optimal_length": "16", "subject": "A2MYB6MLQW0IGN:3TYCR1GOTDRCCQYD1V64UK7OE48LZS"}
{"meta_move": "drag_end", "rt": "935.0", "trial_number": "1", "pre_actions": "1", "move": "6@26", "instance": "prb29027", "distance_to_goal": "NA", "progress": "NA", "move_number": "9", "optimal_length": "16", "subject": "A2MYB6MLQW0IGN:3TYCR1GOTDRCCQYD1V64UK7OE48LZS"}
{"meta_move": "drag_end", "rt": "1337.0", "trial_number": "1", "pre_actions": "1", "move": "2@20", "instance": "prb29027", "distance_to_goal": "NA", "progress": "NA", "move_number": "10", "optimal_length": "16", "subject": "A2MYB6MLQW0IGN:3TYCR1GOTDRCCQYD1V64UK7OE48LZS"}
{"meta_move": "drag_end", "rt": "1678.0", "trial_number": "1", "pre_actions": "1", "move": "4@19", "instance": "prb29027", "distance_to_goal": "NA", "progress": "NA", "move_number": "11", "optimal_length": "16", "subject": "A2MYB6MLQW0IGN:3TYCR1GOTDRCCQYD1V64UK7OE48LZS"}
{"meta_move": "drag_end", "rt": "1106.0", "trial_number": "1", "pre_actions": "1", "move": "r@12", "instance": "prb29027", "distance_to_goal": "NA", "progress": "NA", "move_number": "12", "optimal_length": "16", "subject": "A2MYB6MLQW0IGN:3TYCR1GOTDRCCQYD1V64UK7OE48LZS"}
{"meta_move": "drag_end", "rt": "1237.0", "trial_number": "1", "pre_actions": "1", "move": "5@0", "instance": "prb29027", "distance_to_goal": "NA", "progress": "NA", "move_number": "13", "optimal_length": "16", "subject": "A2MYB6MLQW0IGN:3TYCR1GOTDRCCQYD1V64UK7OE48LZS"}
{"meta_move": "drag_end", "rt": "1266.0", "trial_number": "1", "pre_actions": "1", "move": "7@2", "instance": "prb29027", "distance_to_goal": "NA", "progress": "NA", "move_number": "14", "optimal_length": "16", "subject": "A2MYB6MLQW0IGN:3TYCR1GOTDRCCQYD1V64UK7OE48LZS"}
{"meta_move": "drag_end", "rt": "1020.0", "trial_number": "1", "pre_actions": "1", "move": "1@4", "instance": "prb29027", "distance_to_goal": "NA", "progress": "NA", "move_number": "15", "optimal_length": "16", "subject": "A2MYB6MLQW0IGN:3TYCR1GOTDRCCQYD1V64UK7OE48LZS"}
{"meta_move": "drag_end", "rt": "1048.0", "trial_number": "1", "pre_actions": "1", "move": "2@22", "instance": "prb29027", "distance_to_goal": "NA", "progress": "NA", "move_number": "16", "optimal_length": "16", "subject": "A2MYB6MLQW0IGN:3TYCR1GOTDRCCQYD1V64UK7OE48LZS"}
{"meta_move": "drag_end", "rt": "1076.0", "trial_number": "1", "pre_actions": "1", "move": "6@8", "instance": "prb29027", "distance_to_goal": "NA", "progress": "NA", "move_number": "17", "optimal_length": "16", "subject": "A2MYB6MLQW0IGN:3TYCR1GOTDRCCQYD1V64UK7OE48LZS"}
{"meta_move": "drag_end", "rt": "2301.0", "trial_number": "1", "pre_actions": "1", "move": "2@20", "instance": "prb29027", "distance_to_goal": "NA", "progress": "NA", "move_number": "18", "optimal_length": "16", "subject": "A2MYB6MLQW0IGN:3TYCR1GOTDRCCQYD1V64UK7OE48LZS"}
{"meta_move": "drag_end", "rt": "1327.0", "trial_number": "1", "pre_actions": "1", "move": "0@26", "instance": "prb29027", "distance_to_goal": "NA", "progress": "NA", "move_number": "19", "optimal_length": "16", "subject": "A2MYB6MLQW0IGN:3TYCR1GOTDRCCQYD1V64UK7OE48LZS"}
{"meta_move": "drag_end", "rt": "1014.0", "trial_number": "1", "pre_actions": "1", "move": "1@16", "instance": "prb29027", "distance_to_goal": "NA", "progress": "NA", "move_number": "20", "optimal_length": "16", "subject": "A2MYB6MLQW0IGN:3TYCR1GOTDRCCQYD1V64UK7OE48LZS"}
{"meta_move": "drag_end", "rt": "1257.0", "trial_number": "1", "pre_actions": "1", "move": "7@4", "instance": "prb29027", "distance_to_goal": "NA", "progress": "NA", "move_number": "21", "optimal_length": "16", "subject": "A2MYB6MLQW0IGN:3TYCR1GOTDRCCQYD1V64UK7OE48LZS"}
{"meta_move": "drag_end", "rt": "1115.0", "trial_number": "1", "pre_actions": "1", "move": "6@2", "instance": "prb29027", "distance_to_goal": "NA", "progress": "NA", "move_number": "22", "optimal_length": "16", "subject": "A2MYB6MLQW0IGN:3TYCR1GOTDRCCQYD1V64UK7OE48LZS"}
{"meta_move": "drag_end", "rt": "1438.0", "trial_number": "1", "pre_actions": "1", "move": "r@14", "instance": "prb29027", "distance_to_goal": "NA", "progress": "NA", "move_number": "23", "optimal_length": "16", "subject": "A2MYB6MLQW0IGN:3TYCR1GOTDRCCQYD1V64UK7OE48LZS"}
{"meta_move": "drag_end", "rt": "1027.0", "trial_number": "1", "pre_actions": "1", "move": "4@7", "instance": "prb29027", "distance_to_goal": "NA", "progress": "NA", "move_number": "24", "optimal_length": "16", "subject": "A2MYB6MLQW0IGN:3TYCR1GOTDRCCQYD1V64UK7OE48LZS"}
{"meta_move": "drag_end", "rt": "2452.0", "trial_number": "1", "pre_actions": "1", "move": "0@24", "instance": "prb29027", "distance_to_goal": "NA", "progress": "NA", "move_number": "25", "optimal_length": "16", "subject": "A2MYB6MLQW0IGN:3TYCR1GOTDRCCQYD1V64UK7OE48LZS"}
{"meta_move": "drag_end", "rt": "1424.0", "trial_number": "1", "pre_actions": "1", "move": "1@10", "instance": "prb29027", "distance_to_goal": "NA", "progress": "NA", "move_number": "26", "optimal_length": "16", "subject": "A2MYB6MLQW0IGN:3TYCR1GOTDRCCQYD1V64UK7OE48LZS"}
{"meta_move": "drag_end", "rt": "5080.0", "trial_number": "1", "pre_actions": "1", "move": "3@30", "instance": "prb29027", "distance_to_goal": "NA", "progress": "NA", "move_number": "27", "optimal_length": "16", "subject": "A2MYB6MLQW0IGN:3TYCR1GOTDRCCQYD1V64UK7OE48LZS"}
{"meta_move": "drag_end", "rt": "1068.0", "trial_number": "1", "pre_actions": "1", "move": "1@22", "instance": "prb29027", "distance_to_goal": "NA", "progress": "NA", "move_number": "28", "optimal_length": "16", "subject": "A2MYB6MLQW0IGN:3TYCR1GOTDRCCQYD1V64UK7OE48LZS"}
{"meta_move": "win", "rt": "860.0", "trial_number": "1", "pre_actions": "1", "move": "r@14", "instance": "prb29027", "distance_to_goal": "1", "progress": "NA", "move_number": "29", "optimal_length": "16", "subject": "A2MYB6MLQW0IGN:3TYCR1GOTDRCCQYD1V64UK7OE48LZS"}
{"meta_move": "drag_end", "rt": "127.0", "trial_number": "0", "pre_actions": "0", "move": "r@16", "instance": "prb29027", "distance_to_goal": "NA", "progress": "NA", "move_number": "29", "optimal_length": "16", "subject": "A2MYB6MLQW0IGN:3TYCR1GOTDRCCQYD1V64UK7OE48LZS"}
{"meta_move": "drag_end", "rt": "2797.0", "trial_number": "1", "pre_actions": "1", "move": "4@7", "instance": "prb29027", "distance_to_goal": "NA", "progress": "NA", "move_number": "0", "optimal_length": "16", "subject": "A2RTJ6BDY0DZVZ:3IJXV6UZ1YR1KY4G6BFEG1DXP7SRI1"}
{"meta_move": "drag_end", "rt": "2152.0", "trial_number": "1", "pre_actions": "1", "move": "1@10", "instance": "prb29027", "distance_to_goal": "NA", "progress": "NA", "move_number": "1", "optimal_length": "16", "subject": "A2RTJ6BDY0DZVZ:3IJXV6UZ1YR1KY4G6BFEG1DXP7SRI1"}
{"meta_move": "drag_end", "rt": "1578.0", "trial_number": "1", "pre_actions": "1", "move": "4@19", "instance": "prb29027", "distance_to_goal": "NA", "progress": "NA", "move_number": "1", "optimal_length": "16", "subject": "A2RTJ6BDY0DZVZ:3IJXV6UZ1YR1KY4G6BFEG1DXP7SRI1"}
{"meta_move": "drag_end", "rt": "1185.0", "trial_number": "1", "pre_actions": "1", "move": "r@12", "instance": "prb29027", "distance_to_goal": "NA", "progress": "NA", "move_number": "2", "optimal_length": "16", "subject": "A2RTJ6BDY0DZVZ:3IJXV6UZ1YR1KY4G6BFEG1DXP7SRI1"}
{"meta_move": "drag_end", "rt": "1282.0", "trial_number": "1", "pre_actions": "1", "move": "1@4", "instance": "prb29027", "distance_to_goal": "NA", "progress": "NA", "move_number": "3", "optimal_length": "16", "subject": "A2RTJ6BDY0DZVZ:3IJXV6UZ1YR1KY4G6BFEG1DXP7SRI1"}
{"meta_move": "drag_end", "rt": "901.0", "trial_number": "1", "pre_actions": "1", "move": "2@22", "instance": "prb29027", "distance_to_goal": "NA", "progress": "NA", "move_number": "4", "optimal_length": "16", "subject": "A2RTJ6BDY0DZVZ:3IJXV6UZ1YR1KY4G6BFEG1DXP7SRI1"}
{"meta_move": "drag_end", "rt": "1617.0", "trial_number": "1", "pre_actions": "1", "move": "6@8", "instance": "prb29027", "distance_to_goal": "NA", "progress": "NA", "move_number": "5", "optimal_length": "16", "subject": "A2RTJ6BDY0DZVZ:3IJXV6UZ1YR1KY4G6BFEG1DXP7SRI1"}
{"meta_move": "drag_end", "rt": "1962.0", "trial_number": "1", "pre_actions": "1", "move": "0@26", "instance": "prb29027", "distance_to_goal": "NA", "progress": "NA", "move_number": "6", "optimal_length": "16", "subject": "A2RTJ6BDY0DZVZ:3IJXV6UZ1YR1KY4G6BFEG1DXP7SRI1"}
{"meta_move": "drag_end", "rt": "1026.0", "trial_number": "1", "pre_actions": "1", "move": "3@32", "instance": "prb29027", "distance_to_goal": "NA", "progress": "NA", "move_number": "7", "optimal_length": "16", "subject": "A2RTJ6BDY0DZVZ:3IJXV6UZ1YR1KY4G6BFEG1DXP7SRI1"}
{"meta_move": "drag_end", "rt": "1760.0", "trial_number": "1", "pre_actions": "1", "move": "2@20", "instance": "prb29027", "distance_to_goal": "NA", "progress": "NA", "move_number": "8", "optimal_length": "16", "subject": "A2RTJ6BDY0DZVZ:3IJXV6UZ1YR1KY4G6BFEG1DXP7SRI1"}
{"meta_move": "drag_end", "rt": "1200.0", "trial_number": "1", "pre_actions": "1", "move": "1@16", "instance": "prb29027", "distance_to_goal": "NA", "progress": "NA", "move_number": "9", "optimal_length": "16", "subject": "A2RTJ6BDY0DZVZ:3IJXV6UZ1YR1KY4G6BFEG1DXP7SRI1"}
{"meta_move": "drag_end", "rt": "1218.0", "trial_number": "1", "pre_actions": "1", "move": "7@4", "instance": "prb29027", "distance_to_goal": "NA", "progress": "NA", "move_number": "10", "optimal_length": "16", "subject": "A2RTJ6BDY0DZVZ:3IJXV6UZ1YR1KY4G6BFEG1DXP7SRI1"}
{"meta_move": "drag_end", "rt": "1120.0", "trial_number": "1", "pre_actions": "1", "move": "6@2", "instance": "prb29027", "distance_to_goal": "NA", "progress": "NA", "move_number": "11", "optimal_length": "16", "subject": "A2RTJ6BDY0DZVZ:3IJXV6UZ1YR1KY4G6BFEG1DXP7SRI1"}
{"meta_move": "drag_end", "rt": "2360.0", "trial_number": "1", "pre_actions": "1", "move": "r@14", "instance": "prb29027", "distance_to_goal": "NA", "progress": "NA", "move_number": "12", "optimal_length": "16", "subject": "A2RTJ6BDY0DZVZ:3IJXV6UZ1YR1KY4G6BFEG1DXP7SRI1"}
{"meta_move": "drag_end", "rt": "1486.0", "trial_number": "1", "pre_actions": "1", "move": "4@7", "instance": "prb29027", "distance_to_goal": "NA", "progress": "NA", "move_number": "13", "optimal_length": "16", "subject": "A2RTJ6BDY0DZVZ:3IJXV6UZ1YR1KY4G6BFEG1DXP7SRI1"}
{"meta_move": "drag_end", "rt": "1271.0", "trial_number": "1", "pre_actions": "1", "move": "0@24", "instance": "prb29027", "distance_to_goal": "NA", "progress": "NA", "move_number": "14", "optimal_length": "16", "subject": "A2RTJ6BDY0DZVZ:3IJXV6UZ1YR1KY4G6BFEG1DXP7SRI1"}
{"meta_move": "drag_end", "rt": "1377.0", "trial_number": "1", "pre_actions": "1", "move": "3@30", "instance": "prb29027", "distance_to_goal": "NA", "progress": "NA", "move_number": "15", "optimal_length": "16", "subject": "A2RTJ6BDY0DZVZ:3IJXV6UZ1YR1KY4G6BFEG1DXP7SRI1"}
{"meta_move": "drag_end", "rt": "1248.0", "trial_number": "1", "pre_actions": "1", "move": "1@22", "instance": "prb29027", "distance_to_goal": "NA", "progress": "NA", "move_number": "16", "optimal_length": "16", "subject": "A2RTJ6BDY0DZVZ:3IJXV6UZ1YR1KY4G6BFEG1DXP7SRI1"}
{"meta_move": "drag_end", "rt": "2980.0", "trial_number": "1", "pre_actions": "1", "move": "1@22", "instance": "prb29027", "distance_to_goal": "NA", "progress": "NA", "move_number": "17", "optimal_length": "16", "subject": "A2RTJ6BDY0DZVZ:3IJXV6UZ1YR1KY4G6BFEG1DXP7SRI1"}
{"meta_move": "win", "rt": "2700.0", "trial_number": "1", "pre_actions": "1", "move": "r@14", "instance": "prb29027", "distance_to_goal": "1", "progress": "NA", "move_number": "17", "optimal_length": "16", "subject": "A2RTJ6BDY0DZVZ:3IJXV6UZ1YR1KY4G6BFEG1DXP7SRI1"}
{"meta_move": "drag_end", "rt": "675.0", "trial_number": "0", "pre_actions": "0", "move": "r@16", "instance": "prb29027", "distance_to_goal": "NA", "progress": "NA", "move_number": "17", "optimal_length": "16", "subject": "A2RTJ6BDY0DZVZ:3IJXV6UZ1YR1KY4G6BFEG1DXP7SRI1"}
{"meta_move": "drag_end", "rt": "1477.0", "trial_number": "1", "pre_actions": "1", "move": "4@7", "instance": "prb29027", "distance_to_goal": "NA", "progress": "NA", "move_number": "0", "optimal_length": "16", "subject": "A2TQNX64349OZ9:3WSELTNVR4AZUVYAYCSWZIQW0J4ATB"}
{"meta_move": "drag_end", "rt": "3127.0", "trial_number": "1", "pre_actions": "1", "move": "1@4", "instance": "prb29027", "distance_to_goal": "NA", "progress": "NA", "move_number": "1", "optimal_length": "16", "subject": "A2TQNX64349OZ9:3WSELTNVR4AZUVYAYCSWZIQW0J4ATB"}
{"meta_move": "drag_end", "rt": "811.0", "trial_number": "1", "pre_actions": "1", "move": "2@22", "instance": "prb29027", "distance_to_goal": "NA", "progress": "NA", "move_number": "2", "optimal_length": "16", "subject": "A2TQNX64349OZ9:3WSELTNVR4AZUVYAYCSWZIQW0J4ATB"}
{"meta_move": "drag_end", "rt": "917.0", "trial_number": "1", "pre_actions": "1", "move": "6@20", "instance": "prb29027", "distance_to_goal": "NA", "progress": "NA", "move_number": "3", "optimal_length": "16", "subject": "A2TQNX64349OZ9:3WSELTNVR4AZUVYAYCSWZIQW0J4ATB"}
{"meta_move": "drag_end", "rt": "766.0", "trial_number": "1", "pre_actions": "1", "move": "3@30", "instance": "prb29027", "distance_to_goal": "NA", "progress": "NA", "move_number": "4", "optimal_length": "16", "subject": "A2TQNX64349OZ9:3WSELTNVR4AZUVYAYCSWZIQW0J4ATB"}
{"meta_move": "drag_end", "rt": "1114.0", "trial_number": "1", "pre_actions": "1", "move": "0@28", "instance": "prb29027", "distance_to_goal": "NA", "progress": "NA", "move_number": "5", "optimal_length": "16", "subject": "A2TQNX64349OZ9:3WSELTNVR4AZUVYAYCSWZIQW0J4ATB"}
{"meta_move": "drag_end", "rt": "860.0", "trial_number": "1", "pre_actions": "1", "move": "6@20", "instance": "prb29027", "distance_to_goal": "NA", "progress": "NA", "move_number": "6", "optimal_length": "16", "subject": "A2TQNX64349OZ9:3WSELTNVR4AZUVYAYCSWZIQW0J4ATB"}
{"meta_move": "drag_end", "rt": "867.0", "trial_number": "1", "pre_actions": "1", "move": "1@4", "instance": "prb29027", "distance_to_goal": "NA", "progress": "NA", "move_number": "6", "optimal_length": "16", "subject": "A2TQNX64349OZ9:3WSELTNVR4AZUVYAYCSWZIQW0J4ATB"}
{"meta_move": "drag_end", "rt": "712.0", "trial_number": "1", "pre_actions": "1", "move": "4@13", "instance": "prb29027", "distance_to_goal": "NA", "progress": "NA", "move_number": "6", "optimal_length": "16", "subject": "A2TQNX64349OZ9:3WSELTNVR4AZUVYAYCSWZIQW0J4ATB"}
{"meta_move": "drag_end", "rt": "1279.0", "trial_number": "1", "pre_actions": "1", "move": "5@0", "instance": "prb29027", "distance_to_goal": "NA", "progress": "NA", "move_number": "7", "optimal_length": "16", "subject": "A2TQNX64349OZ9:3WSELTNVR4AZUVYAYCSWZIQW0J4ATB"}
{"meta_move": "drag_end", "rt": "758.0", "trial_number": "1", "pre_actions": "1", "move": "1@4", "instance": "prb29027", "distance_to_goal": "NA", "progress": "NA", "move_number": "7", "optimal_length": "16", "subject": "A2TQNX64349OZ9:3WSELTNVR4AZUVYAYCSWZIQW0J4ATB"}
{"meta_move": "drag_end", "rt": "1687.0", "trial_number": "2", "pre_actions": "1", "move": "0@28", "instance": "prb29027", "distance_to_goal": "NA", "progress": "NA", "move_number": "0", "optimal_length": "16", "subject": "A2TQNX64349OZ9:3WSELTNVR4AZUVYAYCSWZIQW0J4ATB"}
{"meta_move": "drag_end", "rt": "7015.0", "trial_number": "2", "pre_actions": "1", "move": "1@4", "instance": "prb29027", "distance_to_goal": "NA", "progress": "NA", "move_number": "1", "optimal_length": "16", "subject": "A2TQNX64349OZ9:3WSELTNVR4AZUVYAYCSWZIQW0J4ATB"}
{"meta_move": "drag_end", "rt": "796.0", "trial_number": "2", "pre_actions": "1", "move": "2@22", "instance": "prb29027", "distance_to_goal": "NA", "progress": "NA", "move_number": "2", "optimal_length": "16", "subject": "A2TQNX64349OZ9:3WSELTNVR4AZUVYAYCSWZIQW0J4ATB"}
{"meta_move": "drag_end", "rt": "673.0", "trial_number": "2", "pre_actions": "1", "move": "r@14", "instance": "prb29027", "distance_to_goal": "NA", "progress": "NA", "move_number": "3", "optimal_length": "16", "subject": "A2TQNX64349OZ9:3WSELTNVR4AZUVYAYCSWZIQW0J4ATB"}
{"meta_move": "drag_end", "rt": "1181.0", "trial_number": "2", "pre_actions": "1", "move": "4@7", "instance": "prb29027", "distance_to_goal": "NA", "progress": "NA", "move_number": "3", "optimal_length": "16", "subject": "A2TQNX64349OZ9:3WSELTNVR4AZUVYAYCSWZIQW0J4ATB"}
{"meta_move": "drag_end", "rt": "583.0", "trial_number": "2", "pre_actions": "1", "move": "6@20", "instance": "prb29027", "distance_to_goal": "NA", "progress": "NA", "move_number": "4", "optimal_length": "16", "subject": "A2TQNX64349OZ9:3WSELTNVR4AZUVYAYCSWZIQW0J4ATB"}
{"meta_move": "drag_end", "rt": "649.0", "trial_number": "2", "pre_actions": "1", "move": "3@30", "instance": "prb29027", "distance_to_goal": "NA", "progress": "NA", "move_number": "5", "optimal_length": "16", "subject": "A2TQNX64349OZ9:3WSELTNVR4AZUVYAYCSWZIQW0J4ATB"}
{"meta_move": "drag_end", "rt": "100724.0", "trial_number": "1", "pre_actions": "1", "move": "1@4", "instance": "prb29027", "distance_to_goal": "NA", "progress": "NA", "move_number": "0", "optimal_length": "16", "subject": "A39GADIK8RLMVC:36AHBNMV1SKT9O0GSS6XX0QHZV3YDN"}
{"meta_move": "drag_end", "rt": "1809.0", "trial_number": "1", "pre_actions": "1", "move": "2@21", "instance": "prb29027", "distance_to_goal": "NA", "progress": "NA", "move_number": "1", "optimal_length": "16", "subject": "A39GADIK8RLMVC:36AHBNMV1SKT9O0GSS6XX0QHZV3YDN"}
{"meta_move": "drag_end", "rt": "1992.0", "trial_number": "1", "pre_actions": "1", "move": "4@19", "instance": "prb29027", "distance_to_goal": "NA", "progress": "NA", "move_number": "2", "optimal_length": "16", "subject": "A39GADIK8RLMVC:36AHBNMV1SKT9O0GSS6XX0QHZV3YDN"}
{"meta_move": "drag_end", "rt": "1767.0", "trial_number": "1", "pre_actions": "1", "move": "r@12", "instance": "prb29027", "distance_to_goal": "NA", "progress": "NA", "move_number": "3", "optimal_length": "16", "subject": "A39GADIK8RLMVC:36AHBNMV1SKT9O0GSS6XX0QHZV3YDN"}
{"meta_move": "drag_end", "rt": "2032.0", "trial_number": "1", "pre_actions": "1", "move": "6@8", "instance": "prb29027", "distance_to_goal": "NA", "progress": "NA", "move_number": "4", "optimal_length": "16", "subject": "A39GADIK8RLMVC:36AHBNMV1SKT9O0GSS6XX0QHZV3YDN"}
{"meta_move": "drag_end", "rt": "3495.0", "trial_number": "1", "pre_actions": "1", "move": "2@20", "instance": "prb29027", "distance_to_goal": "NA", "progress": "NA", "move_number": "5", "optimal_length": "16", "subject": "A39GADIK8RLMVC:36AHBNMV1SKT9O0GSS6XX0QHZV3YDN"}
{"meta_move": "drag_end", "rt": "1850.0", "trial_number": "1", "pre_actions": "1", "move": "1@10", "instance": "prb29027", "distance_to_goal": "NA", "progress": "NA", "move_number": "6", "optimal_length": "16", "subject": "A39GADIK8RLMVC:36AHBNMV1SKT9O0GSS6XX0QHZV3YDN"}
