{"meta_move": "drag_end", "rt": "2462.0", "trial_number": "1", "pre_actions": "1", "move": "4@6", "instance": "prb29414", "distance_to_goal": "NA", "progress": "NA", "move_number": "0", "optimal_length": "11", "subject": "A15781PHGW377Y:3YW4XOSQKRTI0K0Z2YPDTDJVFABU1I"}
{"meta_move": "drag_end", "rt": "3648.0", "trial_number": "1", "pre_actions": "1", "move": "0@34", "instance": "prb29414", "distance_to_goal": "NA", "progress": "NA", "move_number": "1", "optimal_length": "11", "subject": "A15781PHGW377Y:3YW4XOSQKRTI0K0Z2YPDTDJVFABU1I"}
{"meta_move": "drag_end", "rt": "1392.0", "trial_number": "1", "pre_actions": "1", "move": "7@4", "instance": "prb29414", "distance_to_goal": "NA", "progress": "NA", "move_number": "1", "optimal_length": "11", "subject": "A15781PHGW377Y:3YW4XOSQKRTI0K0Z2YPDTDJVFABU1I"}
{"meta_move": "drag_end", "rt": "5897.0", "trial_number": "1", "pre_actions": "1", "move": "2@21", "instance": "prb29414", "distance_to_goal": "NA", "progress": "NA", "move_number": "2", "optimal_length": "11", "subject": "A15781PHGW377Y:3YW4XOSQKRTI0K0Z2YPDTDJVFABU1I"}
{"meta_move": "drag_end", "rt": "1113.0", "trial_number": "1", "pre_actions": "1", "move": "1@20", "instance": "prb29414", "distance_to_goal": "NA", "progress": "NA", "move_number": "3", "optimal_length": "11", "subject": "A15781PHGW377Y:3YW4XOSQKRTI0K0Z2YPDTDJVFABU1I"}
{"meta_move": "drag_end", "rt": "1501.0", "trial_number": "1", "pre_actions": "1", "move": "3@18", "instance": "prb29414", "distance_to_goal": "NA", "progress": "NA", "move_number": "4", "optimal_length": "11", "subject": "A15781PHGW377Y:3YW4XOSQKRTI0K0Z2YPDTDJVFABU1I"}
{"meta_move": "drag_end", "rt": "914.0", "trial_number": "1", "pre_actions": "1", "move": "0@30", "instance": "prb29414", "distance_to_goal": "NA", "progress": "NA", "move_number": "5", "optimal_length": "11", "subject": "A15781PHGW377Y:3YW4XOSQKRTI0K0Z2YPDTDJVFABU1I"}
{"meta_move": "drag_end", "rt": "743.0", "trial_number": "1", "pre_actions": "1", "move": "1@26", "instance": "prb29414", "distance_to_goal": "NA", "progress": "NA", "move_number": "6", "optimal_length": "11", "subject": "A15781PHGW377Y:3YW4XOSQKRTI0K0Z2YPDTDJVFABU1I"}
{"meta_move": "drag_end", "rt": "660.0", "trial_number": "1", "pre_actions": "1", "move": "2@19", "instance": "prb29414", "distance_to_goal": "NA", "progress": "NA", "move_number": "7", "optimal_length": "11", "subject": "A15781PHGW377Y:3YW4XOSQKRTI0K0Z2YPDTDJVFABU1I"}
{"meta_move": "drag_end", "rt": "864.0", "trial_number": "1", "pre_actions": "1", "move": "7@22", "instance": "prb29414", "distance_to_goal": "NA", "progress": "NA", "move_number": "8", "optimal_length": "11", "subject": "A15781PHGW377Y:3YW4XOSQKRTI0K0Z2YPDTDJVFABU1I"}
{"meta_move": "win", "rt": "592.0", "trial_number": "1", "pre_actions": "1", "move": "r@14", "instance": "prb29414", "distance_to_goal": "1", "progress": "NA", "move_number": "9", "optimal_length": "11", "subject": "A15781PHGW377Y:3YW4XOSQKRTI0K0Z2YPDTDJVFABU1I"}
{"meta_move": "drag_end", "rt": "156.0", "trial_number": "0", "pre_actions": "0", "move": "r@16", "instance": "prb29414", "distance_to_goal": "NA", "progress": "NA", "move_number": "9", "optimal_length": "11", "subject": "A15781PHGW377Y:3YW4XOSQKRTI0K0Z2YPDTDJVFABU1I"}
{"meta_move": "drag_end", "rt": "1538.0", "trial_number": "1", "pre_actions": "1", "move": "4@6", "instance": "prb29414", "distance_to_goal": "NA", "progress": "NA", "move_number": "0", "optimal_length": "11", "subject": "A15FXHC1CVNW31:3TS1AR6UQRM7SOIBWPBN8N9589Y7FV"}
{"meta_move": "drag_end", "rt": "1017.0", "trial_number": "1", "pre_actions": "1", "move": "7@4", "instance": "prb29414", "distance_to_goal": "NA", "progress": "NA", "move_number": "1", "optimal_length": "11", "subject": "A15FXHC1CVNW31:3TS1AR6UQRM7SOIBWPBN8N9589Y7FV"}
{"meta_move": "drag_end", "rt": "2886.0", "trial_number": "1", "pre_actions": "1", "move": "0@34", "instance": "prb29414", "distance_to_goal": "NA", "progress": "NA", "move_number": "2", "optimal_length": "11", "subject": "A15FXHC1CVNW31:3TS1AR6UQRM7SOIBWPBN8N9589Y7FV"}
{"meta_move": "drag_end", "rt": "1417.0", "trial_number": "1", "pre_actions": "1", "move": "4@7", "instance": "prb29414", "distance_to_goal": "NA", "progress": "NA", "move_number": "2", "optimal_length": "11", "subject": "A15FXHC1CVNW31:3TS1AR6UQRM7SOIBWPBN8N9589Y7FV"}
{"meta_move": "drag_end", "rt": "1472.0", "trial_number": "1", "pre_actions": "1", "move": "7@16", "instance": "prb29414", "distance_to_goal": "NA", "progress": "NA", "move_number": "3", "optimal_length": "11", "subject": "A15FXHC1CVNW31:3TS1AR6UQRM7SOIBWPBN8N9589Y7FV"}
{"meta_move": "drag_end", "rt": "853.0", "trial_number": "1", "pre_actions": "1", "move": "4@9", "instance": "prb29414", "distance_to_goal": "NA", "progress": "NA", "move_number": "4", "optimal_length": "11", "subject": "A15FXHC1CVNW31:3TS1AR6UQRM7SOIBWPBN8N9589Y7FV"}
{"meta_move": "drag_end", "rt": "913.0", "trial_number": "1", "pre_actions": "1", "move": "6@4", "instance": "prb29414", "distance_to_goal": "NA", "progress": "NA", "move_number": "5", "optimal_length": "11", "subject": "A15FXHC1CVNW31:3TS1AR6UQRM7SOIBWPBN8N9589Y7FV"}
{"meta_move": "drag_end", "rt": "2050.0", "trial_number": "1", "pre_actions": "1", "move": "4@7", "instance": "prb29414", "distance_to_goal": "NA", "progress": "NA", "move_number": "6", "optimal_length": "11", "subject": "A15FXHC1CVNW31:3TS1AR6UQRM7SOIBWPBN8N9589Y7FV"}
{"meta_move": "drag_end", "rt": "668.0", "trial_number": "1", "pre_actions": "1", "move": "7@10", "instance": "prb29414", "distance_to_goal": "NA", "progress": "NA", "move_number": "7", "optimal_length": "11", "subject": "A15FXHC1CVNW31:3TS1AR6UQRM7SOIBWPBN8N9589Y7FV"}
{"meta_move": "drag_end", "rt": "5075.0", "trial_number": "1", "pre_actions": "1", "move": "0@33", "instance": "prb29414", "distance_to_goal": "NA", "progress": "NA", "move_number": "8", "optimal_length": "11", "subject": "A15FXHC1CVNW31:3TS1AR6UQRM7SOIBWPBN8N9589Y7FV"}
{"meta_move": "drag_end", "rt": "1374.0", "trial_number": "1", "pre_actions": "1", "move": "0@34", "instance": "prb29414", "distance_to_goal": "NA", "progress": "NA", "move_number": "9", "optimal_length": "11", "subject": "A15FXHC1CVNW31:3TS1AR6UQRM7SOIBWPBN8N9589Y7FV"}
{"meta_move": "drag_end", "rt": "959.0", "trial_number": "1", "pre_actions": "1", "move": "7@16", "instance": "prb29414", "distance_to_goal": "NA", "progress": "NA", "move_number": "10", "optimal_length": "11", "subject": "A15FXHC1CVNW31:3TS1AR6UQRM7SOIBWPBN8N9589Y7FV"}
{"meta_move": "drag_end", "rt": "1087.0", "trial_number": "1", "pre_actions": "1", "move": "6@0", "instance": "prb29414", "distance_to_goal": "NA", "progress": "NA", "move_number": "11", "optimal_length": "11", "subject": "A15FXHC1CVNW31:3TS1AR6UQRM7SOIBWPBN8N9589Y7FV"}
{"meta_move": "drag_end", "rt": "654.0", "trial_number": "1", "pre_actions": "1", "move": "4@9", "instance": "prb29414", "distance_to_goal": "NA", "progress": "NA", "move_number": "12", "optimal_length": "11", "subject": "A15FXHC1CVNW31:3TS1AR6UQRM7SOIBWPBN8N9589Y7FV"}
{"meta_move": "drag_end", "rt": "2107.0", "trial_number": "1", "pre_actions": "1", "move": "4@7", "instance": "prb29414", "distance_to_goal": "NA", "progress": "NA", "move_number": "13", "optimal_length": "11", "subject": "A15FXHC1CVNW31:3TS1AR6UQRM7SOIBWPBN8N9589Y7FV"}
{"meta_move": "drag_end", "rt": "1578.0", "trial_number": "1", "pre_actions": "1", "move": "7@16", "instance": "prb29414", "distance_to_goal": "NA", "progress": "NA", "move_number": "14", "optimal_length": "11", "subject": "A15FXHC1CVNW31:3TS1AR6UQRM7SOIBWPBN8N9589Y7FV"}
{"meta_move": "drag_end", "rt": "1266.0", "trial_number": "1", "pre_actions": "1", "move": "0@34", "instance": "prb29414", "distance_to_goal": "NA", "progress": "NA", "move_number": "14", "optimal_length": "11", "subject": "A15FXHC1CVNW31:3TS1AR6UQRM7SOIBWPBN8N9589Y7FV"}
{"meta_move": "drag_end", "rt": "629.0", "trial_number": "1", "pre_actions": "1", "move": "7@4", "instance": "prb29414", "distance_to_goal": "NA", "progress": "NA", "move_number": "14", "optimal_length": "11", "subject": "A15FXHC1CVNW31:3TS1AR6UQRM7SOIBWPBN8N9589Y7FV"}
{"meta_move": "drag_end", "rt": "3695.0", "trial_number": "2", "pre_actions": "1", "move": "3@24", "instance": "prb29414", "distance_to_goal": "NA", "progress": "NA", "move_number": "0", "optimal_length": "11", "subject": "A15FXHC1CVNW31:3TS1AR6UQRM7SOIBWPBN8N9589Y7FV"}
{"meta_move": "drag_end", "rt": "3530.0", "trial_number": "2", "pre_actions": "1", "move": "4@9", "instance": "prb29414", "distance_to_goal": "NA", "progress": "NA", "move_number": "0", "optimal_length": "11", "subject": "A15FXHC1CVNW31:3TS1AR6UQRM7SOIBWPBN8N9589Y7FV"}
{"meta_move": "drag_end", "rt": "3506.0", "trial_number": "2", "pre_actions": "1", "move": "6@0", "instance": "prb29414", "distance_to_goal": "NA", "progress": "NA", "move_number": "0", "optimal_length": "11", "subject": "A15FXHC1CVNW31:3TS1AR6UQRM7SOIBWPBN8N9589Y7FV"}
{"meta_move": "drag_end", "rt": "536.0", "trial_number": "2", "pre_actions": "1", "move": "4@6", "instance": "prb29414", "distance_to_goal": "NA", "progress": "NA", "move_number": "0", "optimal_length": "11", "subject": "A15FXHC1CVNW31:3TS1AR6UQRM7SOIBWPBN8N9589Y7FV"}
{"meta_move": "drag_end", "rt": "1113.0", "trial_number": "2", "pre_actions": "1", "move": "7@4", "instance": "prb29414", "distance_to_goal": "NA", "progress": "NA", "move_number": "1", "optimal_length": "11", "subject": "A15FXHC1CVNW31:3TS1AR6UQRM7SOIBWPBN8N9589Y7FV"}
{"meta_move": "drag_end", "rt": "1260.0", "trial_number": "2", "pre_actions": "1", "move": "2@21", "instance": "prb29414", "distance_to_goal": "NA", "progress": "NA", "move_number": "2", "optimal_length": "11", "subject": "A15FXHC1CVNW31:3TS1AR6UQRM7SOIBWPBN8N9589Y7FV"}
{"meta_move": "drag_end", "rt": "5124.0", "trial_number": "2", "pre_actions": "1", "move": "0@34", "instance": "prb29414", "distance_to_goal": "NA", "progress": "NA", "move_number": "3", "optimal_length": "11", "subject": "A15FXHC1CVNW31:3TS1AR6UQRM7SOIBWPBN8N9589Y7FV"}
{"meta_move": "drag_end", "rt": "700.0", "trial_number": "2", "pre_actions": "1", "move": "1@20", "instance": "prb29414", "distance_to_goal": "NA", "progress": "NA", "move_number": "3", "optimal_length": "11", "subject": "A15FXHC1CVNW31:3TS1AR6UQRM7SOIBWPBN8N9589Y7FV"}
{"meta_move": "drag_end", "rt": "718.0", "trial_number": "2", "pre_actions": "1", "move": "0@31", "instance": "prb29414", "distance_to_goal": "NA", "progress": "NA", "move_number": "4", "optimal_length": "11", "subject": "A15FXHC1CVNW31:3TS1AR6UQRM7SOIBWPBN8N9589Y7FV"}
{"meta_move": "drag_end", "rt": "4807.0", "trial_number": "2", "pre_actions": "1", "move": "0@34", "instance": "prb29414", "distance_to_goal": "NA", "progress": "NA", "move_number": "5", "optimal_length": "11", "subject": "A15FXHC1CVNW31:3TS1AR6UQRM7SOIBWPBN8N9589Y7FV"}
{"meta_move": "drag_end", "rt": "1192.0", "trial_number": "2", "pre_actions": "1", "move": "1@26", "instance": "prb29414", "distance_to_goal": "NA", "progress": "NA", "move_number": "6", "optimal_length": "11", "subject": "A15FXHC1CVNW31:3TS1AR6UQRM7SOIBWPBN8N9589Y7FV"}
{"meta_move": "drag_end", "rt": "722.0", "trial_number": "2", "pre_actions": "1", "move": "2@18", "instance": "prb29414", "distance_to_goal": "NA", "progress": "NA", "move_number": "7", "optimal_length": "11", "subject": "A15FXHC1CVNW31:3TS1AR6UQRM7SOIBWPBN8N9589Y7FV"}
{"meta_move": "drag_end", "rt": "2254.0", "trial_number": "2", "pre_actions": "1", "move": "0@33", "instance": "prb29414", "distance_to_goal": "NA", "progress": "NA", "move_number": "8", "optimal_length": "11", "subject": "A15FXHC1CVNW31:3TS1AR6UQRM7SOIBWPBN8N9589Y7FV"}
{"meta_move": "drag_end", "rt": "6765.0", "trial_number": "2", "pre_actions": "1", "move": "7@16", "instance": "prb29414", "distance_to_goal": "NA", "progress": "NA", "move_number": "9", "optimal_length": "11", "subject": "A15FXHC1CVNW31:3TS1AR6UQRM7SOIBWPBN8N9589Y7FV"}
{"meta_move": "drag_end", "rt": "968.0", "trial_number": "2", "pre_actions": "1", "move": "4@9", "instance": "prb29414", "distance_to_goal": "NA", "progress": "NA", "move_number": "10", "optimal_length": "11", "subject": "A15FXHC1CVNW31:3TS1AR6UQRM7SOIBWPBN8N9589Y7FV"}
{"meta_move": "drag_end", "rt": "2286.0", "trial_number": "2", "pre_actions": "1", "move": "0@34", "instance": "prb29414", "distance_to_goal": "NA", "progress": "NA", "move_number": "11", "optimal_length": "11", "subject": "A15FXHC1CVNW31:3TS1AR6UQRM7SOIBWPBN8N9589Y7FV"}
{"meta_move": "drag_end", "rt": "1709.0", "trial_number": "2", "pre_actions": "1", "move": "7@16", "instance": "prb29414", "distance_to_goal": "NA", "progress": "NA", "move_number": "12", "optimal_length": "11", "subject": "A15FXHC1CVNW31:3TS1AR6UQRM7SOIBWPBN8N9589Y7FV"}
{"meta_move": "drag_end", "rt": "732.0", "trial_number": "2", "pre_actions": "1", "move": "4@6", "instance": "prb29414", "distance_to_goal": "NA", "progress": "NA", "move_number": "12", "optimal_length": "11", "subject": "A15FXHC1CVNW31:3TS1AR6UQRM7SOIBWPBN8N9589Y7FV"}
{"meta_move": "drag_end", "rt": "836.0", "trial_number": "2", "pre_actions": "1", "move": "7@4", "instance": "prb29414", "distance_to_goal": "NA", "progress": "NA", "move_number": "13", "optimal_length": "11", "subject": "A15FXHC1CVNW31:3TS1AR6UQRM7SOIBWPBN8N9589Y7FV"}
{"meta_move": "drag_end", "rt": "1001.0", "trial_number": "2", "pre_actions": "1", "move": "0@34", "instance": "prb29414", "distance_to_goal": "NA", "progress": "NA", "move_number": "14", "optimal_length": "11", "subject": "A15FXHC1CVNW31:3TS1AR6UQRM7SOIBWPBN8N9589Y7FV"}
{"meta_move": "drag_end", "rt": "811.0", "trial_number": "2", "pre_actions": "1", "move": "2@21", "instance": "prb29414", "distance_to_goal": "NA", "progress": "NA", "move_number": "14", "optimal_length": "11", "subject": "A15FXHC1CVNW31:3TS1AR6UQRM7SOIBWPBN8N9589Y7FV"}
{"meta_move": "drag_end", "rt": "1128.0", "trial_number": "2", "pre_actions": "1", "move": "1@20", "instance": "prb29414", "distance_to_goal": "NA", "progress": "NA", "move_number": "15", "optimal_length": "11", "subject": "A15FXHC1CVNW31:3TS1AR6UQRM7SOIBWPBN8N9589Y7FV"}
{"meta_move": "drag_end", "rt": "615.0", "trial_number": "2", "pre_actions": "1", "move": "0@34", "instance": "prb29414", "distance_to_goal": "NA", "progress": "NA", "move_number": "16", "optimal_length": "11", "subject": "A15FXHC1CVNW31:3TS1AR6UQRM7SOIBWPBN8N9589Y7FV"}
{"meta_move": "drag_end", "rt": "653.0", "trial_number": "2", "pre_actions": "1", "move": "0@31", "instance": "prb29414", "distance_to_goal": "NA", "progress": "NA", "move_number": "16", "optimal_length": "11", "subject": "A15FXHC1CVNW31:3TS1AR6UQRM7SOIBWPBN8N9589Y7FV"}
{"meta_move": "drag_end", "rt": "2483.0", "trial_number": "2", "pre_actions": "1", "move": "3@18", "instance": "prb29414", "distance_to_goal": "NA", "progress": "NA", "move_number": "17", "optimal_length": "11", "subject": "A15FXHC1CVNW31:3TS1AR6UQRM7SOIBWPBN8N9589Y7FV"}
{"meta_move": "drag_end", "rt": "670.0", "trial_number": "2", "pre_actions": "1", "move": "0@30", "instance": "prb29414", "distance_to_goal": "NA", "progress": "NA", "move_number": "18", "optimal_length": "11", "subject": "A15FXHC1CVNW31:3TS1AR6UQRM7SOIBWPBN8N9589Y7FV"}
{"meta_move": "drag_end", "rt": "640.0", "trial_number": "2", "pre_actions": "1", "move": "1@26", "instance": "prb29414", "distance_to_goal": "NA", "progress": "NA", "move_number": "19", "optimal_length": "11", "subject": "A15FXHC1CVNW31:3TS1AR6UQRM7SOIBWPBN8N9589Y7FV"}
{"meta_move": "drag_end", "rt": "1126.0", "trial_number": "2", "pre_actions": "1", "move": "2@19", "instance": "prb29414", "distance_to_goal": "NA", "progress": "NA", "move_number": "20", "optimal_length": "11", "subject": "A15FXHC1CVNW31:3TS1AR6UQRM7SOIBWPBN8N9589Y7FV"}
{"meta_move": "drag_end", "rt": "860.0", "trial_number": "2", "pre_actions": "1", "move": "7@22", "instance": "prb29414", "distance_to_goal": "NA", "progress": "NA", "move_number": "21", "optimal_length": "11", "subject": "A15FXHC1CVNW31:3TS1AR6UQRM7SOIBWPBN8N9589Y7FV"}
{"meta_move": "win", "rt": "548.0", "trial_number": "2", "pre_actions": "1", "move": "r@14", "instance": "prb29414", "distance_to_goal": "1", "progress": "NA", "move_number": "22", "optimal_length": "11", "subject": "A15FXHC1CVNW31:3TS1AR6UQRM7SOIBWPBN8N9589Y7FV"}
{"meta_move": "drag_end", "rt": "128.0", "trial_number": "0", "pre_actions": "0", "move": "r@16", "instance": "prb29414", "distance_to_goal": "NA", "progress": "NA", "move_number": "22", "optimal_length": "11", "subject": "A15FXHC1CVNW31:3TS1AR6UQRM7SOIBWPBN8N9589Y7FV"}
{"meta_move": "drag_end", "rt": "11999.0", "trial_number": "12", "pre_actions": "1", "move": "4@9", "instance": "prb29414", "distance_to_goal": "NA", "progress": "NA", "move_number": "0", "optimal_length": "11", "subject": "A18QU0YQB6Q8DF:3VE8AYVF8N5BS2NU6U3TMN50JMNF8V"}
{"meta_move": "drag_end", "rt": "7663.0", "trial_number": "12", "pre_actions": "1", "move": "5@12", "instance": "prb29414", "distance_to_goal": "NA", "progress": "NA", "move_number": "0", "optimal_length": "11", "subject": "A18QU0YQB6Q8DF:3VE8AYVF8N5BS2NU6U3TMN50JMNF8V"}
{"meta_move": "drag_end", "rt": "753.0", "trial_number": "12", "pre_actions": "1", "move": "5@12", "instance": "prb29414", "distance_to_goal": "NA", "progress": "NA", "move_number": "0", "optimal_length": "11", "subject": "A18QU0YQB6Q8DF:3VE8AYVF8N5BS2NU6U3TMN50JMNF8V"}
{"meta_move": "drag_end", "rt": "3798.0", "trial_number": "12", "pre_actions": "1", "move": "6@4", "instance": "prb29414", "distance_to_goal": "NA", "progress": "NA", "move_number": "0", "optimal_length": "11", "subject": "A18QU0YQB6Q8DF:3VE8AYVF8N5BS2NU6U3TMN50JMNF8V"}
{"meta_move": "drag_end", "rt": "5928.0", "trial_number": "12", "pre_actions": "1", "move": "4@6", "instance": "prb29414", "distance_to_goal": "NA", "progress": "NA", "move_number": "1", "optimal_length": "11", "subject": "A18QU0YQB6Q8DF:3VE8AYVF8N5BS2NU6U3TMN50JMNF8V"}
{"meta_move": "drag_end", "rt": "3880.0", "trial_number": "12", "pre_actions": "1", "move": "7@16", "instance": "prb29414", "distance_to_goal": "NA", "progress": "NA", "move_number": "2", "optimal_length": "11", "subject": "A18QU0YQB6Q8DF:3VE8AYVF8N5BS2NU6U3TMN50JMNF8V"}
{"meta_move": "drag_end", "rt": "2086.0", "trial_number": "12", "pre_actions": "1", "move": "1@26", "instance": "prb29414", "distance_to_goal": "NA", "progress": "NA", "move_number": "2", "optimal_length": "11", "subject": "A18QU0YQB6Q8DF:3VE8AYVF8N5BS2NU6U3TMN50JMNF8V"}
{"meta_move": "drag_end", "rt": "926.0", "trial_number": "12", "pre_actions": "1", "move": "1@26", "instance": "prb29414", "distance_to_goal": "NA", "progress": "NA", "move_number": "2", "optimal_length": "11", "subject": "A18QU0YQB6Q8DF:3VE8AYVF8N5BS2NU6U3TMN50JMNF8V"}
{"meta_move": "drag_end", "rt": "2358.0", "trial_number": "12", "pre_actions": "1", "move": "2@19", "instance": "prb29414", "distance_to_goal": "NA", "progress": "NA", "move_number": "2", "optimal_length": "11", "subject": "A18QU0YQB6Q8DF:3VE8AYVF8N5BS2NU6U3TMN50JMNF8V"}
{"meta_move": "drag_end", "rt": "8135.0", "trial_number": "13", "pre_actions": "1", "move": "4@6", "instance": "prb29414", "distance_to_goal": "NA", "progress": "NA", "move_number": "0", "optimal_length": "11", "subject": "A18QU0YQB6Q8DF:3VE8AYVF8N5BS2NU6U3TMN50JMNF8V"}
{"meta_move": "drag_end", "rt": "3921.0", "trial_number": "13", "pre_actions": "1", "move": "7@4", "instance": "prb29414", "distance_to_goal": "NA", "progress": "NA", "move_number": "1", "optimal_length": "11", "subject": "A18QU0YQB6Q8DF:3VE8AYVF8N5BS2NU6U3TMN50JMNF8V"}
{"meta_move": "drag_end", "rt": "1812.0", "trial_number": "13", "pre_actions": "1", "move": "2@21", "instance": "prb29414", "distance_to_goal": "NA", "progress": "NA", "move_number": "2", "optimal_length": "11", "subject": "A18QU0YQB6Q8DF:3VE8AYVF8N5BS2NU6U3TMN50JMNF8V"}
{"meta_move": "drag_end", "rt": "1454.0", "trial_number": "13", "pre_actions": "1", "move": "5@12", "instance": "prb29414", "distance_to_goal": "NA", "progress": "NA", "move_number": "3", "optimal_length": "11", "subject": "A18QU0YQB6Q8DF:3VE8AYVF8N5BS2NU6U3TMN50JMNF8V"}
{"meta_move": "drag_end", "rt": "7219.0", "trial_number": "13", "pre_actions": "1", "move": "0@34", "instance": "prb29414", "distance_to_goal": "NA", "progress": "NA", "move_number": "3", "optimal_length": "11", "subject": "A18QU0YQB6Q8DF:3VE8AYVF8N5BS2NU6U3TMN50JMNF8V"}
{"meta_move": "drag_end", "rt": "1346.0", "trial_number": "13", "pre_actions": "1", "move": "1@20", "instance": "prb29414", "distance_to_goal": "NA", "progress": "NA", "move_number": "3", "optimal_length": "11", "subject": "A18QU0YQB6Q8DF:3VE8AYVF8N5BS2NU6U3TMN50JMNF8V"}
{"meta_move": "drag_end", "rt": "1682.0", "trial_number": "13", "pre_actions": "1", "move": "0@31", "instance": "prb29414", "distance_to_goal": "NA", "progress": "NA", "move_number": "4", "optimal_length": "11", "subject": "A18QU0YQB6Q8DF:3VE8AYVF8N5BS2NU6U3TMN50JMNF8V"}
{"meta_move": "drag_end", "rt": "1812.0", "trial_number": "13", "pre_actions": "1", "move": "2@21", "instance": "prb29414", "distance_to_goal": "NA", "progress": "NA", "move_number": "5", "optimal_length": "11", "subject": "A18QU0YQB6Q8DF:3VE8AYVF8N5BS2NU6U3TMN50JMNF8V"}
{"meta_move": "drag_end", "rt": "2325.0", "trial_number": "13", "pre_actions": "1", "move": "1@20", "instance": "prb29414", "distance_to_goal": "NA", "progress": "NA", "move_number": "5", "optimal_length": "11", "subject": "A18QU0YQB6Q8DF:3VE8AYVF8N5BS2NU6U3TMN50JMNF8V"}
{"meta_move": "drag_end", "rt": "1876.0", "trial_number": "13", "pre_actions": "1", "move": "3@18", "instance": "prb29414", "distance_to_goal": "NA", "progress": "NA", "move_number": "5", "optimal_length": "11", "subject": "A18QU0YQB6Q8DF:3VE8AYVF8N5BS2NU6U3TMN50JMNF8V"}
{"meta_move": "drag_end", "rt": "1182.0", "trial_number": "13", "pre_actions": "1", "move": "0@30", "instance": "prb29414", "distance_to_goal": "NA", "progress": "NA", "move_number": "6", "optimal_length": "11", "subject": "A18QU0YQB6Q8DF:3VE8AYVF8N5BS2NU6U3TMN50JMNF8V"}
{"meta_move": "drag_end", "rt": "1158.0", "trial_number": "13", "pre_actions": "1", "move": "1@26", "instance": "prb29414", "distance_to_goal": "NA", "progress": "NA", "move_number": "7", "optimal_length": "11", "subject": "A18QU0YQB6Q8DF:3VE8AYVF8N5BS2NU6U3TMN50JMNF8V"}
{"meta_move": "drag_end", "rt": "1999.0", "trial_number": "13", "pre_actions": "1", "move": "2@19", "instance": "prb29414", "distance_to_goal": "NA", "progress": "NA", "move_number": "8", "optimal_length": "11", "subject": "A18QU0YQB6Q8DF:3VE8AYVF8N5BS2NU6U3TMN50JMNF8V"}
{"meta_move": "drag_end", "rt": "1549.0", "trial_number": "13", "pre_actions": "1", "move": "7@22", "instance": "prb29414", "distance_to_goal": "NA", "progress": "NA", "move_number": "9", "optimal_length": "11", "subject": "A18QU0YQB6Q8DF:3VE8AYVF8N5BS2NU6U3TMN50JMNF8V"}
{"meta_move": "win", "rt": "1023.0", "trial_number": "13", "pre_actions": "1", "move": "r@14", "instance": "prb29414", "distance_to_goal": "1", "progress": "NA", "move_number": "10", "optimal_length": "11", "subject": "A18QU0YQB6Q8DF:3VE8AYVF8N5BS2NU6U3TMN50JMNF8V"}
{"meta_move": "drag_end", "rt": "331.0", "trial_number": "0", "pre_actions": "0", "move": "r@16", "instance": "prb29414", "distance_to_goal": "NA", "progress": "NA", "move_number": "10", "optimal_length": "11", "subject": "A18QU0YQB6Q8DF:3VE8AYVF8N5BS2NU6U3TMN50JMNF8V"}
{"meta_move": "drag_end", "rt": "1671.0", "trial_number": "1", "pre_actions": "1", "move": "4@6", "instance": "prb29414", "distance_to_goal": "NA", "progress": "NA", "move_number": "0", "optimal_length": "11", "subject": "A191V7PT3DQKDP:3PMBY0YE28B43VMUKKJ6EDF85RV9C8"}
{"meta_move": "drag_end", "rt": "1568.0", "trial_number": "1", "pre_actions": "1", "move": "7@4", "instance": "prb29414", "distance_to_goal": "NA", "progress": "NA", "move_number": "1", "optimal_length": "11", "subject": "A191V7PT3DQKDP:3PMBY0YE28B43VMUKKJ6EDF85RV9C8"}
{"meta_move": "drag_end", "rt": "1517.0", "trial_number": "1", "pre_actions": "1", "move": "2@21", "instance": "prb29414", "distance_to_goal": "NA", "progress": "NA", "move_number": "2", "optimal_length": "11", "subject": "A191V7PT3DQKDP:3PMBY0YE28B43VMUKKJ6EDF85RV9C8"}
{"meta_move": "drag_end", "rt": "1028.0", "trial_number": "1", "pre_actions": "1", "move": "1@20", "instance": "prb29414", "distance_to_goal": "NA", "progress": "NA", "move_number": "3", "optimal_length": "11", "subject": "A191V7PT3DQKDP:3PMBY0YE28B43VMUKKJ6EDF85RV9C8"}
{"meta_move": "drag_end", "rt": "1400.0", "trial_number": "1", "pre_actions": "1", "move": "0@31", "instance": "prb29414", "distance_to_goal": "NA", "progress": "NA", "move_number": "4", "optimal_length": "11", "subject": "A191V7PT3DQKDP:3PMBY0YE28B43VMUKKJ6EDF85RV9C8"}
{"meta_move": "drag_end", "rt": "575.0", "trial_number": "1", "pre_actions": "1", "move": "3@18", "instance": "prb29414", "distance_to_goal": "NA", "progress": "NA", "move_number": "5", "optimal_length": "11", "subject": "A191V7PT3DQKDP:3PMBY0YE28B43VMUKKJ6EDF85RV9C8"}
{"meta_move": "drag_end", "rt": "568.0", "trial_number": "1", "pre_actions": "1", "move": "0@30", "instance": "prb29414", "distance_to_goal": "NA", "progress": "NA", "move_number": "6", "optimal_length": "11", "subject": "A191V7PT3DQKDP:3PMBY0YE28B43VMUKKJ6EDF85RV9C8"}
{"meta_move": "drag_end", "rt": "714.0", "trial_number": "1", "pre_actions": "1", "move": "1@26", "instance": "prb29414", "distance_to_goal": "NA", "progress": "NA", "move_number": "7", "optimal_length": "11", "subject": "A191V7PT3DQKDP:3PMBY0YE28B43VMUKKJ6EDF85RV9C8"}
{"meta_move": "drag_end", "rt": "670.0", "trial_number": "1", "pre_actions": "1", "move": "2@19", "instance": "prb29414", "distance_to_goal": "NA", "progress": "NA", "move_number": "8", "optimal_length": "11", "subject": "A191V7PT3DQKDP:3PMBY0YE28B43VMUKKJ6EDF85RV9C8"}
{"meta_move": "drag_end", "rt": "768.0", "trial_number": "1", "pre_actions": "1", "move": "7@22", "instance": "prb29414", "distance_to_goal": "NA", "progress": "NA", "move_number": "9", "optimal_length": "11", "subject": "A191V7PT3DQKDP:3PMBY0YE28B43VMUKKJ6EDF85RV9C8"}
{"meta_move": "win", "rt": "576.0", "trial_number": "1", "pre_actions": "1", "move": "r@14", "instance": "prb29414", "distance_to_goal": "1", "progress": "NA", "move_number": "10", "optimal_length": "11", "subject": "A191V7PT3DQKDP:3PMBY0YE28B43VMUKKJ6EDF85RV9C8"}
{"meta_move": "drag_end", "rt": "96.0", "trial_number": "0", "pre_actions": "0", "move": "r@16", "instance": "prb29414", "distance_to_goal": "NA", "progress": "NA", "move_number": "10", "optimal_length": "11", "subject": "A191V7PT3DQKDP:3PMBY0YE28B43VMUKKJ6EDF85RV9C8"}
{"meta_move": "drag_end", "rt": "1833.0", "trial_number": "1", "pre_actions": "1", "move": "4@6", "instance": "prb29414", "distance_to_goal": "NA", "progress": "NA", "move_number": "0", "optimal_length": "11", "subject": "A1F4N58CAX8IMK:3TS1AR6UQRM7SOIBWPBN8N9589Y7FV"}
{"meta_move": "drag_end", "rt": "1280.0", "trial_number": "1", "pre_actions": "1", "move": "7@4", "instance": "prb29414", "distance_to_goal": "NA", "progress": "NA", "move_number": "1", "optimal_length": "11", "subject": "A1F4N58CAX8IMK:3TS1AR6UQRM7SOIBWPBN8N9589Y7FV"}
{"meta_move": "drag_end", "rt": "1192.0", "trial_number": "1", "pre_actions": "1", "move": "2@18", "instance": "prb29414", "distance_to_goal": "NA", "progress": "NA", "move_number": "2", "optimal_length": "11", "subject": "A1F4N58CAX8IMK:3TS1AR6UQRM7SOIBWPBN8N9589Y7FV"}
{"meta_move": "drag_end", "rt": "2497.0", "trial_number": "1", "pre_actions": "1", "move": "2@21", "instance": "prb29414", "distance_to_goal": "NA", "progress": "NA", "move_number": "3", "optimal_length": "11", "subject": "A1F4N58CAX8IMK:3TS1AR6UQRM7SOIBWPBN8N9589Y7FV"}
{"meta_move": "drag_end", "rt": "896.0", "trial_number": "1", "pre_actions": "1", "move": "1@20", "instance": "prb29414", "distance_to_goal": "NA", "progress": "NA", "move_number": "4", "optimal_length": "11", "subject": "A1F4N58CAX8IMK:3TS1AR6UQRM7SOIBWPBN8N9589Y7FV"}
{"meta_move": "drag_end", "rt": "895.0", "trial_number": "1", "pre_actions": "1", "move": "0@31", "instance": "prb29414", "distance_to_goal": "NA", "progress": "NA", "move_number": "5", "optimal_length": "11", "subject": "A1F4N58CAX8IMK:3TS1AR6UQRM7SOIBWPBN8N9589Y7FV"}
{"meta_move": "drag_end", "rt": "3073.0", "trial_number": "1", "pre_actions": "1", "move": "6@2", "instance": "prb29414", "distance_to_goal": "NA", "progress": "NA", "move_number": "6", "optimal_length": "11", "subject": "A1F4N58CAX8IMK:3TS1AR6UQRM7SOIBWPBN8N9589Y7FV"}
{"meta_move": "drag_end", "rt": "800.0", "trial_number": "1", "pre_actions": "1", "move": "4@7", "instance": "prb29414", "distance_to_goal": "NA", "progress": "NA", "move_number": "7", "optimal_length": "11", "subject": "A1F4N58CAX8IMK:3TS1AR6UQRM7SOIBWPBN8N9589Y7FV"}
{"meta_move": "drag_end", "rt": "1247.0", "trial_number": "1", "pre_actions": "1", "move": "3@18", "instance": "prb29414", "distance_to_goal": "NA", "progress": "NA", "move_number": "8", "optimal_length": "11", "subject": "A1F4N58CAX8IMK:3TS1AR6UQRM7SOIBWPBN8N9589Y7FV"}
{"meta_move": "drag_end", "rt": "800.0", "trial_number": "1", "pre_actions": "1", "move": "0@30", "instance": "prb29414", "distance_to_goal": "NA", "progress": "NA", "move_number": "9", "optimal_length": "11", "subject": "A1F4N58CAX8IMK:3TS1AR6UQRM7SOIBWPBN8N9589Y7FV"}
{"meta_move": "drag_end", "rt": "697.0", "trial_number": "1", "pre_actions": "1", "move": "1@26", "instance": "prb29414", "distance_to_goal": "NA", "progress": "NA", "move_number": "10", "optimal_length": "11", "subject": "A1F4N58CAX8IMK:3TS1AR6UQRM7SOIBWPBN8N9589Y7FV"}
{"meta_move": "drag_end", "rt": "663.0", "trial_number": "1", "pre_actions": "1", "move": "2@19", "instance": "prb29414", "distance_to_goal": "NA", "progress": "NA", "move_number": "11", "optimal_length": "11", "subject": "A1F4N58CAX8IMK:3TS1AR6UQRM7SOIBWPBN8N9589Y7FV"}
{"meta_move": "drag_end", "rt": "600.0", "trial_number": "1", "pre_actions": "1", "move": "7@22", "instance": "prb29414", "distance_to_goal": "NA", "progress": "NA", "move_number": "12", "optimal_length": "11", "subject": "A1F4N58CAX8IMK:3TS1AR6UQRM7SOIBWPBN8N9589Y7FV"}
{"meta_move": "win", "rt": "644.0", "trial_number": "1", "pre_actions": "1", "move": "r@14", "instance": "prb29414", "distance_to_goal": "1", "progress": "NA", "move_number": "13", "optimal_length": "11", "subject": "A1F4N58CAX8IMK:3TS1AR6UQRM7SOIBWPBN8N9589Y7FV"}
{"meta_move": "drag_end", "rt": "84.0", "trial_number": "0", "pre_actions": "0", "move": "r@16", "instance": "prb29414", "distance_to_goal": "NA", "progress": "NA", "move_number": "13", "optimal_length": "11", "subject": "A1F4N58CAX8IMK:3TS1AR6UQRM7SOIBWPBN8N9589Y7FV"}
{"meta_move": "drag_end", "rt": "5453.0", "trial_number": "1", "pre_actions": "1", "move": "4@9", "instance": "prb29414", "distance_to_goal": "NA", "progress": "NA", "move_number": "0", "optimal_length": "11", "subject": "A1LR0VQIHQUJAM:3YW4XOSQKRTI0K0Z2YPDTDJVFABU1I"}
{"meta_move": "drag_end", "rt": "2040.0", "trial_number": "1", "pre_actions": "1", "move": "4@6", "instance": "prb29414", "distance_to_goal": "NA", "progress": "NA", "move_number": "0", "optimal_length": "11", "subject": "A1LR0VQIHQUJAM:3YW4XOSQKRTI0K0Z2YPDTDJVFABU1I"}
{"meta_move": "drag_end", "rt": "809.0", "trial_number": "1", "pre_actions": "1", "move": "7@4", "instance": "prb29414", "distance_to_goal": "NA", "progress": "NA", "move_number": "1", "optimal_length": "11", "subject": "A1LR0VQIHQUJAM:3YW4XOSQKRTI0K0Z2YPDTDJVFABU1I"}
{"meta_move": "drag_end", "rt": "1889.0", "trial_number": "1", "pre_actions": "1", "move": "2@21", "instance": "prb29414", "distance_to_goal": "NA", "progress": "NA", "move_number": "2", "optimal_length": "11", "subject": "A1LR0VQIHQUJAM:3YW4XOSQKRTI0K0Z2YPDTDJVFABU1I"}
{"meta_move": "drag_end", "rt": "648.0", "trial_number": "1", "pre_actions": "1", "move": "1@20", "instance": "prb29414", "distance_to_goal": "NA", "progress": "NA", "move_number": "3", "optimal_length": "11", "subject": "A1LR0VQIHQUJAM:3YW4XOSQKRTI0K0Z2YPDTDJVFABU1I"}
{"meta_move": "drag_end", "rt": "666.0", "trial_number": "1", "pre_actions": "1", "move": "0@31", "instance": "prb29414", "distance_to_goal": "NA", "progress": "NA", "move_number": "4", "optimal_length": "11", "subject": "A1LR0VQIHQUJAM:3YW4XOSQKRTI0K0Z2YPDTDJVFABU1I"}
{"meta_move": "drag_end", "rt": "9600.0", "trial_number": "1", "pre_actions": "1", "move": "3@18", "instance": "prb29414", "distance_to_goal": "NA", "progress": "NA", "move_number": "5", "optimal_length": "11", "subject": "A1LR0VQIHQUJAM:3YW4XOSQKRTI0K0Z2YPDTDJVFABU1I"}
{"meta_move": "drag_end", "rt": "466.0", "trial_number": "1", "pre_actions": "1", "move": "0@30", "instance": "prb29414", "distance_to_goal": "NA", "progress": "NA", "move_number": "6", "optimal_length": "11", "subject": "A1LR0VQIHQUJAM:3YW4XOSQKRTI0K0Z2YPDTDJVFABU1I"}
{"meta_move": "drag_end", "rt": "452.0", "trial_number": "1", "pre_actions": "1", "move": "1@26", "instance": "prb29414", "distance_to_goal": "NA", "progress": "NA", "move_number": "7", "optimal_length": "11", "subject": "A1LR0VQIHQUJAM:3YW4XOSQKRTI0K0Z2YPDTDJVFABU1I"}
{"meta_move": "drag_end", "rt": "688.0", "trial_number": "1", "pre_actions": "1", "move": "2@19", "instance": "prb29414", "distance_to_goal": "NA", "progress": "NA", "move_number": "8", "optimal_length": "11", "subject": "A1LR0VQIHQUJAM:3YW4XOSQKRTI0K0Z2YPDTDJVFABU1I"}
{"meta_move": "drag_end", "rt": "694.0", "trial_number": "1", "pre_actions": "1", "move": "7@22", "instance": "prb29414", "distance_to_goal": "NA", "progress": "NA", "move_number": "9", "optimal_length": "11", "subject": "A1LR0VQIHQUJAM:3YW4XOSQKRTI0K0Z2YPDTDJVFABU1I"}
{"meta_move": "win", "rt": "576.0", "trial_number": "1", "pre_actions": "1", "move": "r@14", "instance": "prb29414", "distance_to_goal": "1", "progress": "NA", "move_number": "10", "optimal_length": "11", "subject": "A1LR0VQIHQUJAM:3YW4XOSQKRTI0K0Z2YPDTDJVFABU1I"}
{"meta_move": "drag_end", "rt": "60.0", "trial_number": "0", "pre_actions": "0", "move": "r@16", "instance": "prb29414", "distance_to_goal": "NA", "progress": "NA", "move_number": "10", "optimal_length": "11", "subject": "A1LR0VQIHQUJAM:3YW4XOSQKRTI0K0Z2YPDTDJVFABU1I"}
{"meta_move": "drag_end", "rt": "1300.0", "trial_number": "5", "pre_actions": "1", "move": "4@6", "instance": "prb29414", "distance_to_goal": "NA", "progress": "NA", "move_number": "0", "optimal_length": "11", "subject": "A214HWAW1PYWO8:34BBWHLWHBJ6SUL255PK30LEGY5IWG"}
{"meta_move": "drag_end", "rt": "1674.0", "trial_number": "5", "pre_actions": "1", "move": "7@4", "instance": "prb29414", "distance_to_goal": "NA", "progress": "NA", "move_number": "1", "optimal_length": "11", "subject": "A214HWAW1PYWO8:34BBWHLWHBJ6SUL255PK30LEGY5IWG"}
{"meta_move": "drag_end", "rt": "857.0", "trial_number": "5", "pre_actions": "1", "move": "0@33", "instance": "prb29414", "distance_to_goal": "NA", "progress": "NA", "move_number": "2", "optimal_length": "11", "subject": "A214HWAW1PYWO8:34BBWHLWHBJ6SUL255PK30LEGY5IWG"}
{"meta_move": "drag_end", "rt": "818.0", "trial_number": "5", "pre_actions": "1", "move": "2@21", "instance": "prb29414", "distance_to_goal": "NA", "progress": "NA", "move_number": "3", "optimal_length": "11", "subject": "A214HWAW1PYWO8:34BBWHLWHBJ6SUL255PK30LEGY5IWG"}
{"meta_move": "drag_end", "rt": "650.0", "trial_number": "5", "pre_actions": "1", "move": "1@20", "instance": "prb29414", "distance_to_goal": "NA", "progress": "NA", "move_number": "4", "optimal_length": "11", "subject": "A214HWAW1PYWO8:34BBWHLWHBJ6SUL255PK30LEGY5IWG"}
{"meta_move": "drag_end", "rt": "610.0", "trial_number": "5", "pre_actions": "1", "move": "0@31", "instance": "prb29414", "distance_to_goal": "NA", "progress": "NA", "move_number": "5", "optimal_length": "11", "subject": "A214HWAW1PYWO8:34BBWHLWHBJ6SUL255PK30LEGY5IWG"}
{"meta_move": "drag_end", "rt": "1293.0", "trial_number": "5", "pre_actions": "1", "move": "3@18", "instance": "prb29414", "distance_to_goal": "NA", "progress": "NA", "move_number": "6", "optimal_length": "11", "subject": "A214HWAW1PYWO8:34BBWHLWHBJ6SUL255PK30LEGY5IWG"}
{"meta_move": "drag_end", "rt": "475.0", "trial_number": "5", "pre_actions": "1", "move": "0@30", "instance": "prb29414", "distance_to_goal": "NA", "progress": "NA", "move_number": "7", "optimal_length": "11", "subject": "A214HWAW1PYWO8:34BBWHLWHBJ6SUL255PK30LEGY5IWG"}
{"meta_move": "drag_end", "rt": "469.0", "trial_number": "5", "pre_actions": "1", "move": "1@26", "instance": "prb29414", "distance_to_goal": "NA", "progress": "NA", "move_number": "8", "optimal_length": "11", "subject": "A214HWAW1PYWO8:34BBWHLWHBJ6SUL255PK30LEGY5IWG"}
{"meta_move": "drag_end", "rt": "465.0", "trial_number": "5", "pre_actions": "1", "move": "2@19", "instance": "prb29414", "distance_to_goal": "NA", "progress": "NA", "move_number": "9", "optimal_length": "11", "subject": "A214HWAW1PYWO8:34BBWHLWHBJ6SUL255PK30LEGY5IWG"}
{"meta_move": "drag_end", "rt": "637.0", "trial_number": "5", "pre_actions": "1", "move": "7@22", "instance": "prb29414", "distance_to_goal": "NA", "progress": "NA", "move_number": "10", "optimal_length": "11", "subject": "A214HWAW1PYWO8:34BBWHLWHBJ6SUL255PK30LEGY5IWG"}
{"meta_move": "win", "rt": "405.0", "trial_number": "5", "pre_actions": "1", "move": "r@14", "instance": "prb29414", "distance_to_goal": "1", "progress": "NA", "move_number": "11", "optimal_length": "11", "subject": "A214HWAW1PYWO8:34BBWHLWHBJ6SUL255PK30LEGY5IWG"}
{"meta_move": "drag_end", "rt": "22.0", "trial_number": "0", "pre_actions": "0", "move": "r@16", "instance": "prb29414", "distance_to_goal": "NA", "progress": "NA", "move_number": "11", "optimal_length": "11", "subject": "A214HWAW1PYWO8:34BBWHLWHBJ6SUL255PK30LEGY5IWG"}
{"meta_move": "drag_end", "rt": "1457.0", "trial_number": "1", "pre_actions": "1", "move": "4@6", "instance": "prb29414", "distance_to_goal": "NA", "progress": "NA", "move_number": "0", "optimal_length": "11", "subject": "A23437BMZ5T1FH:3IHR8NYAM89M0EPM8U9LH53ZJDTP4U"}
{"meta_move": "drag_end", "rt": "1439.0", "trial_number": "1", "pre_actions": "1", "move": "2@18", "instance": "prb29414", "distance_to_goal": "NA", "progress": "NA", "move_number": "1", "optimal_length": "11", "subject": "A23437BMZ5T1FH:3IHR8NYAM89M0EPM8U9LH53ZJDTP4U"}
{"meta_move": "drag_end", "rt": "1556.0", "trial_number": "1", "pre_actions": "1", "move": "4@9", "instance": "prb29414", "distance_to_goal": "NA", "progress": "NA", "move_number": "2", "optimal_length": "11", "subject": "A23437BMZ5T1FH:3IHR8NYAM89M0EPM8U9LH53ZJDTP4U"}
{"meta_move": "drag_end", "rt": "2338.0", "trial_number": "1", "pre_actions": "1", "move": "4@6", "instance": "prb29414", "distance_to_goal": "NA", "progress": "NA", "move_number": "3", "optimal_length": "11", "subject": "A23437BMZ5T1FH:3IHR8NYAM89M0EPM8U9LH53ZJDTP4U"}
{"meta_move": "drag_end", "rt": "820.0", "trial_number": "1", "pre_actions": "1", "move": "7@4", "instance": "prb29414", "distance_to_goal": "NA", "progress": "NA", "move_number": "4", "optimal_length": "11", "subject": "A23437BMZ5T1FH:3IHR8NYAM89M0EPM8U9LH53ZJDTP4U"}
{"meta_move": "drag_end", "rt": "1702.0", "trial_number": "1", "pre_actions": "1", "move": "2@21", "instance": "prb29414", "distance_to_goal": "NA", "progress": "NA", "move_number": "5", "optimal_length": "11", "subject": "A23437BMZ5T1FH:3IHR8NYAM89M0EPM8U9LH53ZJDTP4U"}
{"meta_move": "drag_end", "rt": "2991.0", "trial_number": "1", "pre_actions": "1", "move": "2@18", "instance": "prb29414", "distance_to_goal": "NA", "progress": "NA", "move_number": "6", "optimal_length": "11", "subject": "A23437BMZ5T1FH:3IHR8NYAM89M0EPM8U9LH53ZJDTP4U"}
{"meta_move": "drag_end", "rt": "1507.0", "trial_number": "1", "pre_actions": "1", "move": "2@21", "instance": "prb29414", "distance_to_goal": "NA", "progress": "NA", "move_number": "7", "optimal_length": "11", "subject": "A23437BMZ5T1FH:3IHR8NYAM89M0EPM8U9LH53ZJDTP4U"}
{"meta_move": "drag_end", "rt": "698.0", "trial_number": "1", "pre_actions": "1", "move": "1@20", "instance": "prb29414", "distance_to_goal": "NA", "progress": "NA", "move_number": "8", "optimal_length": "11", "subject": "A23437BMZ5T1FH:3IHR8NYAM89M0EPM8U9LH53ZJDTP4U"}
{"meta_move": "drag_end", "rt": "775.0", "trial_number": "1", "pre_actions": "1", "move": "3@18", "instance": "prb29414", "distance_to_goal": "NA", "progress": "NA", "move_number": "9", "optimal_length": "11", "subject": "A23437BMZ5T1FH:3IHR8NYAM89M0EPM8U9LH53ZJDTP4U"}
{"meta_move": "drag_end", "rt": "796.0", "trial_number": "1", "pre_actions": "1", "move": "0@30", "instance": "prb29414", "distance_to_goal": "NA", "progress": "NA", "move_number": "10", "optimal_length": "11", "subject": "A23437BMZ5T1FH:3IHR8NYAM89M0EPM8U9LH53ZJDTP4U"}
{"meta_move": "drag_end", "rt": "760.0", "trial_number": "1", "pre_actions": "1", "move": "1@26", "instance": "prb29414", "distance_to_goal": "NA", "progress": "NA", "move_number": "11", "optimal_length": "11", "subject": "A23437BMZ5T1FH:3IHR8NYAM89M0EPM8U9LH53ZJDTP4U"}
{"meta_move": "drag_end", "rt": "686.0", "trial_number": "1", "pre_actions": "1", "move": "2@19", "instance": "prb29414", "distance_to_goal": "NA", "progress": "NA", "move_number": "12", "optimal_length": "11", "subject": "A23437BMZ5T1FH:3IHR8NYAM89M0EPM8U9LH53ZJDTP4U"}
{"meta_move": "drag_end", "rt": "831.0", "trial_number": "1", "pre_actions": "1", "move": "7@22", "instance": "prb29414", "distance_to_goal": "NA", "progress": "NA", "move_number": "13", "optimal_length": "11", "subject": "A23437BMZ5T1FH:3IHR8NYAM89M0EPM8U9LH53ZJDTP4U"}
{"meta_move": "win", "rt": "630.0", "trial_number": "1", "pre_actions": "1", "move": "r@14", "instance": "prb29414", "distance_to_goal": "1", "progress": "NA", "move_number": "14", "optimal_length": "11", "subject": "A23437BMZ5T1FH:3IHR8NYAM89M0EPM8U9LH53ZJDTP4U"}
{"meta_move": "drag_end", "rt": "123.0", "trial_number": "0", "pre_actions": "0", "move": "r@16", "instance": "prb29414", "distance_to_goal": "NA", "progress": "NA", "move_number": "14", "optimal_length": "11", "subject": "A23437BMZ5T1FH:3IHR8NYAM89M0EPM8U9LH53ZJDTP4U"}
{"meta_move": "drag_end", "rt": "7009.0", "trial_number": "1", "pre_actions": "1", "move": "4@6", "instance": "prb29414", "distance_to_goal": "NA", "progress": "NA", "move_number": "0", "optimal_length": "11", "subject": "A289D98Z4GAZ28:3ZV9H2YQQEFR2R3JK2IXZUJPXAF3WW"}
{"meta_move": "drag_end", "rt": "2896.0", "trial_number": "1", "pre_actions": "1", "move": "7@4", "instance": "prb29414", "distance_to_goal": "NA", "progress": "NA", "move_number": "1", "optimal_length": "11", "subject": "A289D98Z4GAZ28:3ZV9H2YQQEFR2R3JK2IXZUJPXAF3WW"}
{"meta_move": "drag_end", "rt": "2080.0", "trial_number": "1", "pre_actions": "1", "move": "2@21", "instance": "prb29414", "distance_to_goal": "NA", "progress": "NA", "move_number": "2", "optimal_length": "11", "subject": "A289D98Z4GAZ28:3ZV9H2YQQEFR2R3JK2IXZUJPXAF3WW"}
{"meta_move": "drag_end", "rt": "905.0", "trial_number": "1", "pre_actions": "1", "move": "1@20", "instance": "prb29414", "distance_to_goal": "NA", "progress": "NA", "move_number": "3", "optimal_length": "11", "subject": "A289D98Z4GAZ28:3ZV9H2YQQEFR2R3JK2IXZUJPXAF3WW"}
{"meta_move": "drag_end", "rt": "1608.0", "trial_number": "1", "pre_actions": "1", "move": "1@26", "instance": "prb29414", "distance_to_goal": "NA", "progress": "NA", "move_number": "4", "optimal_length": "11", "subject": "A289D98Z4GAZ28:3ZV9H2YQQEFR2R3JK2IXZUJPXAF3WW"}
{"meta_move": "drag_end", "rt": "922.0", "trial_number": "1", "pre_actions": "1", "move": "2@18", "instance": "prb29414", "distance_to_goal": "NA", "progress": "NA", "move_number": "5", "optimal_length": "11", "subject": "A289D98Z4GAZ28:3ZV9H2YQQEFR2R3JK2IXZUJPXAF3WW"}
{"meta_move": "drag_end", "rt": "4054.0", "trial_number": "1", "pre_actions": "1", "move": "0@33", "instance": "prb29414", "distance_to_goal": "NA", "progress": "NA", "move_number": "6", "optimal_length": "11", "subject": "A289D98Z4GAZ28:3ZV9H2YQQEFR2R3JK2IXZUJPXAF3WW"}
{"meta_move": "drag_end", "rt": "1324.0", "trial_number": "1", "pre_actions": "1", "move": "2@21", "instance": "prb29414", "distance_to_goal": "NA", "progress": "NA", "move_number": "7", "optimal_length": "11", "subject": "A289D98Z4GAZ28:3ZV9H2YQQEFR2R3JK2IXZUJPXAF3WW"}
{"meta_move": "drag_end", "rt": "767.0", "trial_number": "1", "pre_actions": "1", "move": "1@20", "instance": "prb29414", "distance_to_goal": "NA", "progress": "NA", "move_number": "8", "optimal_length": "11", "subject": "A289D98Z4GAZ28:3ZV9H2YQQEFR2R3JK2IXZUJPXAF3WW"}
{"meta_move": "drag_end", "rt": "827.0", "trial_number": "1", "pre_actions": "1", "move": "0@31", "instance": "prb29414", "distance_to_goal": "NA", "progress": "NA", "move_number": "9", "optimal_length": "11", "subject": "A289D98Z4GAZ28:3ZV9H2YQQEFR2R3JK2IXZUJPXAF3WW"}
{"meta_move": "drag_end", "rt": "842.0", "trial_number": "1", "pre_actions": "1", "move": "3@18", "instance": "prb29414", "distance_to_goal": "NA", "progress": "NA", "move_number": "10", "optimal_length": "11", "subject": "A289D98Z4GAZ28:3ZV9H2YQQEFR2R3JK2IXZUJPXAF3WW"}
{"meta_move": "drag_end", "rt": "843.0", "trial_number": "1", "pre_actions": "1", "move": "0@30", "instance": "prb29414", "distance_to_goal": "NA", "progress": "NA", "move_number": "11", "optimal_length": "11", "subject": "A289D98Z4GAZ28:3ZV9H2YQQEFR2R3JK2IXZUJPXAF3WW"}
{"meta_move": "drag_end", "rt": "1334.0", "trial_number": "1", "pre_actions": "1", "move": "1@26", "instance": "prb29414", "distance_to_goal": "NA", "progress": "NA", "move_number": "12", "optimal_length": "11", "subject": "A289D98Z4GAZ28:3ZV9H2YQQEFR2R3JK2IXZUJPXAF3WW"}
{"meta_move": "drag_end", "rt": "879.0", "trial_number": "1", "pre_actions": "1", "move": "2@19", "instance": "prb29414", "distance_to_goal": "NA", "progress": "NA", "move_number": "13", "optimal_length": "11", "subject": "A289D98Z4GAZ28:3ZV9H2YQQEFR2R3JK2IXZUJPXAF3WW"}
{"meta_move": "drag_end", "rt": "1555.0", "trial_number": "1", "pre_actions": "1", "move": "7@22", "instance": "prb29414", "distance_to_goal": "NA", "progress": "NA", "move_number": "14", "optimal_length": "11", "subject": "A289D98Z4GAZ28:3ZV9H2YQQEFR2R3JK2IXZUJPXAF3WW"}
{"meta_move": "win", "rt": "700.0", "trial_number": "1", "pre_actions": "1", "move": "r@14", "instance": "prb29414", "distance_to_goal": "1", "progress": "NA", "move_number": "15", "optimal_length": "11", "subject": "A289D98Z4GAZ28:3ZV9H2YQQEFR2R3JK2IXZUJPXAF3WW"}
{"meta_move": "drag_end", "rt": "243.0", "trial_number": "0", "pre_actions": "0", "move": "r@16", "instance": "prb29414", "distance_to_goal": "NA", "progress": "NA", "move_number": "15", "optimal_length": "11", "subject": "A289D98Z4GAZ28:3ZV9H2YQQEFR2R3JK2IXZUJPXAF3WW"}
{"meta_move": "drag_end", "rt": "2861.0", "trial_number": "1", "pre_actions": "1", "move": "4@6", "instance": "prb29414", "distance_to_goal": "NA", "progress": "NA", "move_number": "0", "optimal_length": "11", "subject": "A2IBQA01NR5N76:3X4MXAO0BHWJLTOLVSJTHSM54OHWRG"}
{"meta_move": "drag_end", "rt": "972.0", "trial_number": "1", "pre_actions": "1", "move": "7@4", "instance": "prb29414", "distance_to_goal": "NA", "progress": "NA", "move_number": "1", "optimal_length": "11", "subject": "A2IBQA01NR5N76:3X4MXAO0BHWJLTOLVSJTHSM54OHWRG"}
{"meta_move": "drag_end", "rt": "1892.0", "trial_number": "1", "pre_actions": "1", "move": "2@18", "instance": "prb29414", "distance_to_goal": "NA", "progress": "NA", "move_number": "2", "optimal_length": "11", "subject": "A2IBQA01NR5N76:3X4MXAO0BHWJLTOLVSJTHSM54OHWRG"}
{"meta_move": "drag_end", "rt": "6547.0", "trial_number": "1", "pre_actions": "1", "move": "2@21", "instance": "prb29414", "distance_to_goal": "NA", "progress": "NA", "move_number": "3", "optimal_length": "11", "subject": "A2IBQA01NR5N76:3X4MXAO0BHWJLTOLVSJTHSM54OHWRG"}
{"meta_move": "drag_end", "rt": "603.0", "trial_number": "1", "pre_actions": "1", "move": "3@18", "instance": "prb29414", "distance_to_goal": "NA", "progress": "NA", "move_number": "4", "optimal_length": "11", "subject": "A2IBQA01NR5N76:3X4MXAO0BHWJLTOLVSJTHSM54OHWRG"}
{"meta_move": "drag_end", "rt": "438.0", "trial_number": "1", "pre_actions": "1", "move": "1@20", "instance": "prb29414", "distance_to_goal": "NA", "progress": "NA", "move_number": "5", "optimal_length": "11", "subject": "A2IBQA01NR5N76:3X4MXAO0BHWJLTOLVSJTHSM54OHWRG"}
{"meta_move": "drag_end", "rt": "926.0", "trial_number": "1", "pre_actions": "1", "move": "0@30", "instance": "prb29414", "distance_to_goal": "NA", "progress": "NA", "move_number": "6", "optimal_length": "11", "subject": "A2IBQA01NR5N76:3X4MXAO0BHWJLTOLVSJTHSM54OHWRG"}
{"meta_move": "drag_end", "rt": "1034.0", "trial_number": "1", "pre_actions": "1", "move": "1@26", "instance": "prb29414", "distance_to_goal": "NA", "progress": "NA", "move_number": "7", "optimal_length": "11", "subject": "A2IBQA01NR5N76:3X4MXAO0BHWJLTOLVSJTHSM54OHWRG"}
{"meta_move": "drag_end", "rt": "675.0", "trial_number": "1", "pre_actions": "1", "move": "2@19", "instance": "prb29414", "distance_to_goal": "NA", "progress": "NA", "move_number": "8", "optimal_length": "11", "subject": "A2IBQA01NR5N76:3X4MXAO0BHWJLTOLVSJTHSM54OHWRG"}
{"meta_move": "drag_end", "rt": "851.0", "trial_number": "1", "pre_actions": "1", "move": "7@22", "instance": "prb29414", "distance_to_goal": "NA", "progress": "NA", "move_number": "9", "optimal_length": "11", "subject": "A2IBQA01NR5N76:3X4MXAO0BHWJLTOLVSJTHSM54OHWRG"}
{"meta_move": "win", "rt": "578.0", "trial_number": "1", "pre_actions": "1", "move": "r@14", "instance": "prb29414", "distance_to_goal": "1", "progress": "NA", "move_number": "10", "optimal_length": "11", "subject": "A2IBQA01NR5N76:3X4MXAO0BHWJLTOLVSJTHSM54OHWRG"}
{"meta_move": "drag_end", "rt": "985.0", "trial_number": "0", "pre_actions": "0", "move": "r@16", "instance": "prb29414", "distance_to_goal": "NA", "progress": "NA", "move_number": "10", "optimal_length": "11", "subject": "A2IBQA01NR5N76:3X4MXAO0BHWJLTOLVSJTHSM54OHWRG"}
{"meta_move": "drag_end", "rt": "15822.0", "trial_number": "1", "pre_actions": "1", "move": "4@6", "instance": "prb29414", "distance_to_goal": "NA", "progress": "NA", "move_number": "0", "optimal_length": "11", "subject": "A2MYB6MLQW0IGN:3TYCR1GOTDRCCQYD1V64UK7OE48LZS"}
{"meta_move": "drag_end", "rt": "3489.0", "trial_number": "1", "pre_actions": "1", "move": "7@4", "instance": "prb29414", "distance_to_goal": "NA", "progress": "NA", "move_number": "1", "optimal_length": "11", "subject": "A2MYB6MLQW0IGN:3TYCR1GOTDRCCQYD1V64UK7OE48LZS"}
{"meta_move": "drag_end", "rt": "1257.0", "trial_number": "1", "pre_actions": "1", "move": "2@21", "instance": "prb29414", "distance_to_goal": "NA", "progress": "NA", "move_number": "2", "optimal_length": "11", "subject": "A2MYB6MLQW0IGN:3TYCR1GOTDRCCQYD1V64UK7OE48LZS"}
{"meta_move": "drag_end", "rt": "1420.0", "trial_number": "1", "pre_actions": "1", "move": "1@20", "instance": "prb29414", "distance_to_goal": "NA", "progress": "NA", "move_number": "3", "optimal_length": "11", "subject": "A2MYB6MLQW0IGN:3TYCR1GOTDRCCQYD1V64UK7OE48LZS"}
{"meta_move": "drag_end", "rt": "915.0", "trial_number": "1", "pre_actions": "1", "move": "0@31", "instance": "prb29414", "distance_to_goal": "NA", "progress": "NA", "move_number": "4", "optimal_length": "11", "subject": "A2MYB6MLQW0IGN:3TYCR1GOTDRCCQYD1V64UK7OE48LZS"}
{"meta_move": "drag_end", "rt": "2210.0", "trial_number": "1", "pre_actions": "1", "move": "0@34", "instance": "prb29414", "distance_to_goal": "NA", "progress": "NA", "move_number": "5", "optimal_length": "11", "subject": "A2MYB6MLQW0IGN:3TYCR1GOTDRCCQYD1V64UK7OE48LZS"}
{"meta_move": "drag_end", "rt": "897.0", "trial_number": "1", "pre_actions": "1", "move": "3@18", "instance": "prb29414", "distance_to_goal": "NA", "progress": "NA", "move_number": "6", "optimal_length": "11", "subject": "A2MYB6MLQW0IGN:3TYCR1GOTDRCCQYD1V64UK7OE48LZS"}
{"meta_move": "drag_end", "rt": "1167.0", "trial_number": "1", "pre_actions": "1", "move": "0@30", "instance": "prb29414", "distance_to_goal": "NA", "progress": "NA", "move_number": "7", "optimal_length": "11", "subject": "A2MYB6MLQW0IGN:3TYCR1GOTDRCCQYD1V64UK7OE48LZS"}
{"meta_move": "drag_end", "rt": "959.0", "trial_number": "1", "pre_actions": "1", "move": "1@26", "instance": "prb29414", "distance_to_goal": "NA", "progress": "NA", "move_number": "8", "optimal_length": "11", "subject": "A2MYB6MLQW0IGN:3TYCR1GOTDRCCQYD1V64UK7OE48LZS"}
{"meta_move": "drag_end", "rt": "928.0", "trial_number": "1", "pre_actions": "1", "move": "2@19", "instance": "prb29414", "distance_to_goal": "NA", "progress": "NA", "move_number": "9", "optimal_length": "11", "subject": "A2MYB6MLQW0IGN:3TYCR1GOTDRCCQYD1V64UK7OE48LZS"}
{"meta_move": "drag_end", "rt": "2122.0", "trial_number": "1", "pre_actions": "1", "move": "7@10", "instance": "prb29414", "distance_to_goal": "NA", "progress": "NA", "move_number": "10", "optimal_length": "11", "subject": "A2MYB6MLQW0IGN:3TYCR1GOTDRCCQYD1V64UK7OE48LZS"}
{"meta_move": "drag_end", "rt": "1639.0", "trial_number": "1", "pre_actions": "1", "move": "7@22", "instance": "prb29414", "distance_to_goal": "NA", "progress": "NA", "move_number": "11", "optimal_length": "11", "subject": "A2MYB6MLQW0IGN:3TYCR1GOTDRCCQYD1V64UK7OE48LZS"}
{"meta_move": "win", "rt": "830.0", "trial_number": "1", "pre_actions": "1", "move": "r@14", "instance": "prb29414", "distance_to_goal": "1", "progress": "NA", "move_number": "12", "optimal_length": "11", "subject": "A2MYB6MLQW0IGN:3TYCR1GOTDRCCQYD1V64UK7OE48LZS"}
{"meta_move": "drag_end", "rt": "95.0", "trial_number": "0", "pre_actions": "0", "move": "r@16", "instance": "prb29414", "distance_to_goal": "NA", "progress": "NA", "move_number": "12", "optimal_length": "11", "subject": "A2MYB6MLQW0IGN:3TYCR1GOTDRCCQYD1V64UK7OE48LZS"}
{"meta_move": "drag_end", "rt": "8971.0", "trial_number": "1", "pre_actions": "1", "move": "4@6", "instance": "prb29414", "distance_to_goal": "NA", "progress": "NA", "move_number": "0", "optimal_length": "11", "subject": "A2RTJ6BDY0DZVZ:3IJXV6UZ1YR1KY4G6BFEG1DXP7SRI1"}
{"meta_move": "drag_end", "rt": "3782.0", "trial_number": "1", "pre_actions": "1", "move": "7@4", "instance": "prb29414", "distance_to_goal": "NA", "progress": "NA", "move_number": "1", "optimal_length": "11", "subject": "A2RTJ6BDY0DZVZ:3IJXV6UZ1YR1KY4G6BFEG1DXP7SRI1"}
{"meta_move": "drag_end", "rt": "870.0", "trial_number": "1", "pre_actions": "1", "move": "2@21", "instance": "prb29414", "distance_to_goal": "NA", "progress": "NA", "move_number": "2", "optimal_length": "11", "subject": "A2RTJ6BDY0DZVZ:3IJXV6UZ1YR1KY4G6BFEG1DXP7SRI1"}
{"meta_move": "drag_end", "rt": "1229.0", "trial_number": "1", "pre_actions": "1", "move": "1@20", "instance": "prb29414", "distance_to_goal": "NA", "progress": "NA", "move_number": "3", "optimal_length": "11", "subject": "A2RTJ6BDY0DZVZ:3IJXV6UZ1YR1KY4G6BFEG1DXP7SRI1"}
{"meta_move": "drag_end", "rt": "1305.0", "trial_number": "1", "pre_actions": "1", "move": "0@31", "instance": "prb29414", "distance_to_goal": "NA", "progress": "NA", "move_number": "4", "optimal_length": "11", "subject": "A2RTJ6BDY0DZVZ:3IJXV6UZ1YR1KY4G6BFEG1DXP7SRI1"}
{"meta_move": "drag_end", "rt": "898.0", "trial_number": "1", "pre_actions": "1", "move": "3@18", "instance": "prb29414", "distance_to_goal": "NA", "progress": "NA", "move_number": "5", "optimal_length": "11", "subject": "A2RTJ6BDY0DZVZ:3IJXV6UZ1YR1KY4G6BFEG1DXP7SRI1"}
{"meta_move": "drag_end", "rt": "779.0", "trial_number": "1", "pre_actions": "1", "move": "0@30", "instance": "prb29414", "distance_to_goal": "NA", "progress": "NA", "move_number": "6", "optimal_length": "11", "subject": "A2RTJ6BDY0DZVZ:3IJXV6UZ1YR1KY4G6BFEG1DXP7SRI1"}
{"meta_move": "drag_end", "rt": "933.0", "trial_number": "1", "pre_actions": "1", "move": "1@26", "instance": "prb29414", "distance_to_goal": "NA", "progress": "NA", "move_number": "7", "optimal_length": "11", "subject": "A2RTJ6BDY0DZVZ:3IJXV6UZ1YR1KY4G6BFEG1DXP7SRI1"}
{"meta_move": "drag_end", "rt": "1182.0", "trial_number": "1", "pre_actions": "1", "move": "2@19", "instance": "prb29414", "distance_to_goal": "NA", "progress": "NA", "move_number": "8", "optimal_length": "11", "subject": "A2RTJ6BDY0DZVZ:3IJXV6UZ1YR1KY4G6BFEG1DXP7SRI1"}
{"meta_move": "drag_end", "rt": "1070.0", "trial_number": "1", "pre_actions": "1", "move": "7@22", "instance": "prb29414", "distance_to_goal": "NA", "progress": "NA", "move_number": "9", "optimal_length": "11", "subject": "A2RTJ6BDY0DZVZ:3IJXV6UZ1YR1KY4G6BFEG1DXP7SRI1"}
{"meta_move": "win", "rt": "869.0", "trial_number": "1", "pre_actions": "1", "move": "r@14", "instance": "prb29414", "distance_to_goal": "1", "progress": "NA", "move_number": "10", "optimal_length": "11", "subject": "A2RTJ6BDY0DZVZ:3IJXV6UZ1YR1KY4G6BFEG1DXP7SRI1"}
{"meta_move": "drag_end", "rt": "353.0", "trial_number": "0", "pre_actions": "0", "move": "r@16", "instance": "prb29414", "distance_to_goal": "NA", "progress": "NA", "move_number": "10", "optimal_length": "11", "subject": "A2RTJ6BDY0DZVZ:3IJXV6UZ1YR1KY4G6BFEG1DXP7SRI1"}
{"meta_move": "drag_end", "rt": "6502.0", "trial_number": "2", "pre_actions": "1", "move": "0@34", "instance": "prb29414", "distance_to_goal": "NA", "progress": "NA", "move_number": "0", "optimal_length": "11", "subject": "A2TQNX64349OZ9:3WSELTNVR4AZUVYAYCSWZIQW0J4ATB"}
{"meta_move": "drag_end", "rt": "935.0", "trial_number": "2", "pre_actions": "1", "move": "2@18", "instance": "prb29414", "distance_to_goal": "NA", "progress": "NA", "move_number": "0", "optimal_length": "11", "subject": "A2TQNX64349OZ9:3WSELTNVR4AZUVYAYCSWZIQW0J4ATB"}
{"meta_move": "drag_end", "rt": "1480.0", "trial_number": "2", "pre_actions": "1", "move": "4@6", "instance": "prb29414", "distance_to_goal": "NA", "progress": "NA", "move_number": "1", "optimal_length": "11", "subject": "A2TQNX64349OZ9:3WSELTNVR4AZUVYAYCSWZIQW0J4ATB"}
{"meta_move": "drag_end", "rt": "975.0", "trial_number": "2", "pre_actions": "1", "move": "7@4", "instance": "prb29414", "distance_to_goal": "NA", "progress": "NA", "move_number": "2", "optimal_length": "11", "subject": "A2TQNX64349OZ9:3WSELTNVR4AZUVYAYCSWZIQW0J4ATB"}
{"meta_move": "drag_end", "rt": "1019.0", "trial_number": "2", "pre_actions": "1", "move": "0@33", "instance": "prb29414", "distance_to_goal": "NA", "progress": "NA", "move_number": "3", "optimal_length": "11", "subject": "A2TQNX64349OZ9:3WSELTNVR4AZUVYAYCSWZIQW0J4ATB"}
{"meta_move": "drag_end", "rt": "1094.0", "trial_number": "2", "pre_actions": "1", "move": "6@2", "instance": "prb29414", "distance_to_goal": "NA", "progress": "NA", "move_number": "4", "optimal_length": "11", "subject": "A2TQNX64349OZ9:3WSELTNVR4AZUVYAYCSWZIQW0J4ATB"}
{"meta_move": "drag_end", "rt": "642.0", "trial_number": "2", "pre_actions": "1", "move": "4@7", "instance": "prb29414", "distance_to_goal": "NA", "progress": "NA", "move_number": "5", "optimal_length": "11", "subject": "A2TQNX64349OZ9:3WSELTNVR4AZUVYAYCSWZIQW0J4ATB"}
{"meta_move": "drag_end", "rt": "848.0", "trial_number": "2", "pre_actions": "1", "move": "5@12", "instance": "prb29414", "distance_to_goal": "NA", "progress": "NA", "move_number": "6", "optimal_length": "11", "subject": "A2TQNX64349OZ9:3WSELTNVR4AZUVYAYCSWZIQW0J4ATB"}
{"meta_move": "drag_end", "rt": "558.0", "trial_number": "2", "pre_actions": "1", "move": "2@21", "instance": "prb29414", "distance_to_goal": "NA", "progress": "NA", "move_number": "6", "optimal_length": "11", "subject": "A2TQNX64349OZ9:3WSELTNVR4AZUVYAYCSWZIQW0J4ATB"}
{"meta_move": "drag_end", "rt": "1119.0", "trial_number": "2", "pre_actions": "1", "move": "1@20", "instance": "prb29414", "distance_to_goal": "NA", "progress": "NA", "move_number": "7", "optimal_length": "11", "subject": "A2TQNX64349OZ9:3WSELTNVR4AZUVYAYCSWZIQW0J4ATB"}
{"meta_move": "drag_end", "rt": "1196.0", "trial_number": "2", "pre_actions": "1", "move": "3@18", "instance": "prb29414", "distance_to_goal": "NA", "progress": "NA", "move_number": "8", "optimal_length": "11", "subject": "A2TQNX64349OZ9:3WSELTNVR4AZUVYAYCSWZIQW0J4ATB"}
{"meta_move": "drag_end", "rt": "1320.0", "trial_number": "2", "pre_actions": "1", "move": "7@4", "instance": "prb29414", "distance_to_goal": "NA", "progress": "NA", "move_number": "9", "optimal_length": "11", "subject": "A2TQNX64349OZ9:3WSELTNVR4AZUVYAYCSWZIQW0J4ATB"}
{"meta_move": "drag_end", "rt": "602.0", "trial_number": "2", "pre_actions": "1", "move": "2@21", "instance": "prb29414", "distance_to_goal": "NA", "progress": "NA", "move_number": "9", "optimal_length": "11", "subject": "A2TQNX64349OZ9:3WSELTNVR4AZUVYAYCSWZIQW0J4ATB"}
{"meta_move": "drag_end", "rt": "455.0", "trial_number": "2", "pre_actions": "1", "move": "0@30", "instance": "prb29414", "distance_to_goal": "NA", "progress": "NA", "move_number": "9", "optimal_length": "11", "subject": "A2TQNX64349OZ9:3WSELTNVR4AZUVYAYCSWZIQW0J4ATB"}
{"meta_move": "drag_end", "rt": "861.0", "trial_number": "2", "pre_actions": "1", "move": "2@21", "instance": "prb29414", "distance_to_goal": "NA", "progress": "NA", "move_number": "10", "optimal_length": "11", "subject": "A2TQNX64349OZ9:3WSELTNVR4AZUVYAYCSWZIQW0J4ATB"}
{"meta_move": "drag_end", "rt": "604.0", "trial_number": "2", "pre_actions": "1", "move": "1@26", "instance": "prb29414", "distance_to_goal": "NA", "progress": "NA", "move_number": "10", "optimal_length": "11", "subject": "A2TQNX64349OZ9:3WSELTNVR4AZUVYAYCSWZIQW0J4ATB"}
{"meta_move": "drag_end", "rt": "856.0", "trial_number": "2", "pre_actions": "1", "move": "2@19", "instance": "prb29414", "distance_to_goal": "NA", "progress": "NA", "move_number": "11", "optimal_length": "11", "subject": "A2TQNX64349OZ9:3WSELTNVR4AZUVYAYCSWZIQW0J4ATB"}
{"meta_move": "drag_end", "rt": "962.0", "trial_number": "2", "pre_actions": "1", "move": "7@22", "instance": "prb29414", "distance_to_goal": "NA", "progress": "NA", "move_number": "12", "optimal_length": "11", "subject": "A2TQNX64349OZ9:3WSELTNVR4AZUVYAYCSWZIQW0J4ATB"}
{"meta_move": "win", "rt": "621.0", "trial_number": "2", "pre_actions": "1", "move": "r@14", "instance": "prb29414", "distance_to_goal": "1", "progress": "NA", "move_number": "13", "optimal_length": "11", "subject": "A2TQNX64349OZ9:3WSELTNVR4AZUVYAYCSWZIQW0J4ATB"}
{"meta_move": "drag_end", "rt": "226.0", "trial_number": "0", "pre_actions": "0", "move": "r@16", "instance": "prb29414", "distance_to_goal": "NA", "progress": "NA", "move_number": "13", "optimal_length": "11", "subject": "A2TQNX64349OZ9:3WSELTNVR4AZUVYAYCSWZIQW0J4ATB"}
{"meta_move": "drag_end", "rt": "78743.0", "trial_number": "1", "pre_actions": "1", "move": "4@7", "instance": "prb29414", "distance_to_goal": "NA", "progress": "NA", "move_number": "0", "optimal_length": "11", "subject": "A39GADIK8RLMVC:36AHBNMV1SKT9O0GSS6XX0QHZV3YDN"}
{"meta_move": "drag_end", "rt": "1680.0", "trial_number": "1", "pre_actions": "1", "move": "7@4", "instance": "prb29414", "distance_to_goal": "NA", "progress": "NA", "move_number": "1", "optimal_length": "11", "subject": "A39GADIK8RLMVC:36AHBNMV1SKT9O0GSS6XX0QHZV3YDN"}
{"meta_move": "drag_end", "rt": "1784.0", "trial_number": "1", "pre_actions": "1", "move": "2@21", "instance": "prb29414", "distance_to_goal": "NA", "progress": "NA", "move_number": "2", "optimal_length": "11", "subject": "A39GADIK8RLMVC:36AHBNMV1SKT9O0GSS6XX0QHZV3YDN"}
{"meta_move": "drag_end", "rt": "1889.0", "trial_number": "1", "pre_actions": "1", "move": "1@20", "instance": "prb29414", "distance_to_goal": "NA", "progress": "NA", "move_number": "3", "optimal_length": "11", "subject": "A39GADIK8RLMVC:36AHBNMV1SKT9O0GSS6XX0QHZV3YDN"}
{"meta_move": "drag_end", "rt": "1855.0", "trial_number": "1", "pre_actions": "1", "move": "3@18", "instance": "prb29414", "distance_to_goal": "NA", "progress": "NA", "move_number": "4", "optimal_length": "11", "subject": "A39GADIK8RLMVC:36AHBNMV1SKT9O0GSS6XX0QHZV3YDN"}
{"meta_move": "drag_end", "rt": "1959.0", "trial_number": "1", "pre_actions": "1", "move": "0@30", "instance": "prb29414", "distance_to_goal": "NA", "progress": "NA", "move_number": "5", "optimal_length": "11", "subject": "A39GADIK8RLMVC:36AHBNMV1SKT9O0GSS6XX0QHZV3YDN"}
{"meta_move": "drag_end", "rt": "1956.0", "trial_number": "1", "pre_actions": "1", "move": "1@26", "instance": "prb29414", "distance_to_goal": "NA", "progress": "NA", "move_number": "6", "optimal_length": "11", "subject": "A39GADIK8RLMVC:36AHBNMV1SKT9O0GSS6XX0QHZV3YDN"}
{"meta_move": "drag_end", "rt": "2230.0", "trial_number": "1", "pre_actions": "1", "move": "2@19", "instance": "prb29414", "distance_to_goal": "NA", "progress": "NA", "move_number": "7", "optimal_length": "11", "subject": "A39GADIK8RLMVC:36AHBNMV1SKT9O0GSS6XX0QHZV3YDN"}
{"meta_move": "drag_end", "rt": "2063.0", "trial_number": "1", "pre_actions": "1", "move": "7@22", "instance": "prb29414", "distance_to_goal": "NA", "progress": "NA", "move_number": "8", "optimal_length": "11", "subject": "A39GADIK8RLMVC:36AHBNMV1SKT9O0GSS6XX0QHZV3YDN"}
{"meta_move": "win", "rt": "521.0", "trial_number": "1", "pre_actions": "1", "move": "r@14", "instance": "prb29414", "distance_to_goal": "1", "progress": "NA", "move_number": "9", "optimal_length": "11", "subject": "A39GADIK8RLMVC:36AHBNMV1SKT9O0GSS6XX0QHZV3YDN"}
{"meta_move": "drag_end", "rt": "143.0", "trial_number": "0", "pre_actions": "0", "move": "r@16", "instance": "prb29414", "distance_to_goal": "NA", "progress": "NA", "move_number": "9", "optimal_length": "11", "subject": "A39GADIK8RLMVC:36AHBNMV1SKT9O0GSS6XX0QHZV3YDN"}
{"meta_move": "drag_end", "rt": "7994.0", "trial_number": "1", "pre_actions": "1", "move": "6@4", "instance": "prb29414", "distance_to_goal": "NA", "progress": "NA", "move_number": "0", "optimal_length": "11", "subject": "A3NMQ3019X6YE0:3I2PTA7R3U2SESF4TZBQORI5LSJQKK"}
{"meta_move": "drag_end", "rt": "1641.0", "trial_number": "1", "pre_actions": "1", "move": "6@0", "instance": "prb29414", "distance_to_goal": "NA", "progress": "NA", "move_number": "1", "optimal_length": "11", "subject": "A3NMQ3019X6YE0:3I2PTA7R3U2SESF4TZBQORI5LSJQKK"}
{"meta_move": "drag_end", "rt": "1143.0", "trial_number": "1", "pre_actions": "1", "move": "4@6", "instance": "prb29414", "distance_to_goal": "NA", "progress": "NA", "move_number": "2", "optimal_length": "11", "subject": "A3NMQ3019X6YE0:3I2PTA7R3U2SESF4TZBQORI5LSJQKK"}
{"meta_move": "drag_end", "rt": "1880.0", "trial_number": "1", "pre_actions": "1", "move": "7@4", "instance": "prb29414", "distance_to_goal": "NA", "progress": "NA", "move_number": "3", "optimal_length": "11", "subject": "A3NMQ3019X6YE0:3I2PTA7R3U2SESF4TZBQORI5LSJQKK"}
{"meta_move": "drag_end", "rt": "1784.0", "trial_number": "1", "pre_actions": "1", "move": "2@18", "instance": "prb29414", "distance_to_goal": "NA", "progress": "NA", "move_number": "4", "optimal_length": "11", "subject": "A3NMQ3019X6YE0:3I2PTA7R3U2SESF4TZBQORI5LSJQKK"}
{"meta_move": "drag_end", "rt": "2634.0", "trial_number": "1", "pre_actions": "1", "move": "2@20", "instance": "prb29414", "distance_to_goal": "NA", "progress": "NA", "move_number": "5", "optimal_length": "11", "subject": "A3NMQ3019X6YE0:3I2PTA7R3U2SESF4TZBQORI5LSJQKK"}
{"meta_move": "drag_end", "rt": "2030.0", "trial_number": "1", "pre_actions": "1", "move": "3@18", "instance": "prb29414", "distance_to_goal": "NA", "progress": "NA", "move_number": "6", "optimal_length": "11", "subject": "A3NMQ3019X6YE0:3I2PTA7R3U2SESF4TZBQORI5LSJQKK"}
{"meta_move": "drag_end", "rt": "1490.0", "trial_number": "1", "pre_actions": "1", "move": "2@19", "instance": "prb29414", "distance_to_goal": "NA", "progress": "NA", "move_number": "7", "optimal_length": "11", "subject": "A3NMQ3019X6YE0:3I2PTA7R3U2SESF4TZBQORI5LSJQKK"}
{"meta_move": "drag_end", "rt": "1878.0", "trial_number": "1", "pre_actions": "1", "move": "0@33", "instance": "prb29414", "distance_to_goal": "NA", "progress": "NA", "move_number": "8", "optimal_length": "11", "subject": "A3NMQ3019X6YE0:3I2PTA7R3U2SESF4TZBQORI5LSJQKK"}
{"meta_move": "drag_end", "rt": "1570.0", "trial_number": "1", "pre_actions": "1", "move": "6@2", "instance": "prb29414", "distance_to_goal": "NA", "progress": "NA", "move_number": "9", "optimal_length": "11", "subject": "A3NMQ3019X6YE0:3I2PTA7R3U2SESF4TZBQORI5LSJQKK"}
{"meta_move": "drag_end", "rt": "856.0", "trial_number": "1", "pre_actions": "1", "move": "4@7", "instance": "prb29414", "distance_to_goal": "NA", "progress": "NA", "move_number": "10", "optimal_length": "11", "subject": "A3NMQ3019X6YE0:3I2PTA7R3U2SESF4TZBQORI5LSJQKK"}
{"meta_move": "drag_end", "rt": "1429.0", "trial_number": "1", "pre_actions": "1", "move": "7@16", "instance": "prb29414", "distance_to_goal": "NA", "progress": "NA", "move_number": "11", "optimal_length": "11", "subject": "A3NMQ3019X6YE0:3I2PTA7R3U2SESF4TZBQORI5LSJQKK"}
{"meta_move": "drag_end", "rt": "1860.0", "trial_number": "1", "pre_actions": "1", "move": "0@34", "instance": "prb29414", "distance_to_goal": "NA", "progress": "NA", "move_number": "12", "optimal_length": "11", "subject": "A3NMQ3019X6YE0:3I2PTA7R3U2SESF4TZBQORI5LSJQKK"}
{"meta_move": "drag_end", "rt": "1762.0", "trial_number": "1", "pre_actions": "1", "move": "7@4", "instance": "prb29414", "distance_to_goal": "NA", "progress": "NA", "move_number": "13", "optimal_length": "11", "subject": "A3NMQ3019X6YE0:3I2PTA7R3U2SESF4TZBQORI5LSJQKK"}
{"meta_move": "drag_end", "rt": "1876.0", "trial_number": "1", "pre_actions": "1", "move": "2@21", "instance": "prb29414", "distance_to_goal": "NA", "progress": "NA", "move_number": "14", "optimal_length": "11", "subject": "A3NMQ3019X6YE0:3I2PTA7R3U2SESF4TZBQORI5LSJQKK"}
{"meta_move": "drag_end", "rt": "1412.0", "trial_number": "1", "pre_actions": "1", "move": "1@20", "instance": "prb29414", "distance_to_goal": "NA", "progress": "NA", "move_number": "15", "optimal_length": "11", "subject": "A3NMQ3019X6YE0:3I2PTA7R3U2SESF4TZBQORI5LSJQKK"}
{"meta_move": "drag_end", "rt": "1232.0", "trial_number": "1", "pre_actions": "1", "move": "3@24", "instance": "prb29414", "distance_to_goal": "NA", "progress": "NA", "move_number": "16", "optimal_length": "11", "subject": "A3NMQ3019X6YE0:3I2PTA7R3U2SESF4TZBQORI5LSJQKK"}
{"meta_move": "drag_end", "rt": "1924.0", "trial_number": "1", "pre_actions": "1", "move": "1@26", "instance": "prb29414", "distance_to_goal": "NA", "progress": "NA", "move_number": "17", "optimal_length": "11", "subject": "A3NMQ3019X6YE0:3I2PTA7R3U2SESF4TZBQORI5LSJQKK"}
{"meta_move": "drag_end", "rt": "1832.0", "trial_number": "1", "pre_actions": "1", "move": "2@18", "instance": "prb29414", "distance_to_goal": "NA", "progress": "NA", "move_number": "18", "optimal_length": "11", "subject": "A3NMQ3019X6YE0:3I2PTA7R3U2SESF4TZBQORI5LSJQKK"}
{"meta_move": "drag_end", "rt": "3329.0", "trial_number": "1", "pre_actions": "1", "move": "4@6", "instance": "prb29414", "distance_to_goal": "NA", "progress": "NA", "move_number": "19", "optimal_length": "11", "subject": "A3NMQ3019X6YE0:3I2PTA7R3U2SESF4TZBQORI5LSJQKK"}
{"meta_move": "drag_end", "rt": "903.0", "trial_number": "1", "pre_actions": "1", "move": "6@0", "instance": "prb29414", "distance_to_goal": "NA", "progress": "NA", "move_number": "20", "optimal_length": "11", "subject": "A3NMQ3019X6YE0:3I2PTA7R3U2SESF4TZBQORI5LSJQKK"}
{"meta_move": "drag_end", "rt": "3778.0", "trial_number": "1", "pre_actions": "1", "move": "2@21", "instance": "prb29414", "distance_to_goal": "NA", "progress": "NA", "move_number": "21", "optimal_length": "11", "subject": "A3NMQ3019X6YE0:3I2PTA7R3U2SESF4TZBQORI5LSJQKK"}
{"meta_move": "drag_end", "rt": "1182.0", "trial_number": "1", "pre_actions": "1", "move": "2@18", "instance": "prb29414", "distance_to_goal": "NA", "progress": "NA", "move_number": "22", "optimal_length": "11", "subject": "A3NMQ3019X6YE0:3I2PTA7R3U2SESF4TZBQORI5LSJQKK"}
{"meta_move": "drag_end", "rt": "1167.0", "trial_number": "1", "pre_actions": "1", "move": "7@16", "instance": "prb29414", "distance_to_goal": "NA", "progress": "NA", "move_number": "23", "optimal_length": "11", "subject": "A3NMQ3019X6YE0:3I2PTA7R3U2SESF4TZBQORI5LSJQKK"}
{"meta_move": "drag_end", "rt": "3606.0", "trial_number": "1", "pre_actions": "1", "move": "4@9", "instance": "prb29414", "distance_to_goal": "NA", "progress": "NA", "move_number": "24", "optimal_length": "11", "subject": "A3NMQ3019X6YE0:3I2PTA7R3U2SESF4TZBQORI5LSJQKK"}
{"meta_move": "drag_end", "rt": "5626.0", "trial_number": "1", "pre_actions": "1", "move": "2@19", "instance": "prb29414", "distance_to_goal": "NA", "progress": "NA", "move_number": "25", "optimal_length": "11", "subject": "A3NMQ3019X6YE0:3I2PTA7R3U2SESF4TZBQORI5LSJQKK"}
{"meta_move": "drag_end", "rt": "1109.0", "trial_number": "1", "pre_actions": "1", "move": "3@18", "instance": "prb29414", "distance_to_goal": "NA", "progress": "NA", "move_number": "26", "optimal_length": "11", "subject": "A3NMQ3019X6YE0:3I2PTA7R3U2SESF4TZBQORI5LSJQKK"}
{"meta_move": "drag_end", "rt": "1596.0", "trial_number": "1", "pre_actions": "1", "move": "0@34", "instance": "prb29414", "distance_to_goal": "NA", "progress": "NA", "move_number": "27", "optimal_length": "11", "subject": "A3NMQ3019X6YE0:3I2PTA7R3U2SESF4TZBQORI5LSJQKK"}
{"meta_move": "drag_end", "rt": "937.0", "trial_number": "1", "pre_actions": "1", "move": "0@33", "instance": "prb29414", "distance_to_goal": "NA", "progress": "NA", "move_number": "27", "optimal_length": "11", "subject": "A3NMQ3019X6YE0:3I2PTA7R3U2SESF4TZBQORI5LSJQKK"}
{"meta_move": "drag_end", "rt": "1905.0", "trial_number": "1", "pre_actions": "1", "move": "0@34", "instance": "prb29414", "distance_to_goal": "NA", "progress": "NA", "move_number": "28", "optimal_length": "11", "subject": "A3NMQ3019X6YE0:3I2PTA7R3U2SESF4TZBQORI5LSJQKK"}
{"meta_move": "drag_end", "rt": "1829.0", "trial_number": "1", "pre_actions": "1", "move": "4@7", "instance": "prb29414", "distance_to_goal": "NA", "progress": "NA", "move_number": "29", "optimal_length": "11", "subject": "A3NMQ3019X6YE0:3I2PTA7R3U2SESF4TZBQORI5LSJQKK"}
{"meta_move": "drag_end", "rt": "1078.0", "trial_number": "1", "pre_actions": "1", "move": "7@4", "instance": "prb29414", "distance_to_goal": "NA", "progress": "NA", "move_number": "30", "optimal_length": "11", "subject": "A3NMQ3019X6YE0:3I2PTA7R3U2SESF4TZBQORI5LSJQKK"}
{"meta_move": "drag_end", "rt": "3846.0", "trial_number": "1", "pre_actions": "1", "move": "2@21", "instance": "prb29414", "distance_to_goal": "NA", "progress": "NA", "move_number": "31", "optimal_length": "11", "subject": "A3NMQ3019X6YE0:3I2PTA7R3U2SESF4TZBQORI5LSJQKK"}
{"meta_move": "drag_end", "rt": "1300.0", "trial_number": "1", "pre_actions": "1", "move": "1@20", "instance": "prb29414", "distance_to_goal": "NA", "progress": "NA", "move_number": "32", "optimal_length": "11", "subject": "A3NMQ3019X6YE0:3I2PTA7R3U2SESF4TZBQORI5LSJQKK"}
{"meta_move": "drag_end", "rt": "1264.0", "trial_number": "1", "pre_actions": "1", "move": "0@30", "instance": "prb29414", "distance_to_goal": "NA", "progress": "NA", "move_number": "33", "optimal_length": "11", "subject": "A3NMQ3019X6YE0:3I2PTA7R3U2SESF4TZBQORI5LSJQKK"}
{"meta_move": "drag_end", "rt": "1847.0", "trial_number": "1", "pre_actions": "1", "move": "1@26", "instance": "prb29414", "distance_to_goal": "NA", "progress": "NA", "move_number": "34", "optimal_length": "11", "subject": "A3NMQ3019X6YE0:3I2PTA7R3U2SESF4TZBQORI5LSJQKK"}
{"meta_move": "drag_end", "rt": "1978.0", "trial_number": "1", "pre_actions": "1", "move": "2@19", "instance": "prb29414", "distance_to_goal": "NA", "progress": "NA", "move_number": "35", "optimal_length": "11", "subject": "A3NMQ3019X6YE0:3I2PTA7R3U2SESF4TZBQORI5LSJQKK"}
{"meta_move": "drag_end", "rt": "1040.0", "trial_number": "1", "pre_actions": "1", "move": "7@22", "instance": "prb29414", "distance_to_goal": "NA", "progress": "NA", "move_number": "36", "optimal_length": "11", "subject": "A3NMQ3019X6YE0:3I2PTA7R3U2SESF4TZBQORI5LSJQKK"}
{"meta_move": "win", "rt": "895.0", "trial_number": "1", "pre_actions": "1", "move": "r@14", "instance": "prb29414", "distance_to_goal": "1", "progress": "NA", "move_number": "37", "optimal_length": "11", "subject": "A3NMQ3019X6YE0:3I2PTA7R3U2SESF4TZBQORI5LSJQKK"}
{"meta_move": "drag_end", "rt": "186.0", "trial_number": "0", "pre_actions": "0", "move": "r@16", "instance": "prb29414", "distance_to_goal": "NA", "progress": "NA", "move_number": "37", "optimal_length": "11", "subject": "A3NMQ3019X6YE0:3I2PTA7R3U2SESF4TZBQORI5LSJQKK"}
{"meta_move": "drag_end", "rt": "5254.0", "trial_number": "1", "pre_actions": "1", "move": "4@6", "instance": "prb29414", "distance_to_goal": "NA", "progress": "NA", "move_number": "0", "optimal_length": "11", "subject": "A3Q0XAGQ7TD7MP:3X87C8JFV7JQ2BSCY8KSFD9F2ILSQK"}
{"meta_move": "drag_end", "rt": "1408.0", "trial_number": "1", "pre_actions": "1", "move": "7@4", "instance": "prb29414", "distance_to_goal": "NA", "progress": "NA", "move_number": "1", "optimal_length": "11", "subject": "A3Q0XAGQ7TD7MP:3X87C8JFV7JQ2BSCY8KSFD9F2ILSQK"}
{"meta_move": "drag_end", "rt": "1567.0", "trial_number": "1", "pre_actions": "1", "move": "2@18", "instance": "prb29414", "distance_to_goal": "NA", "progress": "NA", "move_number": "2", "optimal_length": "11", "subject": "A3Q0XAGQ7TD7MP:3X87C8JFV7JQ2BSCY8KSFD9F2ILSQK"}
{"meta_move": "drag_end", "rt": "1815.0", "trial_number": "1", "pre_actions": "1", "move": "0@33", "instance": "prb29414", "distance_to_goal": "NA", "progress": "NA", "move_number": "3", "optimal_length": "11", "subject": "A3Q0XAGQ7TD7MP:3X87C8JFV7JQ2BSCY8KSFD9F2ILSQK"}
{"meta_move": "drag_end", "rt": "3983.0", "trial_number": "1", "pre_actions": "1", "move": "7@4", "instance": "prb29414", "distance_to_goal": "NA", "progress": "NA", "move_number": "4", "optimal_length": "11", "subject": "A3Q0XAGQ7TD7MP:3X87C8JFV7JQ2BSCY8KSFD9F2ILSQK"}
{"meta_move": "drag_end", "rt": "4128.0", "trial_number": "1", "pre_actions": "1", "move": "2@21", "instance": "prb29414", "distance_to_goal": "NA", "progress": "NA", "move_number": "4", "optimal_length": "11", "subject": "A3Q0XAGQ7TD7MP:3X87C8JFV7JQ2BSCY8KSFD9F2ILSQK"}
{"meta_move": "drag_end", "rt": "2200.0", "trial_number": "1", "pre_actions": "1", "move": "1@20", "instance": "prb29414", "distance_to_goal": "NA", "progress": "NA", "move_number": "5", "optimal_length": "11", "subject": "A3Q0XAGQ7TD7MP:3X87C8JFV7JQ2BSCY8KSFD9F2ILSQK"}
{"meta_move": "drag_end", "rt": "1149.0", "trial_number": "1", "pre_actions": "1", "move": "0@31", "instance": "prb29414", "distance_to_goal": "NA", "progress": "NA", "move_number": "6", "optimal_length": "11", "subject": "A3Q0XAGQ7TD7MP:3X87C8JFV7JQ2BSCY8KSFD9F2ILSQK"}
{"meta_move": "drag_end", "rt": "2419.0", "trial_number": "1", "pre_actions": "1", "move": "4@7", "instance": "prb29414", "distance_to_goal": "NA", "progress": "NA", "move_number": "7", "optimal_length": "11", "subject": "A3Q0XAGQ7TD7MP:3X87C8JFV7JQ2BSCY8KSFD9F2ILSQK"}
{"meta_move": "drag_end", "rt": "1415.0", "trial_number": "1", "pre_actions": "1", "move": "4@6", "instance": "prb29414", "distance_to_goal": "NA", "progress": "NA", "move_number": "8", "optimal_length": "11", "subject": "A3Q0XAGQ7TD7MP:3X87C8JFV7JQ2BSCY8KSFD9F2ILSQK"}
{"meta_move": "drag_end", "rt": "2463.0", "trial_number": "1", "pre_actions": "1", "move": "4@6", "instance": "prb29414", "distance_to_goal": "NA", "progress": "NA", "move_number": "0", "optimal_length": "11", "subject": "A3VZJ2T28HAQ2A:3VBEN272ML7ZPMYYVCFGLZ5DV7CGS0"}
{"meta_move": "drag_end", "rt": "1231.0", "trial_number": "2", "pre_actions": "1", "move": "4@9", "instance": "prb29414", "distance_to_goal": "NA", "progress": "NA", "move_number": "1", "optimal_length": "11", "subject": "A3VZJ2T28HAQ2A:3VBEN272ML7ZPMYYVCFGLZ5DV7CGS0"}
{"meta_move": "drag_end", "rt": "1956.0", "trial_number": "2", "pre_actions": "1", "move": "4@9", "instance": "prb29414", "distance_to_goal": "NA", "progress": "NA", "move_number": "1", "optimal_length": "11", "subject": "A3VZJ2T28HAQ2A:3VBEN272ML7ZPMYYVCFGLZ5DV7CGS0"}
{"meta_move": "drag_end", "rt": "696.0", "trial_number": "2", "pre_actions": "1", "move": "6@4", "instance": "prb29414", "distance_to_goal": "NA", "progress": "NA", "move_number": "1", "optimal_length": "11", "subject": "A3VZJ2T28HAQ2A:3VBEN272ML7ZPMYYVCFGLZ5DV7CGS0"}
{"meta_move": "drag_end", "rt": "1516.0", "trial_number": "2", "pre_actions": "1", "move": "6@2", "instance": "prb29414", "distance_to_goal": "NA", "progress": "NA", "move_number": "2", "optimal_length": "11", "subject": "A3VZJ2T28HAQ2A:3VBEN272ML7ZPMYYVCFGLZ5DV7CGS0"}
{"meta_move": "drag_end", "rt": "982.0", "trial_number": "2", "pre_actions": "1", "move": "4@9", "instance": "prb29414", "distance_to_goal": "NA", "progress": "NA", "move_number": "3", "optimal_length": "11", "subject": "A3VZJ2T28HAQ2A:3VBEN272ML7ZPMYYVCFGLZ5DV7CGS0"}
{"meta_move": "drag_end", "rt": "1461.0", "trial_number": "2", "pre_actions": "1", "move": "2@18", "instance": "prb29414", "distance_to_goal": "NA", "progress": "NA", "move_number": "3", "optimal_length": "11", "subject": "A3VZJ2T28HAQ2A:3VBEN272ML7ZPMYYVCFGLZ5DV7CGS0"}
{"meta_move": "drag_end", "rt": "857.0", "trial_number": "2", "pre_actions": "1", "move": "7@16", "instance": "prb29414", "distance_to_goal": "NA", "progress": "NA", "move_number": "4", "optimal_length": "11", "subject": "A3VZJ2T28HAQ2A:3VBEN272ML7ZPMYYVCFGLZ5DV7CGS0"}
{"meta_move": "drag_end", "rt": "552.0", "trial_number": "2", "pre_actions": "1", "move": "0@33", "instance": "prb29414", "distance_to_goal": "NA", "progress": "NA", "move_number": "4", "optimal_length": "11", "subject": "A3VZJ2T28HAQ2A:3VBEN272ML7ZPMYYVCFGLZ5DV7CGS0"}
{"meta_move": "drag_end", "rt": "1220.0", "trial_number": "2", "pre_actions": "1", "move": "4@9", "instance": "prb29414", "distance_to_goal": "NA", "progress": "NA", "move_number": "5", "optimal_length": "11", "subject": "A3VZJ2T28HAQ2A:3VBEN272ML7ZPMYYVCFGLZ5DV7CGS0"}
{"meta_move": "drag_end", "rt": "558.0", "trial_number": "2", "pre_actions": "1", "move": "4@9", "instance": "prb29414", "distance_to_goal": "NA", "progress": "NA", "move_number": "5", "optimal_length": "11", "subject": "A3VZJ2T28HAQ2A:3VBEN272ML7ZPMYYVCFGLZ5DV7CGS0"}
{"meta_move": "drag_end", "rt": "1449.0", "trial_number": "2", "pre_actions": "1", "move": "4@9", "instance": "prb29414", "distance_to_goal": "NA", "progress": "NA", "move_number": "5", "optimal_length": "11", "subject": "A3VZJ2T28HAQ2A:3VBEN272ML7ZPMYYVCFGLZ5DV7CGS0"}
{"meta_move": "drag_end", "rt": "884.0", "trial_number": "2", "pre_actions": "1", "move": "2@18", "instance": "prb29414", "distance_to_goal": "NA", "progress": "NA", "move_number": "5", "optimal_length": "11", "subject": "A3VZJ2T28HAQ2A:3VBEN272ML7ZPMYYVCFGLZ5DV7CGS0"}
{"meta_move": "drag_end", "rt": "537.0", "trial_number": "2", "pre_actions": "1", "move": "1@26", "instance": "prb29414", "distance_to_goal": "NA", "progress": "NA", "move_number": "5", "optimal_length": "11", "subject": "A3VZJ2T28HAQ2A:3VBEN272ML7ZPMYYVCFGLZ5DV7CGS0"}
{"meta_move": "drag_end", "rt": "779.0", "trial_number": "2", "pre_actions": "1", "move": "3@24", "instance": "prb29414", "distance_to_goal": "NA", "progress": "NA", "move_number": "5", "optimal_length": "11", "subject": "A3VZJ2T28HAQ2A:3VBEN272ML7ZPMYYVCFGLZ5DV7CGS0"}
{"meta_move": "drag_end", "rt": "552.0", "trial_number": "2", "pre_actions": "1", "move": "0@33", "instance": "prb29414", "distance_to_goal": "NA", "progress": "NA", "move_number": "5", "optimal_length": "11", "subject": "A3VZJ2T28HAQ2A:3VBEN272ML7ZPMYYVCFGLZ5DV7CGS0"}
{"meta_move": "drag_end", "rt": "4816.0", "trial_number": "1", "pre_actions": "1", "move": "4@6", "instance": "prb29414", "distance_to_goal": "NA", "progress": "NA", "move_number": "0", "optimal_length": "11", "subject": "ARWF605I7RWM7:3AZHRG4CU5SYU12YRVPCSZALW5003R"}
{"meta_move": "drag_end", "rt": "2640.0", "trial_number": "1", "pre_actions": "1", "move": "7@4", "instance": "prb29414", "distance_to_goal": "NA", "progress": "NA", "move_number": "1", "optimal_length": "11", "subject": "ARWF605I7RWM7:3AZHRG4CU5SYU12YRVPCSZALW5003R"}
{"meta_move": "drag_end", "rt": "679.0", "trial_number": "1", "pre_actions": "1", "move": "2@21", "instance": "prb29414", "distance_to_goal": "NA", "progress": "NA", "move_number": "2", "optimal_length": "11", "subject": "ARWF605I7RWM7:3AZHRG4CU5SYU12YRVPCSZALW5003R"}
{"meta_move": "drag_end", "rt": "810.0", "trial_number": "1", "pre_actions": "1", "move": "3@18", "instance": "prb29414", "distance_to_goal": "NA", "progress": "NA", "move_number": "3", "optimal_length": "11", "subject": "ARWF605I7RWM7:3AZHRG4CU5SYU12YRVPCSZALW5003R"}
{"meta_move": "drag_end", "rt": "511.0", "trial_number": "1", "pre_actions": "1", "move": "1@20", "instance": "prb29414", "distance_to_goal": "NA", "progress": "NA", "move_number": "4", "optimal_length": "11", "subject": "ARWF605I7RWM7:3AZHRG4CU5SYU12YRVPCSZALW5003R"}
{"meta_move": "drag_end", "rt": "785.0", "trial_number": "1", "pre_actions": "1", "move": "0@30", "instance": "prb29414", "distance_to_goal": "NA", "progress": "NA", "move_number": "5", "optimal_length": "11", "subject": "ARWF605I7RWM7:3AZHRG4CU5SYU12YRVPCSZALW5003R"}
{"meta_move": "drag_end", "rt": "679.0", "trial_number": "1", "pre_actions": "1", "move": "1@26", "instance": "prb29414", "distance_to_goal": "NA", "progress": "NA", "move_number": "6", "optimal_length": "11", "subject": "ARWF605I7RWM7:3AZHRG4CU5SYU12YRVPCSZALW5003R"}
{"meta_move": "drag_end", "rt": "617.0", "trial_number": "1", "pre_actions": "1", "move": "2@19", "instance": "prb29414", "distance_to_goal": "NA", "progress": "NA", "move_number": "7", "optimal_length": "11", "subject": "ARWF605I7RWM7:3AZHRG4CU5SYU12YRVPCSZALW5003R"}
{"meta_move": "drag_end", "rt": "928.0", "trial_number": "1", "pre_actions": "1", "move": "7@22", "instance": "prb29414", "distance_to_goal": "NA", "progress": "NA", "move_number": "8", "optimal_length": "11", "subject": "ARWF605I7RWM7:3AZHRG4CU5SYU12YRVPCSZALW5003R"}
{"meta_move": "win", "rt": "523.0", "trial_number": "1", "pre_actions": "1", "move": "r@14", "instance": "prb29414", "distance_to_goal": "1", "progress": "NA", "move_number": "9", "optimal_length": "11", "subject": "ARWF605I7RWM7:3AZHRG4CU5SYU12YRVPCSZALW5003R"}
{"meta_move": "drag_end", "rt": "139.0", "trial_number": "0", "pre_actions": "0", "move": "r@16", "instance": "prb29414", "distance_to_goal": "NA", "progress": "NA", "move_number": "9", "optimal_length": "11", "subject": "ARWF605I7RWM7:3AZHRG4CU5SYU12YRVPCSZALW5003R"}
{"meta_move": "drag_end", "rt": "1588.0", "trial_number": "1", "pre_actions": "1", "move": "4@6", "instance": "prb29414", "distance_to_goal": "NA", "progress": "NA", "move_number": "0", "optimal_length": "11", "subject": "AU4KK3OYS2UZF:3ZSY5X72NYJBGKFJ46SJ0Y9J0RLROB"}
{"meta_move": "drag_end", "rt": "2750.0", "trial_number": "1", "pre_actions": "1", "move": "4@9", "instance": "prb29414", "distance_to_goal": "NA", "progress": "NA", "move_number": "1", "optimal_length": "11", "subject": "AU4KK3OYS2UZF:3ZSY5X72NYJBGKFJ46SJ0Y9J0RLROB"}
{"meta_move": "drag_end", "rt": "1089.0", "trial_number": "1", "pre_actions": "1", "move": "4@6", "instance": "prb29414", "distance_to_goal": "NA", "progress": "NA", "move_number": "2", "optimal_length": "11", "subject": "AU4KK3OYS2UZF:3ZSY5X72NYJBGKFJ46SJ0Y9J0RLROB"}
{"meta_move": "drag_end", "rt": "919.0", "trial_number": "1", "pre_actions": "1", "move": "7@4", "instance": "prb29414", "distance_to_goal": "NA", "progress": "NA", "move_number": "3", "optimal_length": "11", "subject": "AU4KK3OYS2UZF:3ZSY5X72NYJBGKFJ46SJ0Y9J0RLROB"}
{"meta_move": "drag_end", "rt": "2505.0", "trial_number": "1", "pre_actions": "1", "move": "7@16", "instance": "prb29414", "distance_to_goal": "NA", "progress": "NA", "move_number": "4", "optimal_length": "11", "subject": "AU4KK3OYS2UZF:3ZSY5X72NYJBGKFJ46SJ0Y9J0RLROB"}
{"meta_move": "drag_end", "rt": "905.0", "trial_number": "1", "pre_actions": "1", "move": "4@9", "instance": "prb29414", "distance_to_goal": "NA", "progress": "NA", "move_number": "5", "optimal_length": "11", "subject": "AU4KK3OYS2UZF:3ZSY5X72NYJBGKFJ46SJ0Y9J0RLROB"}
{"meta_move": "drag_end", "rt": "2102.0", "trial_number": "1", "pre_actions": "1", "move": "3@18", "instance": "prb29414", "distance_to_goal": "NA", "progress": "NA", "move_number": "6", "optimal_length": "11", "subject": "AU4KK3OYS2UZF:3ZSY5X72NYJBGKFJ46SJ0Y9J0RLROB"}
{"meta_move": "drag_end", "rt": "48.0", "trial_number": "1", "pre_actions": "1", "move": "3@18", "instance": "prb29414", "distance_to_goal": "NA", "progress": "NA", "move_number": "7", "optimal_length": "11", "subject": "AU4KK3OYS2UZF:3ZSY5X72NYJBGKFJ46SJ0Y9J0RLROB"}
{"meta_move": "drag_end", "rt": "2256.0", "trial_number": "1", "pre_actions": "1", "move": "6@0", "instance": "prb29414", "distance_to_goal": "NA", "progress": "NA", "move_number": "7", "optimal_length": "11", "subject": "AU4KK3OYS2UZF:3ZSY5X72NYJBGKFJ46SJ0Y9J0RLROB"}
{"meta_move": "drag_end", "rt": "3106.0", "trial_number": "2", "pre_actions": "1", "move": "4@6", "instance": "prb29414", "distance_to_goal": "NA", "progress": "NA", "move_number": "0", "optimal_length": "11", "subject": "AU4KK3OYS2UZF:3ZSY5X72NYJBGKFJ46SJ0Y9J0RLROB"}
{"meta_move": "drag_end", "rt": "6558.0", "trial_number": "2", "pre_actions": "1", "move": "7@16", "instance": "prb29414", "distance_to_goal": "NA", "progress": "NA", "move_number": "1", "optimal_length": "11", "subject": "AU4KK3OYS2UZF:3ZSY5X72NYJBGKFJ46SJ0Y9J0RLROB"}
{"meta_move": "drag_end", "rt": "32.0", "trial_number": "2", "pre_actions": "1", "move": "7@16", "instance": "prb29414", "distance_to_goal": "NA", "progress": "NA", "move_number": "1", "optimal_length": "11", "subject": "AU4KK3OYS2UZF:3ZSY5X72NYJBGKFJ46SJ0Y9J0RLROB"}
{"meta_move": "drag_end", "rt": "3119.0", "trial_number": "3", "pre_actions": "1", "move": "2@18", "instance": "prb29414", "distance_to_goal": "NA", "progress": "NA", "move_number": "0", "optimal_length": "11", "subject": "AU4KK3OYS2UZF:3ZSY5X72NYJBGKFJ46SJ0Y9J0RLROB"}
{"meta_move": "drag_end", "rt": "592.0", "trial_number": "3", "pre_actions": "1", "move": "4@6", "instance": "prb29414", "distance_to_goal": "NA", "progress": "NA", "move_number": "1", "optimal_length": "11", "subject": "AU4KK3OYS2UZF:3ZSY5X72NYJBGKFJ46SJ0Y9J0RLROB"}
{"meta_move": "drag_end", "rt": "784.0", "trial_number": "3", "pre_actions": "1", "move": "7@4", "instance": "prb29414", "distance_to_goal": "NA", "progress": "NA", "move_number": "2", "optimal_length": "11", "subject": "AU4KK3OYS2UZF:3ZSY5X72NYJBGKFJ46SJ0Y9J0RLROB"}
{"meta_move": "drag_end", "rt": "840.0", "trial_number": "3", "pre_actions": "1", "move": "2@21", "instance": "prb29414", "distance_to_goal": "NA", "progress": "NA", "move_number": "3", "optimal_length": "11", "subject": "AU4KK3OYS2UZF:3ZSY5X72NYJBGKFJ46SJ0Y9J0RLROB"}
{"meta_move": "drag_end", "rt": "752.0", "trial_number": "3", "pre_actions": "1", "move": "1@20", "instance": "prb29414", "distance_to_goal": "NA", "progress": "NA", "move_number": "4", "optimal_length": "11", "subject": "AU4KK3OYS2UZF:3ZSY5X72NYJBGKFJ46SJ0Y9J0RLROB"}
{"meta_move": "drag_end", "rt": "711.0", "trial_number": "3", "pre_actions": "1", "move": "0@31", "instance": "prb29414", "distance_to_goal": "NA", "progress": "NA", "move_number": "5", "optimal_length": "11", "subject": "AU4KK3OYS2UZF:3ZSY5X72NYJBGKFJ46SJ0Y9J0RLROB"}
{"meta_move": "drag_end", "rt": "2713.0", "trial_number": "3", "pre_actions": "1", "move": "0@31", "instance": "prb29414", "distance_to_goal": "NA", "progress": "NA", "move_number": "6", "optimal_length": "11", "subject": "AU4KK3OYS2UZF:3ZSY5X72NYJBGKFJ46SJ0Y9J0RLROB"}
{"meta_move": "drag_end", "rt": "967.0", "trial_number": "3", "pre_actions": "1", "move": "3@18", "instance": "prb29414", "distance_to_goal": "NA", "progress": "NA", "move_number": "6", "optimal_length": "11", "subject": "AU4KK3OYS2UZF:3ZSY5X72NYJBGKFJ46SJ0Y9J0RLROB"}
{"meta_move": "drag_end", "rt": "514.0", "trial_number": "3", "pre_actions": "1", "move": "0@30", "instance": "prb29414", "distance_to_goal": "NA", "progress": "NA", "move_number": "7", "optimal_length": "11", "subject": "AU4KK3OYS2UZF:3ZSY5X72NYJBGKFJ46SJ0Y9J0RLROB"}
{"meta_move": "drag_end", "rt": "839.0", "trial_number": "3", "pre_actions": "1", "move": "1@26", "instance": "prb29414", "distance_to_goal": "NA", "progress": "NA", "move_number": "8", "optimal_length": "11", "subject": "AU4KK3OYS2UZF:3ZSY5X72NYJBGKFJ46SJ0Y9J0RLROB"}
{"meta_move": "drag_end", "rt": "591.0", "trial_number": "3", "pre_actions": "1", "move": "2@19", "instance": "prb29414", "distance_to_goal": "NA", "progress": "NA", "move_number": "9", "optimal_length": "11", "subject": "AU4KK3OYS2UZF:3ZSY5X72NYJBGKFJ46SJ0Y9J0RLROB"}
{"meta_move": "drag_end", "rt": "905.0", "trial_number": "3", "pre_actions": "1", "move": "7@22", "instance": "prb29414", "distance_to_goal": "NA", "progress": "NA", "move_number": "10", "optimal_length": "11", "subject": "AU4KK3OYS2UZF:3ZSY5X72NYJBGKFJ46SJ0Y9J0RLROB"}
{"meta_move": "win", "rt": "2196.0", "trial_number": "3", "pre_actions": "1", "move": "r@14", "instance": "prb29414", "distance_to_goal": "1", "progress": "NA", "move_number": "11", "optimal_length": "11", "subject": "AU4KK3OYS2UZF:3ZSY5X72NYJBGKFJ46SJ0Y9J0RLROB"}
{"meta_move": "drag_end", "rt": "187.0", "trial_number": "0", "pre_actions": "0", "move": "r@16", "instance": "prb29414", "distance_to_goal": "NA", "progress": "NA", "move_number": "11", "optimal_length": "11", "subject": "AU4KK3OYS2UZF:3ZSY5X72NYJBGKFJ46SJ0Y9J0RLROB"}
