{"meta_move": "drag_end", "rt": "2944.0", "trial_number": "1", "pre_actions": "1", "move": "7@19", "instance": "prb26567", "distance_to_goal": "NA", "progress": "NA", "move_number": "0", "optimal_length": "7", "subject": "A15FXHC1CVNW31:3TS1AR6UQRM7SOIBWPBN8N9589Y7FV"}
{"meta_move": "drag_end", "rt": "802.0", "trial_number": "1", "pre_actions": "1", "move": "1@29", "instance": "prb26567", "distance_to_goal": "NA", "progress": "NA", "move_number": "1", "optimal_length": "7", "subject": "A15FXHC1CVNW31:3TS1AR6UQRM7SOIBWPBN8N9589Y7FV"}
{"meta_move": "drag_end", "rt": "866.0", "trial_number": "1", "pre_actions": "1", "move": "0@22", "instance": "prb26567", "distance_to_goal": "NA", "progress": "NA", "move_number": "2", "optimal_length": "7", "subject": "A15FXHC1CVNW31:3TS1AR6UQRM7SOIBWPBN8N9589Y7FV"}
{"meta_move": "drag_end", "rt": "684.0", "trial_number": "1", "pre_actions": "1", "move": "6@8", "instance": "prb26567", "distance_to_goal": "NA", "progress": "NA", "move_number": "3", "optimal_length": "7", "subject": "A15FXHC1CVNW31:3TS1AR6UQRM7SOIBWPBN8N9589Y7FV"}
{"meta_move": "drag_end", "rt": "926.0", "trial_number": "1", "pre_actions": "1", "move": "7@25", "instance": "prb26567", "distance_to_goal": "NA", "progress": "NA", "move_number": "4", "optimal_length": "7", "subject": "A15FXHC1CVNW31:3TS1AR6UQRM7SOIBWPBN8N9589Y7FV"}
{"meta_move": "drag_end", "rt": "644.0", "trial_number": "1", "pre_actions": "1", "move": "r@14", "instance": "prb26567", "distance_to_goal": "NA", "progress": "NA", "move_number": "5", "optimal_length": "7", "subject": "A15FXHC1CVNW31:3TS1AR6UQRM7SOIBWPBN8N9589Y7FV"}
{"meta_move": "drag_end", "rt": "598.0", "trial_number": "1", "pre_actions": "1", "move": "6@7", "instance": "prb26567", "distance_to_goal": "NA", "progress": "NA", "move_number": "6", "optimal_length": "7", "subject": "A15FXHC1CVNW31:3TS1AR6UQRM7SOIBWPBN8N9589Y7FV"}
{"meta_move": "drag_end", "rt": "662.0", "trial_number": "1", "pre_actions": "1", "move": "4@6", "instance": "prb26567", "distance_to_goal": "NA", "progress": "NA", "move_number": "7", "optimal_length": "7", "subject": "A15FXHC1CVNW31:3TS1AR6UQRM7SOIBWPBN8N9589Y7FV"}
{"meta_move": "drag_end", "rt": "891.0", "trial_number": "1", "pre_actions": "1", "move": "4@0", "instance": "prb26567", "distance_to_goal": "NA", "progress": "NA", "move_number": "8", "optimal_length": "7", "subject": "A15FXHC1CVNW31:3TS1AR6UQRM7SOIBWPBN8N9589Y7FV"}
{"meta_move": "drag_end", "rt": "1206.0", "trial_number": "1", "pre_actions": "1", "move": "0@19", "instance": "prb26567", "distance_to_goal": "NA", "progress": "NA", "move_number": "9", "optimal_length": "7", "subject": "A15FXHC1CVNW31:3TS1AR6UQRM7SOIBWPBN8N9589Y7FV"}
{"meta_move": "drag_end", "rt": "859.0", "trial_number": "1", "pre_actions": "1", "move": "3@10", "instance": "prb26567", "distance_to_goal": "NA", "progress": "NA", "move_number": "10", "optimal_length": "7", "subject": "A15FXHC1CVNW31:3TS1AR6UQRM7SOIBWPBN8N9589Y7FV"}
{"meta_move": "drag_end", "rt": "826.0", "trial_number": "1", "pre_actions": "1", "move": "1@5", "instance": "prb26567", "distance_to_goal": "NA", "progress": "NA", "move_number": "11", "optimal_length": "7", "subject": "A15FXHC1CVNW31:3TS1AR6UQRM7SOIBWPBN8N9589Y7FV"}
{"meta_move": "drag_end", "rt": "638.0", "trial_number": "1", "pre_actions": "1", "move": "2@27", "instance": "prb26567", "distance_to_goal": "NA", "progress": "NA", "move_number": "12", "optimal_length": "7", "subject": "A15FXHC1CVNW31:3TS1AR6UQRM7SOIBWPBN8N9589Y7FV"}
{"meta_move": "drag_end", "rt": "1618.0", "trial_number": "1", "pre_actions": "1", "move": "0@20", "instance": "prb26567", "distance_to_goal": "NA", "progress": "NA", "move_number": "13", "optimal_length": "7", "subject": "A15FXHC1CVNW31:3TS1AR6UQRM7SOIBWPBN8N9589Y7FV"}
{"meta_move": "drag_end", "rt": "498.0", "trial_number": "1", "pre_actions": "1", "move": "6@8", "instance": "prb26567", "distance_to_goal": "NA", "progress": "NA", "move_number": "14", "optimal_length": "7", "subject": "A15FXHC1CVNW31:3TS1AR6UQRM7SOIBWPBN8N9589Y7FV"}
{"meta_move": "drag_end", "rt": "713.0", "trial_number": "1", "pre_actions": "1", "move": "7@1", "instance": "prb26567", "distance_to_goal": "NA", "progress": "NA", "move_number": "15", "optimal_length": "7", "subject": "A15FXHC1CVNW31:3TS1AR6UQRM7SOIBWPBN8N9589Y7FV"}
{"meta_move": "drag_end", "rt": "1309.0", "trial_number": "1", "pre_actions": "1", "move": "r@12", "instance": "prb26567", "distance_to_goal": "NA", "progress": "NA", "move_number": "16", "optimal_length": "7", "subject": "A15FXHC1CVNW31:3TS1AR6UQRM7SOIBWPBN8N9589Y7FV"}
{"meta_move": "drag_end", "rt": "639.0", "trial_number": "1", "pre_actions": "1", "move": "0@19", "instance": "prb26567", "distance_to_goal": "NA", "progress": "NA", "move_number": "17", "optimal_length": "7", "subject": "A15FXHC1CVNW31:3TS1AR6UQRM7SOIBWPBN8N9589Y7FV"}
{"meta_move": "drag_end", "rt": "701.0", "trial_number": "1", "pre_actions": "1", "move": "3@4", "instance": "prb26567", "distance_to_goal": "NA", "progress": "NA", "move_number": "18", "optimal_length": "7", "subject": "A15FXHC1CVNW31:3TS1AR6UQRM7SOIBWPBN8N9589Y7FV"}
{"meta_move": "drag_end", "rt": "711.0", "trial_number": "1", "pre_actions": "1", "move": "2@25", "instance": "prb26567", "distance_to_goal": "NA", "progress": "NA", "move_number": "19", "optimal_length": "7", "subject": "A15FXHC1CVNW31:3TS1AR6UQRM7SOIBWPBN8N9589Y7FV"}
{"meta_move": "drag_end", "rt": "740.0", "trial_number": "1", "pre_actions": "1", "move": "3@22", "instance": "prb26567", "distance_to_goal": "NA", "progress": "NA", "move_number": "20", "optimal_length": "7", "subject": "A15FXHC1CVNW31:3TS1AR6UQRM7SOIBWPBN8N9589Y7FV"}
{"meta_move": "win", "rt": "620.0", "trial_number": "1", "pre_actions": "1", "move": "r@12", "instance": "prb26567", "distance_to_goal": "1", "progress": "NA", "move_number": "21", "optimal_length": "7", "subject": "A15FXHC1CVNW31:3TS1AR6UQRM7SOIBWPBN8N9589Y7FV"}
{"meta_move": "drag_end", "rt": "81.0", "trial_number": "0", "pre_actions": "0", "move": "r@16", "instance": "prb26567", "distance_to_goal": "NA", "progress": "NA", "move_number": "21", "optimal_length": "7", "subject": "A15FXHC1CVNW31:3TS1AR6UQRM7SOIBWPBN8N9589Y7FV"}
{"meta_move": "drag_end", "rt": "1972.0", "trial_number": "1", "pre_actions": "1", "move": "0@19", "instance": "prb26567", "distance_to_goal": "NA", "progress": "NA", "move_number": "0", "optimal_length": "7", "subject": "A191V7PT3DQKDP:3PMBY0YE28B43VMUKKJ6EDF85RV9C8"}
{"meta_move": "drag_end", "rt": "1168.0", "trial_number": "1", "pre_actions": "1", "move": "0@21", "instance": "prb26567", "distance_to_goal": "NA", "progress": "NA", "move_number": "1", "optimal_length": "7", "subject": "A191V7PT3DQKDP:3PMBY0YE28B43VMUKKJ6EDF85RV9C8"}
{"meta_move": "drag_end", "rt": "712.0", "trial_number": "1", "pre_actions": "1", "move": "r@14", "instance": "prb26567", "distance_to_goal": "NA", "progress": "NA", "move_number": "2", "optimal_length": "7", "subject": "A191V7PT3DQKDP:3PMBY0YE28B43VMUKKJ6EDF85RV9C8"}
{"meta_move": "drag_end", "rt": "921.0", "trial_number": "1", "pre_actions": "1", "move": "7@13", "instance": "prb26567", "distance_to_goal": "NA", "progress": "NA", "move_number": "3", "optimal_length": "7", "subject": "A191V7PT3DQKDP:3PMBY0YE28B43VMUKKJ6EDF85RV9C8"}
{"meta_move": "drag_end", "rt": "473.0", "trial_number": "1", "pre_actions": "1", "move": "6@8", "instance": "prb26567", "distance_to_goal": "NA", "progress": "NA", "move_number": "4", "optimal_length": "7", "subject": "A191V7PT3DQKDP:3PMBY0YE28B43VMUKKJ6EDF85RV9C8"}
{"meta_move": "drag_end", "rt": "782.0", "trial_number": "1", "pre_actions": "1", "move": "7@1", "instance": "prb26567", "distance_to_goal": "NA", "progress": "NA", "move_number": "5", "optimal_length": "7", "subject": "A191V7PT3DQKDP:3PMBY0YE28B43VMUKKJ6EDF85RV9C8"}
{"meta_move": "drag_end", "rt": "1241.0", "trial_number": "1", "pre_actions": "1", "move": "r@12", "instance": "prb26567", "distance_to_goal": "NA", "progress": "NA", "move_number": "6", "optimal_length": "7", "subject": "A191V7PT3DQKDP:3PMBY0YE28B43VMUKKJ6EDF85RV9C8"}
{"meta_move": "drag_end", "rt": "567.0", "trial_number": "1", "pre_actions": "1", "move": "0@19", "instance": "prb26567", "distance_to_goal": "NA", "progress": "NA", "move_number": "7", "optimal_length": "7", "subject": "A191V7PT3DQKDP:3PMBY0YE28B43VMUKKJ6EDF85RV9C8"}
{"meta_move": "drag_end", "rt": "400.0", "trial_number": "1", "pre_actions": "1", "move": "2@25", "instance": "prb26567", "distance_to_goal": "NA", "progress": "NA", "move_number": "8", "optimal_length": "7", "subject": "A191V7PT3DQKDP:3PMBY0YE28B43VMUKKJ6EDF85RV9C8"}
{"meta_move": "drag_end", "rt": "697.0", "trial_number": "1", "pre_actions": "1", "move": "3@22", "instance": "prb26567", "distance_to_goal": "NA", "progress": "NA", "move_number": "9", "optimal_length": "7", "subject": "A191V7PT3DQKDP:3PMBY0YE28B43VMUKKJ6EDF85RV9C8"}
{"meta_move": "drag_end", "rt": "456.0", "trial_number": "1", "pre_actions": "1", "move": "1@29", "instance": "prb26567", "distance_to_goal": "NA", "progress": "NA", "move_number": "10", "optimal_length": "7", "subject": "A191V7PT3DQKDP:3PMBY0YE28B43VMUKKJ6EDF85RV9C8"}
{"meta_move": "win", "rt": "506.0", "trial_number": "1", "pre_actions": "1", "move": "r@12", "instance": "prb26567", "distance_to_goal": "1", "progress": "NA", "move_number": "11", "optimal_length": "7", "subject": "A191V7PT3DQKDP:3PMBY0YE28B43VMUKKJ6EDF85RV9C8"}
{"meta_move": "drag_end", "rt": "165.0", "trial_number": "0", "pre_actions": "0", "move": "r@16", "instance": "prb26567", "distance_to_goal": "NA", "progress": "NA", "move_number": "11", "optimal_length": "7", "subject": "A191V7PT3DQKDP:3PMBY0YE28B43VMUKKJ6EDF85RV9C8"}
{"meta_move": "drag_end", "rt": "2039.0", "trial_number": "2", "pre_actions": "1", "move": "2@27", "instance": "prb26567", "distance_to_goal": "NA", "progress": "NA", "move_number": "0", "optimal_length": "7", "subject": "A1F4N58CAX8IMK:3TS1AR6UQRM7SOIBWPBN8N9589Y7FV"}
{"meta_move": "drag_end", "rt": "495.0", "trial_number": "2", "pre_actions": "1", "move": "2@26", "instance": "prb26567", "distance_to_goal": "NA", "progress": "NA", "move_number": "1", "optimal_length": "7", "subject": "A1F4N58CAX8IMK:3TS1AR6UQRM7SOIBWPBN8N9589Y7FV"}
{"meta_move": "drag_end", "rt": "625.0", "trial_number": "2", "pre_actions": "1", "move": "1@29", "instance": "prb26567", "distance_to_goal": "NA", "progress": "NA", "move_number": "2", "optimal_length": "7", "subject": "A1F4N58CAX8IMK:3TS1AR6UQRM7SOIBWPBN8N9589Y7FV"}
{"meta_move": "drag_end", "rt": "1327.0", "trial_number": "2", "pre_actions": "1", "move": "0@22", "instance": "prb26567", "distance_to_goal": "NA", "progress": "NA", "move_number": "3", "optimal_length": "7", "subject": "A1F4N58CAX8IMK:3TS1AR6UQRM7SOIBWPBN8N9589Y7FV"}
{"meta_move": "drag_end", "rt": "897.0", "trial_number": "2", "pre_actions": "1", "move": "7@19", "instance": "prb26567", "distance_to_goal": "NA", "progress": "NA", "move_number": "4", "optimal_length": "7", "subject": "A1F4N58CAX8IMK:3TS1AR6UQRM7SOIBWPBN8N9589Y7FV"}
{"meta_move": "drag_end", "rt": "872.0", "trial_number": "2", "pre_actions": "1", "move": "2@26", "instance": "prb26567", "distance_to_goal": "NA", "progress": "NA", "move_number": "5", "optimal_length": "7", "subject": "A1F4N58CAX8IMK:3TS1AR6UQRM7SOIBWPBN8N9589Y7FV"}
{"meta_move": "drag_end", "rt": "935.0", "trial_number": "2", "pre_actions": "1", "move": "7@25", "instance": "prb26567", "distance_to_goal": "NA", "progress": "NA", "move_number": "5", "optimal_length": "7", "subject": "A1F4N58CAX8IMK:3TS1AR6UQRM7SOIBWPBN8N9589Y7FV"}
{"meta_move": "drag_end", "rt": "1561.0", "trial_number": "2", "pre_actions": "1", "move": "6@8", "instance": "prb26567", "distance_to_goal": "NA", "progress": "NA", "move_number": "6", "optimal_length": "7", "subject": "A1F4N58CAX8IMK:3TS1AR6UQRM7SOIBWPBN8N9589Y7FV"}
{"meta_move": "drag_end", "rt": "1679.0", "trial_number": "2", "pre_actions": "1", "move": "0@19", "instance": "prb26567", "distance_to_goal": "NA", "progress": "NA", "move_number": "7", "optimal_length": "7", "subject": "A1F4N58CAX8IMK:3TS1AR6UQRM7SOIBWPBN8N9589Y7FV"}
{"meta_move": "drag_end", "rt": "1048.0", "trial_number": "2", "pre_actions": "1", "move": "3@10", "instance": "prb26567", "distance_to_goal": "NA", "progress": "NA", "move_number": "8", "optimal_length": "7", "subject": "A1F4N58CAX8IMK:3TS1AR6UQRM7SOIBWPBN8N9589Y7FV"}
{"meta_move": "drag_end", "rt": "760.0", "trial_number": "2", "pre_actions": "1", "move": "6@7", "instance": "prb26567", "distance_to_goal": "NA", "progress": "NA", "move_number": "9", "optimal_length": "7", "subject": "A1F4N58CAX8IMK:3TS1AR6UQRM7SOIBWPBN8N9589Y7FV"}
{"meta_move": "drag_end", "rt": "1201.0", "trial_number": "2", "pre_actions": "1", "move": "3@4", "instance": "prb26567", "distance_to_goal": "NA", "progress": "NA", "move_number": "10", "optimal_length": "7", "subject": "A1F4N58CAX8IMK:3TS1AR6UQRM7SOIBWPBN8N9589Y7FV"}
{"meta_move": "drag_end", "rt": "1783.0", "trial_number": "2", "pre_actions": "1", "move": "0@22", "instance": "prb26567", "distance_to_goal": "NA", "progress": "NA", "move_number": "11", "optimal_length": "7", "subject": "A1F4N58CAX8IMK:3TS1AR6UQRM7SOIBWPBN8N9589Y7FV"}
{"meta_move": "drag_end", "rt": "906.0", "trial_number": "2", "pre_actions": "1", "move": "7@19", "instance": "prb26567", "distance_to_goal": "NA", "progress": "NA", "move_number": "12", "optimal_length": "7", "subject": "A1F4N58CAX8IMK:3TS1AR6UQRM7SOIBWPBN8N9589Y7FV"}
{"meta_move": "drag_end", "rt": "775.0", "trial_number": "2", "pre_actions": "1", "move": "2@26", "instance": "prb26567", "distance_to_goal": "NA", "progress": "NA", "move_number": "13", "optimal_length": "7", "subject": "A1F4N58CAX8IMK:3TS1AR6UQRM7SOIBWPBN8N9589Y7FV"}
{"meta_move": "drag_end", "rt": "831.0", "trial_number": "2", "pre_actions": "1", "move": "0@20", "instance": "prb26567", "distance_to_goal": "NA", "progress": "NA", "move_number": "13", "optimal_length": "7", "subject": "A1F4N58CAX8IMK:3TS1AR6UQRM7SOIBWPBN8N9589Y7FV"}
{"meta_move": "drag_end", "rt": "1104.0", "trial_number": "2", "pre_actions": "1", "move": "1@5", "instance": "prb26567", "distance_to_goal": "NA", "progress": "NA", "move_number": "14", "optimal_length": "7", "subject": "A1F4N58CAX8IMK:3TS1AR6UQRM7SOIBWPBN8N9589Y7FV"}
{"meta_move": "drag_end", "rt": "3200.0", "trial_number": "2", "pre_actions": "1", "move": "2@27", "instance": "prb26567", "distance_to_goal": "NA", "progress": "NA", "move_number": "15", "optimal_length": "7", "subject": "A1F4N58CAX8IMK:3TS1AR6UQRM7SOIBWPBN8N9589Y7FV"}
{"meta_move": "drag_end", "rt": "3625.0", "trial_number": "2", "pre_actions": "1", "move": "7@25", "instance": "prb26567", "distance_to_goal": "NA", "progress": "NA", "move_number": "16", "optimal_length": "7", "subject": "A1F4N58CAX8IMK:3TS1AR6UQRM7SOIBWPBN8N9589Y7FV"}
{"meta_move": "drag_end", "rt": "1007.0", "trial_number": "2", "pre_actions": "1", "move": "0@19", "instance": "prb26567", "distance_to_goal": "NA", "progress": "NA", "move_number": "17", "optimal_length": "7", "subject": "A1F4N58CAX8IMK:3TS1AR6UQRM7SOIBWPBN8N9589Y7FV"}
{"meta_move": "drag_end", "rt": "1697.0", "trial_number": "2", "pre_actions": "1", "move": "2@26", "instance": "prb26567", "distance_to_goal": "NA", "progress": "NA", "move_number": "18", "optimal_length": "7", "subject": "A1F4N58CAX8IMK:3TS1AR6UQRM7SOIBWPBN8N9589Y7FV"}
{"meta_move": "drag_end", "rt": "920.0", "trial_number": "2", "pre_actions": "1", "move": "1@29", "instance": "prb26567", "distance_to_goal": "NA", "progress": "NA", "move_number": "19", "optimal_length": "7", "subject": "A1F4N58CAX8IMK:3TS1AR6UQRM7SOIBWPBN8N9589Y7FV"}
{"meta_move": "drag_end", "rt": "1007.0", "trial_number": "2", "pre_actions": "1", "move": "r@14", "instance": "prb26567", "distance_to_goal": "NA", "progress": "NA", "move_number": "20", "optimal_length": "7", "subject": "A1F4N58CAX8IMK:3TS1AR6UQRM7SOIBWPBN8N9589Y7FV"}
{"meta_move": "drag_end", "rt": "4185.0", "trial_number": "2", "pre_actions": "1", "move": "0@22", "instance": "prb26567", "distance_to_goal": "NA", "progress": "NA", "move_number": "21", "optimal_length": "7", "subject": "A1F4N58CAX8IMK:3TS1AR6UQRM7SOIBWPBN8N9589Y7FV"}
{"meta_move": "drag_end", "rt": "816.0", "trial_number": "2", "pre_actions": "1", "move": "5@12", "instance": "prb26567", "distance_to_goal": "NA", "progress": "NA", "move_number": "22", "optimal_length": "7", "subject": "A1F4N58CAX8IMK:3TS1AR6UQRM7SOIBWPBN8N9589Y7FV"}
{"meta_move": "drag_end", "rt": "927.0", "trial_number": "2", "pre_actions": "1", "move": "7@13", "instance": "prb26567", "distance_to_goal": "NA", "progress": "NA", "move_number": "23", "optimal_length": "7", "subject": "A1F4N58CAX8IMK:3TS1AR6UQRM7SOIBWPBN8N9589Y7FV"}
{"meta_move": "drag_end", "rt": "649.0", "trial_number": "2", "pre_actions": "1", "move": "2@25", "instance": "prb26567", "distance_to_goal": "NA", "progress": "NA", "move_number": "24", "optimal_length": "7", "subject": "A1F4N58CAX8IMK:3TS1AR6UQRM7SOIBWPBN8N9589Y7FV"}
{"meta_move": "drag_end", "rt": "1096.0", "trial_number": "2", "pre_actions": "1", "move": "0@20", "instance": "prb26567", "distance_to_goal": "NA", "progress": "NA", "move_number": "25", "optimal_length": "7", "subject": "A1F4N58CAX8IMK:3TS1AR6UQRM7SOIBWPBN8N9589Y7FV"}
{"meta_move": "drag_end", "rt": "792.0", "trial_number": "2", "pre_actions": "1", "move": "3@22", "instance": "prb26567", "distance_to_goal": "NA", "progress": "NA", "move_number": "26", "optimal_length": "7", "subject": "A1F4N58CAX8IMK:3TS1AR6UQRM7SOIBWPBN8N9589Y7FV"}
{"meta_move": "win", "rt": "601.0", "trial_number": "2", "pre_actions": "1", "move": "r@14", "instance": "prb26567", "distance_to_goal": "1", "progress": "NA", "move_number": "27", "optimal_length": "7", "subject": "A1F4N58CAX8IMK:3TS1AR6UQRM7SOIBWPBN8N9589Y7FV"}
{"meta_move": "drag_end", "rt": "158.0", "trial_number": "0", "pre_actions": "0", "move": "r@16", "instance": "prb26567", "distance_to_goal": "NA", "progress": "NA", "move_number": "27", "optimal_length": "7", "subject": "A1F4N58CAX8IMK:3TS1AR6UQRM7SOIBWPBN8N9589Y7FV"}
{"meta_move": "drag_end", "rt": "4965.0", "trial_number": "1", "pre_actions": "1", "move": "6@8", "instance": "prb26567", "distance_to_goal": "NA", "progress": "NA", "move_number": "0", "optimal_length": "7", "subject": "A1LR0VQIHQUJAM:3YW4XOSQKRTI0K0Z2YPDTDJVFABU1I"}
{"meta_move": "drag_end", "rt": "628.0", "trial_number": "1", "pre_actions": "1", "move": "r@14", "instance": "prb26567", "distance_to_goal": "NA", "progress": "NA", "move_number": "1", "optimal_length": "7", "subject": "A1LR0VQIHQUJAM:3YW4XOSQKRTI0K0Z2YPDTDJVFABU1I"}
{"meta_move": "drag_end", "rt": "694.0", "trial_number": "1", "pre_actions": "1", "move": "7@1", "instance": "prb26567", "distance_to_goal": "NA", "progress": "NA", "move_number": "2", "optimal_length": "7", "subject": "A1LR0VQIHQUJAM:3YW4XOSQKRTI0K0Z2YPDTDJVFABU1I"}
{"meta_move": "drag_end", "rt": "512.0", "trial_number": "1", "pre_actions": "1", "move": "r@12", "instance": "prb26567", "distance_to_goal": "NA", "progress": "NA", "move_number": "3", "optimal_length": "7", "subject": "A1LR0VQIHQUJAM:3YW4XOSQKRTI0K0Z2YPDTDJVFABU1I"}
{"meta_move": "drag_end", "rt": "762.0", "trial_number": "1", "pre_actions": "1", "move": "0@19", "instance": "prb26567", "distance_to_goal": "NA", "progress": "NA", "move_number": "4", "optimal_length": "7", "subject": "A1LR0VQIHQUJAM:3YW4XOSQKRTI0K0Z2YPDTDJVFABU1I"}
{"meta_move": "drag_end", "rt": "380.0", "trial_number": "1", "pre_actions": "1", "move": "2@25", "instance": "prb26567", "distance_to_goal": "NA", "progress": "NA", "move_number": "5", "optimal_length": "7", "subject": "A1LR0VQIHQUJAM:3YW4XOSQKRTI0K0Z2YPDTDJVFABU1I"}
{"meta_move": "drag_end", "rt": "607.0", "trial_number": "1", "pre_actions": "1", "move": "3@22", "instance": "prb26567", "distance_to_goal": "NA", "progress": "NA", "move_number": "6", "optimal_length": "7", "subject": "A1LR0VQIHQUJAM:3YW4XOSQKRTI0K0Z2YPDTDJVFABU1I"}
{"meta_move": "drag_end", "rt": "451.0", "trial_number": "1", "pre_actions": "1", "move": "1@29", "instance": "prb26567", "distance_to_goal": "NA", "progress": "NA", "move_number": "7", "optimal_length": "7", "subject": "A1LR0VQIHQUJAM:3YW4XOSQKRTI0K0Z2YPDTDJVFABU1I"}
{"meta_move": "win", "rt": "659.0", "trial_number": "1", "pre_actions": "1", "move": "r@12", "instance": "prb26567", "distance_to_goal": "1", "progress": "NA", "move_number": "8", "optimal_length": "7", "subject": "A1LR0VQIHQUJAM:3YW4XOSQKRTI0K0Z2YPDTDJVFABU1I"}
{"meta_move": "drag_end", "rt": "96.0", "trial_number": "0", "pre_actions": "0", "move": "r@16", "instance": "prb26567", "distance_to_goal": "NA", "progress": "NA", "move_number": "8", "optimal_length": "7", "subject": "A1LR0VQIHQUJAM:3YW4XOSQKRTI0K0Z2YPDTDJVFABU1I"}
{"meta_move": "drag_end", "rt": "5521.0", "trial_number": "1", "pre_actions": "1", "move": "1@5", "instance": "prb26567", "distance_to_goal": "NA", "progress": "NA", "move_number": "0", "optimal_length": "7", "subject": "A1XDMS0KFSF5JW:3M0BCWMB8W4W5M7WZVX3HDH1M3FBWL"}
{"meta_move": "drag_end", "rt": "8087.0", "trial_number": "1", "pre_actions": "1", "move": "0@20", "instance": "prb26567", "distance_to_goal": "NA", "progress": "NA", "move_number": "1", "optimal_length": "7", "subject": "A1XDMS0KFSF5JW:3M0BCWMB8W4W5M7WZVX3HDH1M3FBWL"}
{"meta_move": "drag_end", "rt": "1697.0", "trial_number": "1", "pre_actions": "1", "move": "3@10", "instance": "prb26567", "distance_to_goal": "NA", "progress": "NA", "move_number": "1", "optimal_length": "7", "subject": "A1XDMS0KFSF5JW:3M0BCWMB8W4W5M7WZVX3HDH1M3FBWL"}
{"meta_move": "drag_end", "rt": "2450.0", "trial_number": "1", "pre_actions": "1", "move": "1@5", "instance": "prb26567", "distance_to_goal": "NA", "progress": "NA", "move_number": "2", "optimal_length": "7", "subject": "A1XDMS0KFSF5JW:3M0BCWMB8W4W5M7WZVX3HDH1M3FBWL"}
{"meta_move": "drag_end", "rt": "1049.0", "trial_number": "1", "pre_actions": "1", "move": "2@27", "instance": "prb26567", "distance_to_goal": "NA", "progress": "NA", "move_number": "2", "optimal_length": "7", "subject": "A1XDMS0KFSF5JW:3M0BCWMB8W4W5M7WZVX3HDH1M3FBWL"}
{"meta_move": "drag_end", "rt": "2153.0", "trial_number": "1", "pre_actions": "1", "move": "0@19", "instance": "prb26567", "distance_to_goal": "NA", "progress": "NA", "move_number": "3", "optimal_length": "7", "subject": "A1XDMS0KFSF5JW:3M0BCWMB8W4W5M7WZVX3HDH1M3FBWL"}
{"meta_move": "drag_end", "rt": "2502.0", "trial_number": "1", "pre_actions": "1", "move": "2@26", "instance": "prb26567", "distance_to_goal": "NA", "progress": "NA", "move_number": "4", "optimal_length": "7", "subject": "A1XDMS0KFSF5JW:3M0BCWMB8W4W5M7WZVX3HDH1M3FBWL"}
{"meta_move": "drag_end", "rt": "2899.0", "trial_number": "1", "pre_actions": "1", "move": "r@14", "instance": "prb26567", "distance_to_goal": "NA", "progress": "NA", "move_number": "5", "optimal_length": "7", "subject": "A1XDMS0KFSF5JW:3M0BCWMB8W4W5M7WZVX3HDH1M3FBWL"}
{"meta_move": "drag_end", "rt": "1802.0", "trial_number": "1", "pre_actions": "1", "move": "5@12", "instance": "prb26567", "distance_to_goal": "NA", "progress": "NA", "move_number": "6", "optimal_length": "7", "subject": "A1XDMS0KFSF5JW:3M0BCWMB8W4W5M7WZVX3HDH1M3FBWL"}
{"meta_move": "drag_end", "rt": "5004.0", "trial_number": "1", "pre_actions": "1", "move": "2@27", "instance": "prb26567", "distance_to_goal": "NA", "progress": "NA", "move_number": "7", "optimal_length": "7", "subject": "A1XDMS0KFSF5JW:3M0BCWMB8W4W5M7WZVX3HDH1M3FBWL"}
{"meta_move": "drag_end", "rt": "637.0", "trial_number": "1", "pre_actions": "1", "move": "2@26", "instance": "prb26567", "distance_to_goal": "NA", "progress": "NA", "move_number": "8", "optimal_length": "7", "subject": "A1XDMS0KFSF5JW:3M0BCWMB8W4W5M7WZVX3HDH1M3FBWL"}
{"meta_move": "drag_end", "rt": "1115.0", "trial_number": "1", "pre_actions": "1", "move": "r@13", "instance": "prb26567", "distance_to_goal": "NA", "progress": "NA", "move_number": "9", "optimal_length": "7", "subject": "A1XDMS0KFSF5JW:3M0BCWMB8W4W5M7WZVX3HDH1M3FBWL"}
{"meta_move": "drag_end", "rt": "736.0", "trial_number": "1", "pre_actions": "1", "move": "6@8", "instance": "prb26567", "distance_to_goal": "NA", "progress": "NA", "move_number": "10", "optimal_length": "7", "subject": "A1XDMS0KFSF5JW:3M0BCWMB8W4W5M7WZVX3HDH1M3FBWL"}
{"meta_move": "drag_end", "rt": "690.0", "trial_number": "1", "pre_actions": "1", "move": "r@14", "instance": "prb26567", "distance_to_goal": "NA", "progress": "NA", "move_number": "11", "optimal_length": "7", "subject": "A1XDMS0KFSF5JW:3M0BCWMB8W4W5M7WZVX3HDH1M3FBWL"}
{"meta_move": "drag_end", "rt": "541.0", "trial_number": "1", "pre_actions": "1", "move": "0@20", "instance": "prb26567", "distance_to_goal": "NA", "progress": "NA", "move_number": "12", "optimal_length": "7", "subject": "A1XDMS0KFSF5JW:3M0BCWMB8W4W5M7WZVX3HDH1M3FBWL"}
{"meta_move": "drag_end", "rt": "777.0", "trial_number": "1", "pre_actions": "1", "move": "7@1", "instance": "prb26567", "distance_to_goal": "NA", "progress": "NA", "move_number": "13", "optimal_length": "7", "subject": "A1XDMS0KFSF5JW:3M0BCWMB8W4W5M7WZVX3HDH1M3FBWL"}
{"meta_move": "drag_end", "rt": "871.0", "trial_number": "1", "pre_actions": "1", "move": "r@13", "instance": "prb26567", "distance_to_goal": "NA", "progress": "NA", "move_number": "14", "optimal_length": "7", "subject": "A1XDMS0KFSF5JW:3M0BCWMB8W4W5M7WZVX3HDH1M3FBWL"}
{"meta_move": "drag_end", "rt": "830.0", "trial_number": "1", "pre_actions": "1", "move": "0@19", "instance": "prb26567", "distance_to_goal": "NA", "progress": "NA", "move_number": "15", "optimal_length": "7", "subject": "A1XDMS0KFSF5JW:3M0BCWMB8W4W5M7WZVX3HDH1M3FBWL"}
{"meta_move": "drag_end", "rt": "702.0", "trial_number": "1", "pre_actions": "1", "move": "2@25", "instance": "prb26567", "distance_to_goal": "NA", "progress": "NA", "move_number": "16", "optimal_length": "7", "subject": "A1XDMS0KFSF5JW:3M0BCWMB8W4W5M7WZVX3HDH1M3FBWL"}
{"meta_move": "drag_end", "rt": "904.0", "trial_number": "1", "pre_actions": "1", "move": "3@22", "instance": "prb26567", "distance_to_goal": "NA", "progress": "NA", "move_number": "17", "optimal_length": "7", "subject": "A1XDMS0KFSF5JW:3M0BCWMB8W4W5M7WZVX3HDH1M3FBWL"}
{"meta_move": "win", "rt": "609.0", "trial_number": "1", "pre_actions": "1", "move": "r@13", "instance": "prb26567", "distance_to_goal": "1", "progress": "NA", "move_number": "18", "optimal_length": "7", "subject": "A1XDMS0KFSF5JW:3M0BCWMB8W4W5M7WZVX3HDH1M3FBWL"}
{"meta_move": "drag_end", "rt": "153.0", "trial_number": "0", "pre_actions": "0", "move": "r@16", "instance": "prb26567", "distance_to_goal": "NA", "progress": "NA", "move_number": "18", "optimal_length": "7", "subject": "A1XDMS0KFSF5JW:3M0BCWMB8W4W5M7WZVX3HDH1M3FBWL"}
{"meta_move": "drag_end", "rt": "2694.0", "trial_number": "1", "pre_actions": "1", "move": "r@14", "instance": "prb26567", "distance_to_goal": "NA", "progress": "NA", "move_number": "0", "optimal_length": "7", "subject": "A214HWAW1PYWO8:34BBWHLWHBJ6SUL255PK30LEGY5IWG"}
{"meta_move": "drag_end", "rt": "606.0", "trial_number": "1", "pre_actions": "1", "move": "7@13", "instance": "prb26567", "distance_to_goal": "NA", "progress": "NA", "move_number": "1", "optimal_length": "7", "subject": "A214HWAW1PYWO8:34BBWHLWHBJ6SUL255PK30LEGY5IWG"}
{"meta_move": "drag_end", "rt": "507.0", "trial_number": "1", "pre_actions": "1", "move": "2@25", "instance": "prb26567", "distance_to_goal": "NA", "progress": "NA", "move_number": "2", "optimal_length": "7", "subject": "A214HWAW1PYWO8:34BBWHLWHBJ6SUL255PK30LEGY5IWG"}
{"meta_move": "drag_end", "rt": "602.0", "trial_number": "1", "pre_actions": "1", "move": "3@22", "instance": "prb26567", "distance_to_goal": "NA", "progress": "NA", "move_number": "3", "optimal_length": "7", "subject": "A214HWAW1PYWO8:34BBWHLWHBJ6SUL255PK30LEGY5IWG"}
{"meta_move": "drag_end", "rt": "444.0", "trial_number": "1", "pre_actions": "1", "move": "1@5", "instance": "prb26567", "distance_to_goal": "NA", "progress": "NA", "move_number": "4", "optimal_length": "7", "subject": "A214HWAW1PYWO8:34BBWHLWHBJ6SUL255PK30LEGY5IWG"}
{"meta_move": "win", "rt": "418.0", "trial_number": "1", "pre_actions": "1", "move": "r@14", "instance": "prb26567", "distance_to_goal": "1", "progress": "NA", "move_number": "5", "optimal_length": "7", "subject": "A214HWAW1PYWO8:34BBWHLWHBJ6SUL255PK30LEGY5IWG"}
{"meta_move": "drag_end", "rt": "21.0", "trial_number": "0", "pre_actions": "0", "move": "r@16", "instance": "prb26567", "distance_to_goal": "NA", "progress": "NA", "move_number": "5", "optimal_length": "7", "subject": "A214HWAW1PYWO8:34BBWHLWHBJ6SUL255PK30LEGY5IWG"}
{"meta_move": "drag_end", "rt": "373.0", "trial_number": "2", "pre_actions": "1", "move": "7@25", "instance": "prb26567", "distance_to_goal": "NA", "progress": "NA", "move_number": "0", "optimal_length": "7", "subject": "A23437BMZ5T1FH:3IHR8NYAM89M0EPM8U9LH53ZJDTP4U"}
{"meta_move": "drag_end", "rt": "3857.0", "trial_number": "2", "pre_actions": "1", "move": "r@14", "instance": "prb26567", "distance_to_goal": "NA", "progress": "NA", "move_number": "0", "optimal_length": "7", "subject": "A23437BMZ5T1FH:3IHR8NYAM89M0EPM8U9LH53ZJDTP4U"}
{"meta_move": "drag_end", "rt": "682.0", "trial_number": "2", "pre_actions": "1", "move": "6@8", "instance": "prb26567", "distance_to_goal": "NA", "progress": "NA", "move_number": "1", "optimal_length": "7", "subject": "A23437BMZ5T1FH:3IHR8NYAM89M0EPM8U9LH53ZJDTP4U"}
{"meta_move": "drag_end", "rt": "2315.0", "trial_number": "2", "pre_actions": "1", "move": "7@1", "instance": "prb26567", "distance_to_goal": "NA", "progress": "NA", "move_number": "2", "optimal_length": "7", "subject": "A23437BMZ5T1FH:3IHR8NYAM89M0EPM8U9LH53ZJDTP4U"}
{"meta_move": "drag_end", "rt": "976.0", "trial_number": "2", "pre_actions": "1", "move": "r@12", "instance": "prb26567", "distance_to_goal": "NA", "progress": "NA", "move_number": "3", "optimal_length": "7", "subject": "A23437BMZ5T1FH:3IHR8NYAM89M0EPM8U9LH53ZJDTP4U"}
{"meta_move": "drag_end", "rt": "1354.0", "trial_number": "2", "pre_actions": "1", "move": "r@12", "instance": "prb26567", "distance_to_goal": "NA", "progress": "NA", "move_number": "4", "optimal_length": "7", "subject": "A23437BMZ5T1FH:3IHR8NYAM89M0EPM8U9LH53ZJDTP4U"}
{"meta_move": "drag_end", "rt": "1561.0", "trial_number": "2", "pre_actions": "1", "move": "1@29", "instance": "prb26567", "distance_to_goal": "NA", "progress": "NA", "move_number": "4", "optimal_length": "7", "subject": "A23437BMZ5T1FH:3IHR8NYAM89M0EPM8U9LH53ZJDTP4U"}
{"meta_move": "drag_end", "rt": "1231.0", "trial_number": "2", "pre_actions": "1", "move": "0@22", "instance": "prb26567", "distance_to_goal": "NA", "progress": "NA", "move_number": "5", "optimal_length": "7", "subject": "A23437BMZ5T1FH:3IHR8NYAM89M0EPM8U9LH53ZJDTP4U"}
{"meta_move": "drag_end", "rt": "1114.0", "trial_number": "2", "pre_actions": "1", "move": "2@25", "instance": "prb26567", "distance_to_goal": "NA", "progress": "NA", "move_number": "6", "optimal_length": "7", "subject": "A23437BMZ5T1FH:3IHR8NYAM89M0EPM8U9LH53ZJDTP4U"}
{"meta_move": "drag_end", "rt": "1707.0", "trial_number": "2", "pre_actions": "1", "move": "r@14", "instance": "prb26567", "distance_to_goal": "NA", "progress": "NA", "move_number": "7", "optimal_length": "7", "subject": "A23437BMZ5T1FH:3IHR8NYAM89M0EPM8U9LH53ZJDTP4U"}
{"meta_move": "drag_end", "rt": "861.0", "trial_number": "2", "pre_actions": "1", "move": "5@12", "instance": "prb26567", "distance_to_goal": "NA", "progress": "NA", "move_number": "8", "optimal_length": "7", "subject": "A23437BMZ5T1FH:3IHR8NYAM89M0EPM8U9LH53ZJDTP4U"}
{"meta_move": "drag_end", "rt": "2064.0", "trial_number": "2", "pre_actions": "1", "move": "0@19", "instance": "prb26567", "distance_to_goal": "NA", "progress": "NA", "move_number": "9", "optimal_length": "7", "subject": "A23437BMZ5T1FH:3IHR8NYAM89M0EPM8U9LH53ZJDTP4U"}
{"meta_move": "drag_end", "rt": "1100.0", "trial_number": "2", "pre_actions": "1", "move": "3@22", "instance": "prb26567", "distance_to_goal": "NA", "progress": "NA", "move_number": "10", "optimal_length": "7", "subject": "A23437BMZ5T1FH:3IHR8NYAM89M0EPM8U9LH53ZJDTP4U"}
{"meta_move": "win", "rt": "473.0", "trial_number": "2", "pre_actions": "1", "move": "r@14", "instance": "prb26567", "distance_to_goal": "1", "progress": "NA", "move_number": "11", "optimal_length": "7", "subject": "A23437BMZ5T1FH:3IHR8NYAM89M0EPM8U9LH53ZJDTP4U"}
{"meta_move": "drag_end", "rt": "138.0", "trial_number": "0", "pre_actions": "0", "move": "r@16", "instance": "prb26567", "distance_to_goal": "NA", "progress": "NA", "move_number": "11", "optimal_length": "7", "subject": "A23437BMZ5T1FH:3IHR8NYAM89M0EPM8U9LH53ZJDTP4U"}
{"meta_move": "drag_end", "rt": "1684.0", "trial_number": "1", "pre_actions": "1", "move": "1@29", "instance": "prb26567", "distance_to_goal": "NA", "progress": "NA", "move_number": "0", "optimal_length": "7", "subject": "A2IBQA01NR5N76:3X4MXAO0BHWJLTOLVSJTHSM54OHWRG"}
{"meta_move": "drag_end", "rt": "2360.0", "trial_number": "1", "pre_actions": "1", "move": "0@22", "instance": "prb26567", "distance_to_goal": "NA", "progress": "NA", "move_number": "1", "optimal_length": "7", "subject": "A2IBQA01NR5N76:3X4MXAO0BHWJLTOLVSJTHSM54OHWRG"}
{"meta_move": "drag_end", "rt": "928.0", "trial_number": "1", "pre_actions": "1", "move": "7@19", "instance": "prb26567", "distance_to_goal": "NA", "progress": "NA", "move_number": "2", "optimal_length": "7", "subject": "A2IBQA01NR5N76:3X4MXAO0BHWJLTOLVSJTHSM54OHWRG"}
{"meta_move": "drag_end", "rt": "1457.0", "trial_number": "1", "pre_actions": "1", "move": "6@8", "instance": "prb26567", "distance_to_goal": "NA", "progress": "NA", "move_number": "3", "optimal_length": "7", "subject": "A2IBQA01NR5N76:3X4MXAO0BHWJLTOLVSJTHSM54OHWRG"}
{"meta_move": "drag_end", "rt": "1159.0", "trial_number": "1", "pre_actions": "1", "move": "r@14", "instance": "prb26567", "distance_to_goal": "NA", "progress": "NA", "move_number": "4", "optimal_length": "7", "subject": "A2IBQA01NR5N76:3X4MXAO0BHWJLTOLVSJTHSM54OHWRG"}
{"meta_move": "drag_end", "rt": "666.0", "trial_number": "1", "pre_actions": "1", "move": "7@1", "instance": "prb26567", "distance_to_goal": "NA", "progress": "NA", "move_number": "5", "optimal_length": "7", "subject": "A2IBQA01NR5N76:3X4MXAO0BHWJLTOLVSJTHSM54OHWRG"}
{"meta_move": "drag_end", "rt": "1748.0", "trial_number": "1", "pre_actions": "1", "move": "r@12", "instance": "prb26567", "distance_to_goal": "NA", "progress": "NA", "move_number": "6", "optimal_length": "7", "subject": "A2IBQA01NR5N76:3X4MXAO0BHWJLTOLVSJTHSM54OHWRG"}
{"meta_move": "drag_end", "rt": "1025.0", "trial_number": "1", "pre_actions": "1", "move": "2@25", "instance": "prb26567", "distance_to_goal": "NA", "progress": "NA", "move_number": "7", "optimal_length": "7", "subject": "A2IBQA01NR5N76:3X4MXAO0BHWJLTOLVSJTHSM54OHWRG"}
{"meta_move": "drag_end", "rt": "3641.0", "trial_number": "1", "pre_actions": "1", "move": "0@19", "instance": "prb26567", "distance_to_goal": "NA", "progress": "NA", "move_number": "8", "optimal_length": "7", "subject": "A2IBQA01NR5N76:3X4MXAO0BHWJLTOLVSJTHSM54OHWRG"}
{"meta_move": "drag_end", "rt": "761.0", "trial_number": "1", "pre_actions": "1", "move": "3@22", "instance": "prb26567", "distance_to_goal": "NA", "progress": "NA", "move_number": "9", "optimal_length": "7", "subject": "A2IBQA01NR5N76:3X4MXAO0BHWJLTOLVSJTHSM54OHWRG"}
{"meta_move": "drag_end", "rt": "1192.0", "trial_number": "1", "pre_actions": "1", "move": "6@10", "instance": "prb26567", "distance_to_goal": "NA", "progress": "NA", "move_number": "10", "optimal_length": "7", "subject": "A2IBQA01NR5N76:3X4MXAO0BHWJLTOLVSJTHSM54OHWRG"}
{"meta_move": "drag_end", "rt": "1214.0", "trial_number": "1", "pre_actions": "1", "move": "6@8", "instance": "prb26567", "distance_to_goal": "NA", "progress": "NA", "move_number": "11", "optimal_length": "7", "subject": "A2IBQA01NR5N76:3X4MXAO0BHWJLTOLVSJTHSM54OHWRG"}
{"meta_move": "drag_end", "rt": "1048.0", "trial_number": "1", "pre_actions": "1", "move": "1@5", "instance": "prb26567", "distance_to_goal": "NA", "progress": "NA", "move_number": "12", "optimal_length": "7", "subject": "A2IBQA01NR5N76:3X4MXAO0BHWJLTOLVSJTHSM54OHWRG"}
{"meta_move": "drag_end", "rt": "1945.0", "trial_number": "1", "pre_actions": "1", "move": "6@8", "instance": "prb26567", "distance_to_goal": "NA", "progress": "NA", "move_number": "13", "optimal_length": "7", "subject": "A2IBQA01NR5N76:3X4MXAO0BHWJLTOLVSJTHSM54OHWRG"}
{"meta_move": "win", "rt": "569.0", "trial_number": "1", "pre_actions": "1", "move": "r@12", "instance": "prb26567", "distance_to_goal": "1", "progress": "NA", "move_number": "13", "optimal_length": "7", "subject": "A2IBQA01NR5N76:3X4MXAO0BHWJLTOLVSJTHSM54OHWRG"}
{"meta_move": "drag_end", "rt": "522.0", "trial_number": "0", "pre_actions": "0", "move": "r@16", "instance": "prb26567", "distance_to_goal": "NA", "progress": "NA", "move_number": "13", "optimal_length": "7", "subject": "A2IBQA01NR5N76:3X4MXAO0BHWJLTOLVSJTHSM54OHWRG"}
{"meta_move": "drag_end", "rt": "5440.0", "trial_number": "1", "pre_actions": "1", "move": "7@19", "instance": "prb26567", "distance_to_goal": "NA", "progress": "NA", "move_number": "0", "optimal_length": "7", "subject": "A2MYB6MLQW0IGN:3TYCR1GOTDRCCQYD1V64UK7OE48LZS"}
{"meta_move": "drag_end", "rt": "2344.0", "trial_number": "1", "pre_actions": "1", "move": "1@29", "instance": "prb26567", "distance_to_goal": "NA", "progress": "NA", "move_number": "1", "optimal_length": "7", "subject": "A2MYB6MLQW0IGN:3TYCR1GOTDRCCQYD1V64UK7OE48LZS"}
{"meta_move": "drag_end", "rt": "5438.0", "trial_number": "1", "pre_actions": "1", "move": "0@22", "instance": "prb26567", "distance_to_goal": "NA", "progress": "NA", "move_number": "2", "optimal_length": "7", "subject": "A2MYB6MLQW0IGN:3TYCR1GOTDRCCQYD1V64UK7OE48LZS"}
{"meta_move": "drag_end", "rt": "1478.0", "trial_number": "1", "pre_actions": "1", "move": "0@20", "instance": "prb26567", "distance_to_goal": "NA", "progress": "NA", "move_number": "3", "optimal_length": "7", "subject": "A2MYB6MLQW0IGN:3TYCR1GOTDRCCQYD1V64UK7OE48LZS"}
{"meta_move": "drag_end", "rt": "1077.0", "trial_number": "1", "pre_actions": "1", "move": "7@25", "instance": "prb26567", "distance_to_goal": "NA", "progress": "NA", "move_number": "4", "optimal_length": "7", "subject": "A2MYB6MLQW0IGN:3TYCR1GOTDRCCQYD1V64UK7OE48LZS"}
{"meta_move": "drag_end", "rt": "1126.0", "trial_number": "1", "pre_actions": "1", "move": "0@19", "instance": "prb26567", "distance_to_goal": "NA", "progress": "NA", "move_number": "5", "optimal_length": "7", "subject": "A2MYB6MLQW0IGN:3TYCR1GOTDRCCQYD1V64UK7OE48LZS"}
{"meta_move": "drag_end", "rt": "2703.0", "trial_number": "1", "pre_actions": "1", "move": "1@17", "instance": "prb26567", "distance_to_goal": "NA", "progress": "NA", "move_number": "6", "optimal_length": "7", "subject": "A2MYB6MLQW0IGN:3TYCR1GOTDRCCQYD1V64UK7OE48LZS"}
{"meta_move": "drag_end", "rt": "866.0", "trial_number": "1", "pre_actions": "1", "move": "1@5", "instance": "prb26567", "distance_to_goal": "NA", "progress": "NA", "move_number": "7", "optimal_length": "7", "subject": "A2MYB6MLQW0IGN:3TYCR1GOTDRCCQYD1V64UK7OE48LZS"}
{"meta_move": "drag_end", "rt": "1709.0", "trial_number": "1", "pre_actions": "1", "move": "2@27", "instance": "prb26567", "distance_to_goal": "NA", "progress": "NA", "move_number": "8", "optimal_length": "7", "subject": "A2MYB6MLQW0IGN:3TYCR1GOTDRCCQYD1V64UK7OE48LZS"}
{"meta_move": "drag_end", "rt": "1175.0", "trial_number": "1", "pre_actions": "1", "move": "2@26", "instance": "prb26567", "distance_to_goal": "NA", "progress": "NA", "move_number": "9", "optimal_length": "7", "subject": "A2MYB6MLQW0IGN:3TYCR1GOTDRCCQYD1V64UK7OE48LZS"}
{"meta_move": "drag_end", "rt": "3308.0", "trial_number": "1", "pre_actions": "1", "move": "1@29", "instance": "prb26567", "distance_to_goal": "NA", "progress": "NA", "move_number": "10", "optimal_length": "7", "subject": "A2MYB6MLQW0IGN:3TYCR1GOTDRCCQYD1V64UK7OE48LZS"}
{"meta_move": "drag_end", "rt": "2434.0", "trial_number": "1", "pre_actions": "1", "move": "0@22", "instance": "prb26567", "distance_to_goal": "NA", "progress": "NA", "move_number": "11", "optimal_length": "7", "subject": "A2MYB6MLQW0IGN:3TYCR1GOTDRCCQYD1V64UK7OE48LZS"}
{"meta_move": "drag_end", "rt": "2121.0", "trial_number": "1", "pre_actions": "1", "move": "r@14", "instance": "prb26567", "distance_to_goal": "NA", "progress": "NA", "move_number": "12", "optimal_length": "7", "subject": "A2MYB6MLQW0IGN:3TYCR1GOTDRCCQYD1V64UK7OE48LZS"}
{"meta_move": "drag_end", "rt": "904.0", "trial_number": "1", "pre_actions": "1", "move": "6@8", "instance": "prb26567", "distance_to_goal": "NA", "progress": "NA", "move_number": "13", "optimal_length": "7", "subject": "A2MYB6MLQW0IGN:3TYCR1GOTDRCCQYD1V64UK7OE48LZS"}
{"meta_move": "drag_end", "rt": "977.0", "trial_number": "1", "pre_actions": "1", "move": "7@1", "instance": "prb26567", "distance_to_goal": "NA", "progress": "NA", "move_number": "14", "optimal_length": "7", "subject": "A2MYB6MLQW0IGN:3TYCR1GOTDRCCQYD1V64UK7OE48LZS"}
{"meta_move": "drag_end", "rt": "1316.0", "trial_number": "1", "pre_actions": "1", "move": "5@12", "instance": "prb26567", "distance_to_goal": "NA", "progress": "NA", "move_number": "15", "optimal_length": "7", "subject": "A2MYB6MLQW0IGN:3TYCR1GOTDRCCQYD1V64UK7OE48LZS"}
{"meta_move": "drag_end", "rt": "1107.0", "trial_number": "1", "pre_actions": "1", "move": "2@25", "instance": "prb26567", "distance_to_goal": "NA", "progress": "NA", "move_number": "16", "optimal_length": "7", "subject": "A2MYB6MLQW0IGN:3TYCR1GOTDRCCQYD1V64UK7OE48LZS"}
{"meta_move": "drag_end", "rt": "1135.0", "trial_number": "1", "pre_actions": "1", "move": "2@26", "instance": "prb26567", "distance_to_goal": "NA", "progress": "NA", "move_number": "17", "optimal_length": "7", "subject": "A2MYB6MLQW0IGN:3TYCR1GOTDRCCQYD1V64UK7OE48LZS"}
{"meta_move": "drag_end", "rt": "1841.0", "trial_number": "1", "pre_actions": "1", "move": "r@13", "instance": "prb26567", "distance_to_goal": "NA", "progress": "NA", "move_number": "18", "optimal_length": "7", "subject": "A2MYB6MLQW0IGN:3TYCR1GOTDRCCQYD1V64UK7OE48LZS"}
{"meta_move": "drag_end", "rt": "1829.0", "trial_number": "1", "pre_actions": "1", "move": "0@19", "instance": "prb26567", "distance_to_goal": "NA", "progress": "NA", "move_number": "19", "optimal_length": "7", "subject": "A2MYB6MLQW0IGN:3TYCR1GOTDRCCQYD1V64UK7OE48LZS"}
{"meta_move": "drag_end", "rt": "844.0", "trial_number": "1", "pre_actions": "1", "move": "2@25", "instance": "prb26567", "distance_to_goal": "NA", "progress": "NA", "move_number": "20", "optimal_length": "7", "subject": "A2MYB6MLQW0IGN:3TYCR1GOTDRCCQYD1V64UK7OE48LZS"}
{"meta_move": "drag_end", "rt": "1207.0", "trial_number": "1", "pre_actions": "1", "move": "3@22", "instance": "prb26567", "distance_to_goal": "NA", "progress": "NA", "move_number": "21", "optimal_length": "7", "subject": "A2MYB6MLQW0IGN:3TYCR1GOTDRCCQYD1V64UK7OE48LZS"}
{"meta_move": "drag_end", "rt": "1206.0", "trial_number": "1", "pre_actions": "1", "move": "6@10", "instance": "prb26567", "distance_to_goal": "NA", "progress": "NA", "move_number": "22", "optimal_length": "7", "subject": "A2MYB6MLQW0IGN:3TYCR1GOTDRCCQYD1V64UK7OE48LZS"}
{"meta_move": "win", "rt": "2247.0", "trial_number": "1", "pre_actions": "1", "move": "r@13", "instance": "prb26567", "distance_to_goal": "1", "progress": "NA", "move_number": "23", "optimal_length": "7", "subject": "A2MYB6MLQW0IGN:3TYCR1GOTDRCCQYD1V64UK7OE48LZS"}
{"meta_move": "drag_end", "rt": "117.0", "trial_number": "0", "pre_actions": "0", "move": "r@16", "instance": "prb26567", "distance_to_goal": "NA", "progress": "NA", "move_number": "23", "optimal_length": "7", "subject": "A2MYB6MLQW0IGN:3TYCR1GOTDRCCQYD1V64UK7OE48LZS"}
{"meta_move": "drag_end", "rt": "2412.0", "trial_number": "3", "pre_actions": "1", "move": "0@21", "instance": "prb26567", "distance_to_goal": "NA", "progress": "NA", "move_number": "0", "optimal_length": "7", "subject": "A2TQNX64349OZ9:3WSELTNVR4AZUVYAYCSWZIQW0J4ATB"}
{"meta_move": "drag_end", "rt": "735.0", "trial_number": "3", "pre_actions": "1", "move": "2@27", "instance": "prb26567", "distance_to_goal": "NA", "progress": "NA", "move_number": "1", "optimal_length": "7", "subject": "A2TQNX64349OZ9:3WSELTNVR4AZUVYAYCSWZIQW0J4ATB"}
{"meta_move": "drag_end", "rt": "1386.0", "trial_number": "3", "pre_actions": "1", "move": "r@14", "instance": "prb26567", "distance_to_goal": "NA", "progress": "NA", "move_number": "2", "optimal_length": "7", "subject": "A2TQNX64349OZ9:3WSELTNVR4AZUVYAYCSWZIQW0J4ATB"}
{"meta_move": "drag_end", "rt": "682.0", "trial_number": "3", "pre_actions": "1", "move": "7@13", "instance": "prb26567", "distance_to_goal": "NA", "progress": "NA", "move_number": "3", "optimal_length": "7", "subject": "A2TQNX64349OZ9:3WSELTNVR4AZUVYAYCSWZIQW0J4ATB"}
{"meta_move": "drag_end", "rt": "677.0", "trial_number": "3", "pre_actions": "1", "move": "2@25", "instance": "prb26567", "distance_to_goal": "NA", "progress": "NA", "move_number": "4", "optimal_length": "7", "subject": "A2TQNX64349OZ9:3WSELTNVR4AZUVYAYCSWZIQW0J4ATB"}
{"meta_move": "drag_end", "rt": "804.0", "trial_number": "3", "pre_actions": "1", "move": "1@29", "instance": "prb26567", "distance_to_goal": "NA", "progress": "NA", "move_number": "5", "optimal_length": "7", "subject": "A2TQNX64349OZ9:3WSELTNVR4AZUVYAYCSWZIQW0J4ATB"}
{"meta_move": "drag_end", "rt": "532.0", "trial_number": "3", "pre_actions": "1", "move": "0@22", "instance": "prb26567", "distance_to_goal": "NA", "progress": "NA", "move_number": "6", "optimal_length": "7", "subject": "A2TQNX64349OZ9:3WSELTNVR4AZUVYAYCSWZIQW0J4ATB"}
{"meta_move": "drag_end", "rt": "981.0", "trial_number": "3", "pre_actions": "1", "move": "2@26", "instance": "prb26567", "distance_to_goal": "NA", "progress": "NA", "move_number": "7", "optimal_length": "7", "subject": "A2TQNX64349OZ9:3WSELTNVR4AZUVYAYCSWZIQW0J4ATB"}
{"meta_move": "drag_end", "rt": "650.0", "trial_number": "3", "pre_actions": "1", "move": "7@25", "instance": "prb26567", "distance_to_goal": "NA", "progress": "NA", "move_number": "8", "optimal_length": "7", "subject": "A2TQNX64349OZ9:3WSELTNVR4AZUVYAYCSWZIQW0J4ATB"}
{"meta_move": "drag_end", "rt": "1161.0", "trial_number": "3", "pre_actions": "1", "move": "r@12", "instance": "prb26567", "distance_to_goal": "NA", "progress": "NA", "move_number": "9", "optimal_length": "7", "subject": "A2TQNX64349OZ9:3WSELTNVR4AZUVYAYCSWZIQW0J4ATB"}
{"meta_move": "drag_end", "rt": "550.0", "trial_number": "3", "pre_actions": "1", "move": "6@8", "instance": "prb26567", "distance_to_goal": "NA", "progress": "NA", "move_number": "10", "optimal_length": "7", "subject": "A2TQNX64349OZ9:3WSELTNVR4AZUVYAYCSWZIQW0J4ATB"}
{"meta_move": "drag_end", "rt": "5022.0", "trial_number": "1", "pre_actions": "1", "move": "6@7", "instance": "prb26567", "distance_to_goal": "NA", "progress": "NA", "move_number": "0", "optimal_length": "7", "subject": "A3Q0XAGQ7TD7MP:3X87C8JFV7JQ2BSCY8KSFD9F2ILSQK"}
{"meta_move": "drag_end", "rt": "1637.0", "trial_number": "1", "pre_actions": "1", "move": "6@7", "instance": "prb26567", "distance_to_goal": "NA", "progress": "NA", "move_number": "0", "optimal_length": "7", "subject": "A3Q0XAGQ7TD7MP:3X87C8JFV7JQ2BSCY8KSFD9F2ILSQK"}
{"meta_move": "drag_end", "rt": "1520.0", "trial_number": "1", "pre_actions": "1", "move": "r@14", "instance": "prb26567", "distance_to_goal": "NA", "progress": "NA", "move_number": "0", "optimal_length": "7", "subject": "A3Q0XAGQ7TD7MP:3X87C8JFV7JQ2BSCY8KSFD9F2ILSQK"}
{"meta_move": "drag_end", "rt": "1709.0", "trial_number": "1", "pre_actions": "1", "move": "6@8", "instance": "prb26567", "distance_to_goal": "NA", "progress": "NA", "move_number": "1", "optimal_length": "7", "subject": "A3Q0XAGQ7TD7MP:3X87C8JFV7JQ2BSCY8KSFD9F2ILSQK"}
{"meta_move": "drag_end", "rt": "1303.0", "trial_number": "1", "pre_actions": "1", "move": "7@1", "instance": "prb26567", "distance_to_goal": "NA", "progress": "NA", "move_number": "2", "optimal_length": "7", "subject": "A3Q0XAGQ7TD7MP:3X87C8JFV7JQ2BSCY8KSFD9F2ILSQK"}
{"meta_move": "drag_end", "rt": "2720.0", "trial_number": "1", "pre_actions": "1", "move": "r@12", "instance": "prb26567", "distance_to_goal": "NA", "progress": "NA", "move_number": "3", "optimal_length": "7", "subject": "A3Q0XAGQ7TD7MP:3X87C8JFV7JQ2BSCY8KSFD9F2ILSQK"}
{"meta_move": "drag_end", "rt": "2214.0", "trial_number": "1", "pre_actions": "1", "move": "2@25", "instance": "prb26567", "distance_to_goal": "NA", "progress": "NA", "move_number": "4", "optimal_length": "7", "subject": "A3Q0XAGQ7TD7MP:3X87C8JFV7JQ2BSCY8KSFD9F2ILSQK"}
{"meta_move": "drag_end", "rt": "1165.0", "trial_number": "1", "pre_actions": "1", "move": "0@19", "instance": "prb26567", "distance_to_goal": "NA", "progress": "NA", "move_number": "5", "optimal_length": "7", "subject": "A3Q0XAGQ7TD7MP:3X87C8JFV7JQ2BSCY8KSFD9F2ILSQK"}
{"meta_move": "drag_end", "rt": "1010.0", "trial_number": "1", "pre_actions": "1", "move": "3@22", "instance": "prb26567", "distance_to_goal": "NA", "progress": "NA", "move_number": "6", "optimal_length": "7", "subject": "A3Q0XAGQ7TD7MP:3X87C8JFV7JQ2BSCY8KSFD9F2ILSQK"}
{"meta_move": "drag_end", "rt": "2334.0", "trial_number": "1", "pre_actions": "1", "move": "1@29", "instance": "prb26567", "distance_to_goal": "NA", "progress": "NA", "move_number": "7", "optimal_length": "7", "subject": "A3Q0XAGQ7TD7MP:3X87C8JFV7JQ2BSCY8KSFD9F2ILSQK"}
{"meta_move": "win", "rt": "1236.0", "trial_number": "1", "pre_actions": "1", "move": "r@12", "instance": "prb26567", "distance_to_goal": "1", "progress": "NA", "move_number": "8", "optimal_length": "7", "subject": "A3Q0XAGQ7TD7MP:3X87C8JFV7JQ2BSCY8KSFD9F2ILSQK"}
{"meta_move": "drag_end", "rt": "119.0", "trial_number": "0", "pre_actions": "0", "move": "r@16", "instance": "prb26567", "distance_to_goal": "NA", "progress": "NA", "move_number": "8", "optimal_length": "7", "subject": "A3Q0XAGQ7TD7MP:3X87C8JFV7JQ2BSCY8KSFD9F2ILSQK"}
{"meta_move": "drag_end", "rt": "1056.0", "trial_number": "1", "pre_actions": "1", "move": "3@4", "instance": "prb26567", "distance_to_goal": "NA", "progress": "NA", "move_number": "0", "optimal_length": "7", "subject": "ARWF605I7RWM7:3AZHRG4CU5SYU12YRVPCSZALW5003R"}
{"meta_move": "drag_end", "rt": "560.0", "trial_number": "1", "pre_actions": "1", "move": "1@29", "instance": "prb26567", "distance_to_goal": "NA", "progress": "NA", "move_number": "0", "optimal_length": "7", "subject": "ARWF605I7RWM7:3AZHRG4CU5SYU12YRVPCSZALW5003R"}
{"meta_move": "drag_end", "rt": "590.0", "trial_number": "1", "pre_actions": "1", "move": "0@22", "instance": "prb26567", "distance_to_goal": "NA", "progress": "NA", "move_number": "1", "optimal_length": "7", "subject": "ARWF605I7RWM7:3AZHRG4CU5SYU12YRVPCSZALW5003R"}
{"meta_move": "drag_end", "rt": "843.0", "trial_number": "1", "pre_actions": "1", "move": "7@19", "instance": "prb26567", "distance_to_goal": "NA", "progress": "NA", "move_number": "2", "optimal_length": "7", "subject": "ARWF605I7RWM7:3AZHRG4CU5SYU12YRVPCSZALW5003R"}
{"meta_move": "drag_end", "rt": "1559.0", "trial_number": "1", "pre_actions": "1", "move": "6@8", "instance": "prb26567", "distance_to_goal": "NA", "progress": "NA", "move_number": "3", "optimal_length": "7", "subject": "ARWF605I7RWM7:3AZHRG4CU5SYU12YRVPCSZALW5003R"}
{"meta_move": "drag_end", "rt": "743.0", "trial_number": "1", "pre_actions": "1", "move": "r@14", "instance": "prb26567", "distance_to_goal": "NA", "progress": "NA", "move_number": "4", "optimal_length": "7", "subject": "ARWF605I7RWM7:3AZHRG4CU5SYU12YRVPCSZALW5003R"}
{"meta_move": "drag_end", "rt": "1177.0", "trial_number": "1", "pre_actions": "1", "move": "5@12", "instance": "prb26567", "distance_to_goal": "NA", "progress": "NA", "move_number": "5", "optimal_length": "7", "subject": "ARWF605I7RWM7:3AZHRG4CU5SYU12YRVPCSZALW5003R"}
{"meta_move": "drag_end", "rt": "495.0", "trial_number": "1", "pre_actions": "1", "move": "7@1", "instance": "prb26567", "distance_to_goal": "NA", "progress": "NA", "move_number": "6", "optimal_length": "7", "subject": "ARWF605I7RWM7:3AZHRG4CU5SYU12YRVPCSZALW5003R"}
{"meta_move": "drag_end", "rt": "551.0", "trial_number": "1", "pre_actions": "1", "move": "2@25", "instance": "prb26567", "distance_to_goal": "NA", "progress": "NA", "move_number": "7", "optimal_length": "7", "subject": "ARWF605I7RWM7:3AZHRG4CU5SYU12YRVPCSZALW5003R"}
{"meta_move": "drag_end", "rt": "904.0", "trial_number": "1", "pre_actions": "1", "move": "0@19", "instance": "prb26567", "distance_to_goal": "NA", "progress": "NA", "move_number": "8", "optimal_length": "7", "subject": "ARWF605I7RWM7:3AZHRG4CU5SYU12YRVPCSZALW5003R"}
{"meta_move": "drag_end", "rt": "802.0", "trial_number": "1", "pre_actions": "1", "move": "3@22", "instance": "prb26567", "distance_to_goal": "NA", "progress": "NA", "move_number": "9", "optimal_length": "7", "subject": "ARWF605I7RWM7:3AZHRG4CU5SYU12YRVPCSZALW5003R"}
{"meta_move": "win", "rt": "759.0", "trial_number": "1", "pre_actions": "1", "move": "r@14", "instance": "prb26567", "distance_to_goal": "1", "progress": "NA", "move_number": "10", "optimal_length": "7", "subject": "ARWF605I7RWM7:3AZHRG4CU5SYU12YRVPCSZALW5003R"}
{"meta_move": "drag_end", "rt": "119.0", "trial_number": "0", "pre_actions": "0", "move": "r@16", "instance": "prb26567", "distance_to_goal": "NA", "progress": "NA", "move_number": "10", "optimal_length": "7", "subject": "ARWF605I7RWM7:3AZHRG4CU5SYU12YRVPCSZALW5003R"}
