{"meta_move": "drag_end", "rt": "5222.0", "trial_number": "1", "pre_actions": "1", "move": "2@22", "instance": "prb29600", "distance_to_goal": "NA", "progress": "NA", "move_number": "0", "optimal_length": "14", "subject": "A191V7PT3DQKDP:3PMBY0YE28B43VMUKKJ6EDF85RV9C8"}
{"meta_move": "drag_end", "rt": "584.0", "trial_number": "1", "pre_actions": "1", "move": "1@23", "instance": "prb29600", "distance_to_goal": "NA", "progress": "NA", "move_number": "1", "optimal_length": "14", "subject": "A191V7PT3DQKDP:3PMBY0YE28B43VMUKKJ6EDF85RV9C8"}
{"meta_move": "drag_end", "rt": "2840.0", "trial_number": "1", "pre_actions": "1", "move": "5@2", "instance": "prb29600", "distance_to_goal": "NA", "progress": "NA", "move_number": "2", "optimal_length": "14", "subject": "A191V7PT3DQKDP:3PMBY0YE28B43VMUKKJ6EDF85RV9C8"}
{"meta_move": "drag_end", "rt": "697.0", "trial_number": "1", "pre_actions": "1", "move": "3@11", "instance": "prb29600", "distance_to_goal": "NA", "progress": "NA", "move_number": "3", "optimal_length": "14", "subject": "A191V7PT3DQKDP:3PMBY0YE28B43VMUKKJ6EDF85RV9C8"}
{"meta_move": "drag_end", "rt": "525.0", "trial_number": "1", "pre_actions": "1", "move": "5@4", "instance": "prb29600", "distance_to_goal": "NA", "progress": "NA", "move_number": "4", "optimal_length": "14", "subject": "A191V7PT3DQKDP:3PMBY0YE28B43VMUKKJ6EDF85RV9C8"}
{"meta_move": "drag_end", "rt": "776.0", "trial_number": "1", "pre_actions": "1", "move": "6@3", "instance": "prb29600", "distance_to_goal": "NA", "progress": "NA", "move_number": "5", "optimal_length": "14", "subject": "A191V7PT3DQKDP:3PMBY0YE28B43VMUKKJ6EDF85RV9C8"}
{"meta_move": "drag_end", "rt": "985.0", "trial_number": "1", "pre_actions": "1", "move": "r@14", "instance": "prb29600", "distance_to_goal": "NA", "progress": "NA", "move_number": "6", "optimal_length": "14", "subject": "A191V7PT3DQKDP:3PMBY0YE28B43VMUKKJ6EDF85RV9C8"}
{"meta_move": "drag_end", "rt": "663.0", "trial_number": "1", "pre_actions": "1", "move": "7@19", "instance": "prb29600", "distance_to_goal": "NA", "progress": "NA", "move_number": "7", "optimal_length": "14", "subject": "A191V7PT3DQKDP:3PMBY0YE28B43VMUKKJ6EDF85RV9C8"}
{"meta_move": "drag_end", "rt": "664.0", "trial_number": "1", "pre_actions": "1", "move": "r@13", "instance": "prb29600", "distance_to_goal": "NA", "progress": "NA", "move_number": "8", "optimal_length": "14", "subject": "A191V7PT3DQKDP:3PMBY0YE28B43VMUKKJ6EDF85RV9C8"}
{"meta_move": "drag_end", "rt": "755.0", "trial_number": "1", "pre_actions": "1", "move": "6@9", "instance": "prb29600", "distance_to_goal": "NA", "progress": "NA", "move_number": "9", "optimal_length": "14", "subject": "A191V7PT3DQKDP:3PMBY0YE28B43VMUKKJ6EDF85RV9C8"}
{"meta_move": "drag_end", "rt": "517.0", "trial_number": "1", "pre_actions": "1", "move": "5@0", "instance": "prb29600", "distance_to_goal": "NA", "progress": "NA", "move_number": "10", "optimal_length": "14", "subject": "A191V7PT3DQKDP:3PMBY0YE28B43VMUKKJ6EDF85RV9C8"}
{"meta_move": "drag_end", "rt": "532.0", "trial_number": "1", "pre_actions": "1", "move": "6@3", "instance": "prb29600", "distance_to_goal": "NA", "progress": "NA", "move_number": "11", "optimal_length": "14", "subject": "A191V7PT3DQKDP:3PMBY0YE28B43VMUKKJ6EDF85RV9C8"}
{"meta_move": "drag_end", "rt": "535.0", "trial_number": "1", "pre_actions": "1", "move": "3@5", "instance": "prb29600", "distance_to_goal": "NA", "progress": "NA", "move_number": "12", "optimal_length": "14", "subject": "A191V7PT3DQKDP:3PMBY0YE28B43VMUKKJ6EDF85RV9C8"}
{"meta_move": "win", "rt": "695.0", "trial_number": "1", "pre_actions": "1", "move": "r@13", "instance": "prb29600", "distance_to_goal": "1", "progress": "NA", "move_number": "13", "optimal_length": "14", "subject": "A191V7PT3DQKDP:3PMBY0YE28B43VMUKKJ6EDF85RV9C8"}
{"meta_move": "drag_end", "rt": "198.0", "trial_number": "0", "pre_actions": "0", "move": "r@16", "instance": "prb29600", "distance_to_goal": "NA", "progress": "NA", "move_number": "13", "optimal_length": "14", "subject": "A191V7PT3DQKDP:3PMBY0YE28B43VMUKKJ6EDF85RV9C8"}
{"meta_move": "drag_end", "rt": "2726.0", "trial_number": "1", "pre_actions": "1", "move": "5@2", "instance": "prb29600", "distance_to_goal": "NA", "progress": "NA", "move_number": "0", "optimal_length": "14", "subject": "A1F4N58CAX8IMK:3TS1AR6UQRM7SOIBWPBN8N9589Y7FV"}
{"meta_move": "drag_end", "rt": "832.0", "trial_number": "1", "pre_actions": "1", "move": "2@22", "instance": "prb29600", "distance_to_goal": "NA", "progress": "NA", "move_number": "1", "optimal_length": "14", "subject": "A1F4N58CAX8IMK:3TS1AR6UQRM7SOIBWPBN8N9589Y7FV"}
{"meta_move": "drag_end", "rt": "544.0", "trial_number": "1", "pre_actions": "1", "move": "1@23", "instance": "prb29600", "distance_to_goal": "NA", "progress": "NA", "move_number": "2", "optimal_length": "14", "subject": "A1F4N58CAX8IMK:3TS1AR6UQRM7SOIBWPBN8N9589Y7FV"}
{"meta_move": "drag_end", "rt": "1146.0", "trial_number": "1", "pre_actions": "1", "move": "4@31", "instance": "prb29600", "distance_to_goal": "NA", "progress": "NA", "move_number": "3", "optimal_length": "14", "subject": "A1F4N58CAX8IMK:3TS1AR6UQRM7SOIBWPBN8N9589Y7FV"}
{"meta_move": "drag_end", "rt": "823.0", "trial_number": "1", "pre_actions": "1", "move": "r@13", "instance": "prb29600", "distance_to_goal": "NA", "progress": "NA", "move_number": "4", "optimal_length": "14", "subject": "A1F4N58CAX8IMK:3TS1AR6UQRM7SOIBWPBN8N9589Y7FV"}
{"meta_move": "drag_end", "rt": "1599.0", "trial_number": "1", "pre_actions": "1", "move": "5@3", "instance": "prb29600", "distance_to_goal": "NA", "progress": "NA", "move_number": "5", "optimal_length": "14", "subject": "A1F4N58CAX8IMK:3TS1AR6UQRM7SOIBWPBN8N9589Y7FV"}
{"meta_move": "drag_end", "rt": "984.0", "trial_number": "1", "pre_actions": "1", "move": "2@10", "instance": "prb29600", "distance_to_goal": "NA", "progress": "NA", "move_number": "6", "optimal_length": "14", "subject": "A1F4N58CAX8IMK:3TS1AR6UQRM7SOIBWPBN8N9589Y7FV"}
{"meta_move": "drag_end", "rt": "752.0", "trial_number": "1", "pre_actions": "1", "move": "1@17", "instance": "prb29600", "distance_to_goal": "NA", "progress": "NA", "move_number": "7", "optimal_length": "14", "subject": "A1F4N58CAX8IMK:3TS1AR6UQRM7SOIBWPBN8N9589Y7FV"}
{"meta_move": "drag_end", "rt": "728.0", "trial_number": "1", "pre_actions": "1", "move": "4@30", "instance": "prb29600", "distance_to_goal": "NA", "progress": "NA", "move_number": "8", "optimal_length": "14", "subject": "A1F4N58CAX8IMK:3TS1AR6UQRM7SOIBWPBN8N9589Y7FV"}
{"meta_move": "drag_end", "rt": "692.0", "trial_number": "1", "pre_actions": "1", "move": "0@21", "instance": "prb29600", "distance_to_goal": "NA", "progress": "NA", "move_number": "9", "optimal_length": "14", "subject": "A1F4N58CAX8IMK:3TS1AR6UQRM7SOIBWPBN8N9589Y7FV"}
{"meta_move": "drag_end", "rt": "885.0", "trial_number": "1", "pre_actions": "1", "move": "r@12", "instance": "prb29600", "distance_to_goal": "NA", "progress": "NA", "move_number": "9", "optimal_length": "14", "subject": "A1F4N58CAX8IMK:3TS1AR6UQRM7SOIBWPBN8N9589Y7FV"}
{"meta_move": "drag_end", "rt": "1551.0", "trial_number": "1", "pre_actions": "1", "move": "5@2", "instance": "prb29600", "distance_to_goal": "NA", "progress": "NA", "move_number": "10", "optimal_length": "14", "subject": "A1F4N58CAX8IMK:3TS1AR6UQRM7SOIBWPBN8N9589Y7FV"}
{"meta_move": "drag_end", "rt": "2408.0", "trial_number": "1", "pre_actions": "1", "move": "2@4", "instance": "prb29600", "distance_to_goal": "NA", "progress": "NA", "move_number": "11", "optimal_length": "14", "subject": "A1F4N58CAX8IMK:3TS1AR6UQRM7SOIBWPBN8N9589Y7FV"}
{"meta_move": "drag_end", "rt": "1098.0", "trial_number": "1", "pre_actions": "1", "move": "0@21", "instance": "prb29600", "distance_to_goal": "NA", "progress": "NA", "move_number": "12", "optimal_length": "14", "subject": "A1F4N58CAX8IMK:3TS1AR6UQRM7SOIBWPBN8N9589Y7FV"}
{"meta_move": "drag_end", "rt": "1350.0", "trial_number": "1", "pre_actions": "1", "move": "1@23", "instance": "prb29600", "distance_to_goal": "NA", "progress": "NA", "move_number": "12", "optimal_length": "14", "subject": "A1F4N58CAX8IMK:3TS1AR6UQRM7SOIBWPBN8N9589Y7FV"}
{"meta_move": "drag_end", "rt": "744.0", "trial_number": "1", "pre_actions": "1", "move": "4@31", "instance": "prb29600", "distance_to_goal": "NA", "progress": "NA", "move_number": "13", "optimal_length": "14", "subject": "A1F4N58CAX8IMK:3TS1AR6UQRM7SOIBWPBN8N9589Y7FV"}
{"meta_move": "drag_end", "rt": "1361.0", "trial_number": "1", "pre_actions": "1", "move": "r@12", "instance": "prb29600", "distance_to_goal": "NA", "progress": "NA", "move_number": "14", "optimal_length": "14", "subject": "A1F4N58CAX8IMK:3TS1AR6UQRM7SOIBWPBN8N9589Y7FV"}
{"meta_move": "drag_end", "rt": "2623.0", "trial_number": "1", "pre_actions": "1", "move": "7@1", "instance": "prb29600", "distance_to_goal": "NA", "progress": "NA", "move_number": "14", "optimal_length": "14", "subject": "A1F4N58CAX8IMK:3TS1AR6UQRM7SOIBWPBN8N9589Y7FV"}
{"meta_move": "drag_end", "rt": "520.0", "trial_number": "1", "pre_actions": "1", "move": "7@1", "instance": "prb29600", "distance_to_goal": "NA", "progress": "NA", "move_number": "14", "optimal_length": "14", "subject": "A1F4N58CAX8IMK:3TS1AR6UQRM7SOIBWPBN8N9589Y7FV"}
{"meta_move": "drag_end", "rt": "666.0", "trial_number": "1", "pre_actions": "1", "move": "6@9", "instance": "prb29600", "distance_to_goal": "NA", "progress": "NA", "move_number": "14", "optimal_length": "14", "subject": "A1F4N58CAX8IMK:3TS1AR6UQRM7SOIBWPBN8N9589Y7FV"}
{"meta_move": "drag_end", "rt": "311.0", "trial_number": "1", "pre_actions": "1", "move": "5@2", "instance": "prb29600", "distance_to_goal": "NA", "progress": "NA", "move_number": "14", "optimal_length": "14", "subject": "A1F4N58CAX8IMK:3TS1AR6UQRM7SOIBWPBN8N9589Y7FV"}
{"meta_move": "drag_end", "rt": "799.0", "trial_number": "1", "pre_actions": "1", "move": "6@9", "instance": "prb29600", "distance_to_goal": "NA", "progress": "NA", "move_number": "14", "optimal_length": "14", "subject": "A1F4N58CAX8IMK:3TS1AR6UQRM7SOIBWPBN8N9589Y7FV"}
{"meta_move": "drag_end", "rt": "769.0", "trial_number": "1", "pre_actions": "1", "move": "4@30", "instance": "prb29600", "distance_to_goal": "NA", "progress": "NA", "move_number": "14", "optimal_length": "14", "subject": "A1F4N58CAX8IMK:3TS1AR6UQRM7SOIBWPBN8N9589Y7FV"}
{"meta_move": "drag_end", "rt": "727.0", "trial_number": "1", "pre_actions": "1", "move": "0@21", "instance": "prb29600", "distance_to_goal": "NA", "progress": "NA", "move_number": "15", "optimal_length": "14", "subject": "A1F4N58CAX8IMK:3TS1AR6UQRM7SOIBWPBN8N9589Y7FV"}
{"meta_move": "drag_end", "rt": "808.0", "trial_number": "1", "pre_actions": "1", "move": "2@22", "instance": "prb29600", "distance_to_goal": "NA", "progress": "NA", "move_number": "15", "optimal_length": "14", "subject": "A1F4N58CAX8IMK:3TS1AR6UQRM7SOIBWPBN8N9589Y7FV"}
{"meta_move": "drag_end", "rt": "808.0", "trial_number": "1", "pre_actions": "1", "move": "5@3", "instance": "prb29600", "distance_to_goal": "NA", "progress": "NA", "move_number": "16", "optimal_length": "14", "subject": "A1F4N58CAX8IMK:3TS1AR6UQRM7SOIBWPBN8N9589Y7FV"}
{"meta_move": "drag_end", "rt": "842.0", "trial_number": "1", "pre_actions": "1", "move": "6@9", "instance": "prb29600", "distance_to_goal": "NA", "progress": "NA", "move_number": "17", "optimal_length": "14", "subject": "A1F4N58CAX8IMK:3TS1AR6UQRM7SOIBWPBN8N9589Y7FV"}
{"meta_move": "drag_end", "rt": "1951.0", "trial_number": "1", "pre_actions": "1", "move": "r@13", "instance": "prb29600", "distance_to_goal": "NA", "progress": "NA", "move_number": "17", "optimal_length": "14", "subject": "A1F4N58CAX8IMK:3TS1AR6UQRM7SOIBWPBN8N9589Y7FV"}
{"meta_move": "drag_end", "rt": "2343.0", "trial_number": "1", "pre_actions": "1", "move": "5@2", "instance": "prb29600", "distance_to_goal": "NA", "progress": "NA", "move_number": "18", "optimal_length": "14", "subject": "A1F4N58CAX8IMK:3TS1AR6UQRM7SOIBWPBN8N9589Y7FV"}
{"meta_move": "drag_end", "rt": "1752.0", "trial_number": "1", "pre_actions": "1", "move": "2@4", "instance": "prb29600", "distance_to_goal": "NA", "progress": "NA", "move_number": "19", "optimal_length": "14", "subject": "A1F4N58CAX8IMK:3TS1AR6UQRM7SOIBWPBN8N9589Y7FV"}
{"meta_move": "drag_end", "rt": "1016.0", "trial_number": "1", "pre_actions": "1", "move": "0@21", "instance": "prb29600", "distance_to_goal": "NA", "progress": "NA", "move_number": "20", "optimal_length": "14", "subject": "A1F4N58CAX8IMK:3TS1AR6UQRM7SOIBWPBN8N9589Y7FV"}
{"meta_move": "drag_end", "rt": "832.0", "trial_number": "1", "pre_actions": "1", "move": "7@1", "instance": "prb29600", "distance_to_goal": "NA", "progress": "NA", "move_number": "20", "optimal_length": "14", "subject": "A1F4N58CAX8IMK:3TS1AR6UQRM7SOIBWPBN8N9589Y7FV"}
{"meta_move": "drag_end", "rt": "426.0", "trial_number": "1", "pre_actions": "1", "move": "r@12", "instance": "prb29600", "distance_to_goal": "NA", "progress": "NA", "move_number": "20", "optimal_length": "14", "subject": "A1F4N58CAX8IMK:3TS1AR6UQRM7SOIBWPBN8N9589Y7FV"}
{"meta_move": "drag_end", "rt": "790.0", "trial_number": "1", "pre_actions": "1", "move": "2@22", "instance": "prb29600", "distance_to_goal": "NA", "progress": "NA", "move_number": "21", "optimal_length": "14", "subject": "A1F4N58CAX8IMK:3TS1AR6UQRM7SOIBWPBN8N9589Y7FV"}
{"meta_move": "drag_end", "rt": "1560.0", "trial_number": "1", "pre_actions": "1", "move": "5@2", "instance": "prb29600", "distance_to_goal": "NA", "progress": "NA", "move_number": "22", "optimal_length": "14", "subject": "A1F4N58CAX8IMK:3TS1AR6UQRM7SOIBWPBN8N9589Y7FV"}
{"meta_move": "drag_end", "rt": "866.0", "trial_number": "1", "pre_actions": "1", "move": "3@11", "instance": "prb29600", "distance_to_goal": "NA", "progress": "NA", "move_number": "22", "optimal_length": "14", "subject": "A1F4N58CAX8IMK:3TS1AR6UQRM7SOIBWPBN8N9589Y7FV"}
{"meta_move": "drag_end", "rt": "662.0", "trial_number": "1", "pre_actions": "1", "move": "5@4", "instance": "prb29600", "distance_to_goal": "NA", "progress": "NA", "move_number": "23", "optimal_length": "14", "subject": "A1F4N58CAX8IMK:3TS1AR6UQRM7SOIBWPBN8N9589Y7FV"}
{"meta_move": "drag_end", "rt": "760.0", "trial_number": "1", "pre_actions": "1", "move": "6@3", "instance": "prb29600", "distance_to_goal": "NA", "progress": "NA", "move_number": "24", "optimal_length": "14", "subject": "A1F4N58CAX8IMK:3TS1AR6UQRM7SOIBWPBN8N9589Y7FV"}
{"meta_move": "drag_end", "rt": "1840.0", "trial_number": "1", "pre_actions": "1", "move": "r@14", "instance": "prb29600", "distance_to_goal": "NA", "progress": "NA", "move_number": "25", "optimal_length": "14", "subject": "A1F4N58CAX8IMK:3TS1AR6UQRM7SOIBWPBN8N9589Y7FV"}
{"meta_move": "drag_end", "rt": "2264.0", "trial_number": "1", "pre_actions": "1", "move": "r@12", "instance": "prb29600", "distance_to_goal": "NA", "progress": "NA", "move_number": "26", "optimal_length": "14", "subject": "A1F4N58CAX8IMK:3TS1AR6UQRM7SOIBWPBN8N9589Y7FV"}
{"meta_move": "drag_end", "rt": "704.0", "trial_number": "1", "pre_actions": "1", "move": "6@9", "instance": "prb29600", "distance_to_goal": "NA", "progress": "NA", "move_number": "27", "optimal_length": "14", "subject": "A1F4N58CAX8IMK:3TS1AR6UQRM7SOIBWPBN8N9589Y7FV"}
{"meta_move": "drag_end", "rt": "752.0", "trial_number": "1", "pre_actions": "1", "move": "r@13", "instance": "prb29600", "distance_to_goal": "NA", "progress": "NA", "move_number": "28", "optimal_length": "14", "subject": "A1F4N58CAX8IMK:3TS1AR6UQRM7SOIBWPBN8N9589Y7FV"}
{"meta_move": "drag_end", "rt": "656.0", "trial_number": "1", "pre_actions": "1", "move": "5@2", "instance": "prb29600", "distance_to_goal": "NA", "progress": "NA", "move_number": "29", "optimal_length": "14", "subject": "A1F4N58CAX8IMK:3TS1AR6UQRM7SOIBWPBN8N9589Y7FV"}
{"meta_move": "drag_end", "rt": "993.0", "trial_number": "1", "pre_actions": "1", "move": "6@9", "instance": "prb29600", "distance_to_goal": "NA", "progress": "NA", "move_number": "30", "optimal_length": "14", "subject": "A1F4N58CAX8IMK:3TS1AR6UQRM7SOIBWPBN8N9589Y7FV"}
{"meta_move": "drag_end", "rt": "585.0", "trial_number": "1", "pre_actions": "1", "move": "3@5", "instance": "prb29600", "distance_to_goal": "NA", "progress": "NA", "move_number": "30", "optimal_length": "14", "subject": "A1F4N58CAX8IMK:3TS1AR6UQRM7SOIBWPBN8N9589Y7FV"}
{"meta_move": "drag_end", "rt": "537.0", "trial_number": "1", "pre_actions": "1", "move": "6@9", "instance": "prb29600", "distance_to_goal": "NA", "progress": "NA", "move_number": "31", "optimal_length": "14", "subject": "A1F4N58CAX8IMK:3TS1AR6UQRM7SOIBWPBN8N9589Y7FV"}
{"meta_move": "drag_end", "rt": "573.0", "trial_number": "1", "pre_actions": "1", "move": "3@11", "instance": "prb29600", "distance_to_goal": "NA", "progress": "NA", "move_number": "31", "optimal_length": "14", "subject": "A1F4N58CAX8IMK:3TS1AR6UQRM7SOIBWPBN8N9589Y7FV"}
{"meta_move": "drag_end", "rt": "656.0", "trial_number": "1", "pre_actions": "1", "move": "5@4", "instance": "prb29600", "distance_to_goal": "NA", "progress": "NA", "move_number": "32", "optimal_length": "14", "subject": "A1F4N58CAX8IMK:3TS1AR6UQRM7SOIBWPBN8N9589Y7FV"}
{"meta_move": "drag_end", "rt": "634.0", "trial_number": "1", "pre_actions": "1", "move": "6@3", "instance": "prb29600", "distance_to_goal": "NA", "progress": "NA", "move_number": "33", "optimal_length": "14", "subject": "A1F4N58CAX8IMK:3TS1AR6UQRM7SOIBWPBN8N9589Y7FV"}
{"meta_move": "drag_end", "rt": "894.0", "trial_number": "1", "pre_actions": "1", "move": "r@14", "instance": "prb29600", "distance_to_goal": "NA", "progress": "NA", "move_number": "34", "optimal_length": "14", "subject": "A1F4N58CAX8IMK:3TS1AR6UQRM7SOIBWPBN8N9589Y7FV"}
{"meta_move": "drag_end", "rt": "816.0", "trial_number": "1", "pre_actions": "1", "move": "7@19", "instance": "prb29600", "distance_to_goal": "NA", "progress": "NA", "move_number": "35", "optimal_length": "14", "subject": "A1F4N58CAX8IMK:3TS1AR6UQRM7SOIBWPBN8N9589Y7FV"}
{"meta_move": "drag_end", "rt": "2648.0", "trial_number": "1", "pre_actions": "1", "move": "r@13", "instance": "prb29600", "distance_to_goal": "NA", "progress": "NA", "move_number": "36", "optimal_length": "14", "subject": "A1F4N58CAX8IMK:3TS1AR6UQRM7SOIBWPBN8N9589Y7FV"}
{"meta_move": "drag_end", "rt": "1008.0", "trial_number": "1", "pre_actions": "1", "move": "6@9", "instance": "prb29600", "distance_to_goal": "NA", "progress": "NA", "move_number": "37", "optimal_length": "14", "subject": "A1F4N58CAX8IMK:3TS1AR6UQRM7SOIBWPBN8N9589Y7FV"}
{"meta_move": "drag_end", "rt": "632.0", "trial_number": "1", "pre_actions": "1", "move": "5@0", "instance": "prb29600", "distance_to_goal": "NA", "progress": "NA", "move_number": "38", "optimal_length": "14", "subject": "A1F4N58CAX8IMK:3TS1AR6UQRM7SOIBWPBN8N9589Y7FV"}
{"meta_move": "drag_end", "rt": "905.0", "trial_number": "1", "pre_actions": "1", "move": "6@3", "instance": "prb29600", "distance_to_goal": "NA", "progress": "NA", "move_number": "39", "optimal_length": "14", "subject": "A1F4N58CAX8IMK:3TS1AR6UQRM7SOIBWPBN8N9589Y7FV"}
{"meta_move": "drag_end", "rt": "664.0", "trial_number": "1", "pre_actions": "1", "move": "3@5", "instance": "prb29600", "distance_to_goal": "NA", "progress": "NA", "move_number": "40", "optimal_length": "14", "subject": "A1F4N58CAX8IMK:3TS1AR6UQRM7SOIBWPBN8N9589Y7FV"}
{"meta_move": "win", "rt": "589.0", "trial_number": "1", "pre_actions": "1", "move": "r@13", "instance": "prb29600", "distance_to_goal": "1", "progress": "NA", "move_number": "41", "optimal_length": "14", "subject": "A1F4N58CAX8IMK:3TS1AR6UQRM7SOIBWPBN8N9589Y7FV"}
{"meta_move": "drag_end", "rt": "130.0", "trial_number": "0", "pre_actions": "0", "move": "r@16", "instance": "prb29600", "distance_to_goal": "NA", "progress": "NA", "move_number": "41", "optimal_length": "14", "subject": "A1F4N58CAX8IMK:3TS1AR6UQRM7SOIBWPBN8N9589Y7FV"}
{"meta_move": "drag_end", "rt": "4336.0", "trial_number": "1", "pre_actions": "1", "move": "r@12", "instance": "prb29600", "distance_to_goal": "NA", "progress": "NA", "move_number": "0", "optimal_length": "14", "subject": "A1LR0VQIHQUJAM:3YW4XOSQKRTI0K0Z2YPDTDJVFABU1I"}
{"meta_move": "drag_end", "rt": "2520.0", "trial_number": "1", "pre_actions": "1", "move": "1@23", "instance": "prb29600", "distance_to_goal": "NA", "progress": "NA", "move_number": "0", "optimal_length": "14", "subject": "A1LR0VQIHQUJAM:3YW4XOSQKRTI0K0Z2YPDTDJVFABU1I"}
{"meta_move": "drag_end", "rt": "463.0", "trial_number": "1", "pre_actions": "1", "move": "3@11", "instance": "prb29600", "distance_to_goal": "NA", "progress": "NA", "move_number": "1", "optimal_length": "14", "subject": "A1LR0VQIHQUJAM:3YW4XOSQKRTI0K0Z2YPDTDJVFABU1I"}
{"meta_move": "drag_end", "rt": "538.0", "trial_number": "1", "pre_actions": "1", "move": "5@4", "instance": "prb29600", "distance_to_goal": "NA", "progress": "NA", "move_number": "2", "optimal_length": "14", "subject": "A1LR0VQIHQUJAM:3YW4XOSQKRTI0K0Z2YPDTDJVFABU1I"}
{"meta_move": "drag_end", "rt": "735.0", "trial_number": "1", "pre_actions": "1", "move": "6@3", "instance": "prb29600", "distance_to_goal": "NA", "progress": "NA", "move_number": "3", "optimal_length": "14", "subject": "A1LR0VQIHQUJAM:3YW4XOSQKRTI0K0Z2YPDTDJVFABU1I"}
{"meta_move": "drag_end", "rt": "683.0", "trial_number": "1", "pre_actions": "1", "move": "r@14", "instance": "prb29600", "distance_to_goal": "NA", "progress": "NA", "move_number": "4", "optimal_length": "14", "subject": "A1LR0VQIHQUJAM:3YW4XOSQKRTI0K0Z2YPDTDJVFABU1I"}
{"meta_move": "drag_end", "rt": "686.0", "trial_number": "1", "pre_actions": "1", "move": "7@19", "instance": "prb29600", "distance_to_goal": "NA", "progress": "NA", "move_number": "5", "optimal_length": "14", "subject": "A1LR0VQIHQUJAM:3YW4XOSQKRTI0K0Z2YPDTDJVFABU1I"}
{"meta_move": "drag_end", "rt": "601.0", "trial_number": "1", "pre_actions": "1", "move": "r@12", "instance": "prb29600", "distance_to_goal": "NA", "progress": "NA", "move_number": "6", "optimal_length": "14", "subject": "A1LR0VQIHQUJAM:3YW4XOSQKRTI0K0Z2YPDTDJVFABU1I"}
{"meta_move": "drag_end", "rt": "2102.0", "trial_number": "1", "pre_actions": "1", "move": "2@22", "instance": "prb29600", "distance_to_goal": "NA", "progress": "NA", "move_number": "7", "optimal_length": "14", "subject": "A1LR0VQIHQUJAM:3YW4XOSQKRTI0K0Z2YPDTDJVFABU1I"}
{"meta_move": "drag_end", "rt": "1200.0", "trial_number": "1", "pre_actions": "1", "move": "6@9", "instance": "prb29600", "distance_to_goal": "NA", "progress": "NA", "move_number": "8", "optimal_length": "14", "subject": "A1LR0VQIHQUJAM:3YW4XOSQKRTI0K0Z2YPDTDJVFABU1I"}
{"meta_move": "drag_end", "rt": "500.0", "trial_number": "1", "pre_actions": "1", "move": "5@0", "instance": "prb29600", "distance_to_goal": "NA", "progress": "NA", "move_number": "9", "optimal_length": "14", "subject": "A1LR0VQIHQUJAM:3YW4XOSQKRTI0K0Z2YPDTDJVFABU1I"}
{"meta_move": "drag_end", "rt": "622.0", "trial_number": "1", "pre_actions": "1", "move": "3@5", "instance": "prb29600", "distance_to_goal": "NA", "progress": "NA", "move_number": "10", "optimal_length": "14", "subject": "A1LR0VQIHQUJAM:3YW4XOSQKRTI0K0Z2YPDTDJVFABU1I"}
{"meta_move": "drag_end", "rt": "473.0", "trial_number": "1", "pre_actions": "1", "move": "6@3", "instance": "prb29600", "distance_to_goal": "NA", "progress": "NA", "move_number": "11", "optimal_length": "14", "subject": "A1LR0VQIHQUJAM:3YW4XOSQKRTI0K0Z2YPDTDJVFABU1I"}
{"meta_move": "win", "rt": "618.0", "trial_number": "1", "pre_actions": "1", "move": "r@12", "instance": "prb29600", "distance_to_goal": "1", "progress": "NA", "move_number": "12", "optimal_length": "14", "subject": "A1LR0VQIHQUJAM:3YW4XOSQKRTI0K0Z2YPDTDJVFABU1I"}
{"meta_move": "drag_end", "rt": "71.0", "trial_number": "0", "pre_actions": "0", "move": "r@16", "instance": "prb29600", "distance_to_goal": "NA", "progress": "NA", "move_number": "12", "optimal_length": "14", "subject": "A1LR0VQIHQUJAM:3YW4XOSQKRTI0K0Z2YPDTDJVFABU1I"}
{"meta_move": "drag_end", "rt": "33084.0", "trial_number": "1", "pre_actions": "1", "move": "2@22", "instance": "prb29600", "distance_to_goal": "NA", "progress": "NA", "move_number": "0", "optimal_length": "14", "subject": "A1XDMS0KFSF5JW:3M0BCWMB8W4W5M7WZVX3HDH1M3FBWL"}
{"meta_move": "drag_end", "rt": "795.0", "trial_number": "1", "pre_actions": "1", "move": "1@23", "instance": "prb29600", "distance_to_goal": "NA", "progress": "NA", "move_number": "1", "optimal_length": "14", "subject": "A1XDMS0KFSF5JW:3M0BCWMB8W4W5M7WZVX3HDH1M3FBWL"}
{"meta_move": "drag_end", "rt": "10482.0", "trial_number": "1", "pre_actions": "1", "move": "4@30", "instance": "prb29600", "distance_to_goal": "NA", "progress": "NA", "move_number": "2", "optimal_length": "14", "subject": "A1XDMS0KFSF5JW:3M0BCWMB8W4W5M7WZVX3HDH1M3FBWL"}
{"meta_move": "drag_end", "rt": "1583.0", "trial_number": "1", "pre_actions": "1", "move": "3@11", "instance": "prb29600", "distance_to_goal": "NA", "progress": "NA", "move_number": "2", "optimal_length": "14", "subject": "A1XDMS0KFSF5JW:3M0BCWMB8W4W5M7WZVX3HDH1M3FBWL"}
{"meta_move": "drag_end", "rt": "776.0", "trial_number": "1", "pre_actions": "1", "move": "5@4", "instance": "prb29600", "distance_to_goal": "NA", "progress": "NA", "move_number": "3", "optimal_length": "14", "subject": "A1XDMS0KFSF5JW:3M0BCWMB8W4W5M7WZVX3HDH1M3FBWL"}
{"meta_move": "drag_end", "rt": "833.0", "trial_number": "1", "pre_actions": "1", "move": "6@3", "instance": "prb29600", "distance_to_goal": "NA", "progress": "NA", "move_number": "4", "optimal_length": "14", "subject": "A1XDMS0KFSF5JW:3M0BCWMB8W4W5M7WZVX3HDH1M3FBWL"}
{"meta_move": "drag_end", "rt": "4835.0", "trial_number": "1", "pre_actions": "1", "move": "r@14", "instance": "prb29600", "distance_to_goal": "NA", "progress": "NA", "move_number": "5", "optimal_length": "14", "subject": "A1XDMS0KFSF5JW:3M0BCWMB8W4W5M7WZVX3HDH1M3FBWL"}
{"meta_move": "drag_end", "rt": "1456.0", "trial_number": "1", "pre_actions": "1", "move": "7@19", "instance": "prb29600", "distance_to_goal": "NA", "progress": "NA", "move_number": "6", "optimal_length": "14", "subject": "A1XDMS0KFSF5JW:3M0BCWMB8W4W5M7WZVX3HDH1M3FBWL"}
{"meta_move": "drag_end", "rt": "1381.0", "trial_number": "1", "pre_actions": "1", "move": "r@12", "instance": "prb29600", "distance_to_goal": "NA", "progress": "NA", "move_number": "7", "optimal_length": "14", "subject": "A1XDMS0KFSF5JW:3M0BCWMB8W4W5M7WZVX3HDH1M3FBWL"}
{"meta_move": "drag_end", "rt": "1315.0", "trial_number": "1", "pre_actions": "1", "move": "6@9", "instance": "prb29600", "distance_to_goal": "NA", "progress": "NA", "move_number": "8", "optimal_length": "14", "subject": "A1XDMS0KFSF5JW:3M0BCWMB8W4W5M7WZVX3HDH1M3FBWL"}
{"meta_move": "drag_end", "rt": "836.0", "trial_number": "1", "pre_actions": "1", "move": "5@0", "instance": "prb29600", "distance_to_goal": "NA", "progress": "NA", "move_number": "9", "optimal_length": "14", "subject": "A1XDMS0KFSF5JW:3M0BCWMB8W4W5M7WZVX3HDH1M3FBWL"}
{"meta_move": "drag_end", "rt": "864.0", "trial_number": "1", "pre_actions": "1", "move": "6@3", "instance": "prb29600", "distance_to_goal": "NA", "progress": "NA", "move_number": "10", "optimal_length": "14", "subject": "A1XDMS0KFSF5JW:3M0BCWMB8W4W5M7WZVX3HDH1M3FBWL"}
{"meta_move": "drag_end", "rt": "759.0", "trial_number": "1", "pre_actions": "1", "move": "3@5", "instance": "prb29600", "distance_to_goal": "NA", "progress": "NA", "move_number": "11", "optimal_length": "14", "subject": "A1XDMS0KFSF5JW:3M0BCWMB8W4W5M7WZVX3HDH1M3FBWL"}
{"meta_move": "win", "rt": "685.0", "trial_number": "1", "pre_actions": "1", "move": "r@12", "instance": "prb29600", "distance_to_goal": "1", "progress": "NA", "move_number": "12", "optimal_length": "14", "subject": "A1XDMS0KFSF5JW:3M0BCWMB8W4W5M7WZVX3HDH1M3FBWL"}
{"meta_move": "drag_end", "rt": "164.0", "trial_number": "0", "pre_actions": "0", "move": "r@16", "instance": "prb29600", "distance_to_goal": "NA", "progress": "NA", "move_number": "12", "optimal_length": "14", "subject": "A1XDMS0KFSF5JW:3M0BCWMB8W4W5M7WZVX3HDH1M3FBWL"}
{"meta_move": "drag_end", "rt": "2954.0", "trial_number": "1", "pre_actions": "1", "move": "1@23", "instance": "prb29600", "distance_to_goal": "NA", "progress": "NA", "move_number": "0", "optimal_length": "14", "subject": "A214HWAW1PYWO8:34BBWHLWHBJ6SUL255PK30LEGY5IWG"}
{"meta_move": "drag_end", "rt": "489.0", "trial_number": "1", "pre_actions": "1", "move": "2@22", "instance": "prb29600", "distance_to_goal": "NA", "progress": "NA", "move_number": "1", "optimal_length": "14", "subject": "A214HWAW1PYWO8:34BBWHLWHBJ6SUL255PK30LEGY5IWG"}
{"meta_move": "drag_end", "rt": "1819.0", "trial_number": "1", "pre_actions": "1", "move": "5@3", "instance": "prb29600", "distance_to_goal": "NA", "progress": "NA", "move_number": "2", "optimal_length": "14", "subject": "A214HWAW1PYWO8:34BBWHLWHBJ6SUL255PK30LEGY5IWG"}
{"meta_move": "drag_end", "rt": "645.0", "trial_number": "1", "pre_actions": "1", "move": "7@1", "instance": "prb29600", "distance_to_goal": "NA", "progress": "NA", "move_number": "2", "optimal_length": "14", "subject": "A214HWAW1PYWO8:34BBWHLWHBJ6SUL255PK30LEGY5IWG"}
{"meta_move": "drag_end", "rt": "1626.0", "trial_number": "1", "pre_actions": "1", "move": "5@2", "instance": "prb29600", "distance_to_goal": "NA", "progress": "NA", "move_number": "2", "optimal_length": "14", "subject": "A214HWAW1PYWO8:34BBWHLWHBJ6SUL255PK30LEGY5IWG"}
{"meta_move": "drag_end", "rt": "913.0", "trial_number": "1", "pre_actions": "1", "move": "2@4", "instance": "prb29600", "distance_to_goal": "NA", "progress": "NA", "move_number": "3", "optimal_length": "14", "subject": "A214HWAW1PYWO8:34BBWHLWHBJ6SUL255PK30LEGY5IWG"}
{"meta_move": "drag_end", "rt": "923.0", "trial_number": "1", "pre_actions": "1", "move": "2@22", "instance": "prb29600", "distance_to_goal": "NA", "progress": "NA", "move_number": "4", "optimal_length": "14", "subject": "A214HWAW1PYWO8:34BBWHLWHBJ6SUL255PK30LEGY5IWG"}
{"meta_move": "drag_end", "rt": "2548.0", "trial_number": "1", "pre_actions": "1", "move": "3@5", "instance": "prb29600", "distance_to_goal": "NA", "progress": "NA", "move_number": "5", "optimal_length": "14", "subject": "A214HWAW1PYWO8:34BBWHLWHBJ6SUL255PK30LEGY5IWG"}
{"meta_move": "drag_end", "rt": "2027.0", "trial_number": "1", "pre_actions": "1", "move": "r@13", "instance": "prb29600", "distance_to_goal": "NA", "progress": "NA", "move_number": "5", "optimal_length": "14", "subject": "A214HWAW1PYWO8:34BBWHLWHBJ6SUL255PK30LEGY5IWG"}
{"meta_move": "drag_end", "rt": "11560.0", "trial_number": "2", "pre_actions": "1", "move": "6@9", "instance": "prb29600", "distance_to_goal": "NA", "progress": "NA", "move_number": "0", "optimal_length": "14", "subject": "A214HWAW1PYWO8:34BBWHLWHBJ6SUL255PK30LEGY5IWG"}
{"meta_move": "drag_end", "rt": "463.0", "trial_number": "2", "pre_actions": "1", "move": "5@2", "instance": "prb29600", "distance_to_goal": "NA", "progress": "NA", "move_number": "0", "optimal_length": "14", "subject": "A214HWAW1PYWO8:34BBWHLWHBJ6SUL255PK30LEGY5IWG"}
{"meta_move": "drag_end", "rt": "548.0", "trial_number": "2", "pre_actions": "1", "move": "5@3", "instance": "prb29600", "distance_to_goal": "NA", "progress": "NA", "move_number": "1", "optimal_length": "14", "subject": "A214HWAW1PYWO8:34BBWHLWHBJ6SUL255PK30LEGY5IWG"}
{"meta_move": "drag_end", "rt": "614.0", "trial_number": "2", "pre_actions": "1", "move": "3@5", "instance": "prb29600", "distance_to_goal": "NA", "progress": "NA", "move_number": "2", "optimal_length": "14", "subject": "A214HWAW1PYWO8:34BBWHLWHBJ6SUL255PK30LEGY5IWG"}
{"meta_move": "drag_end", "rt": "280.0", "trial_number": "2", "pre_actions": "1", "move": "1@23", "instance": "prb29600", "distance_to_goal": "NA", "progress": "NA", "move_number": "2", "optimal_length": "14", "subject": "A214HWAW1PYWO8:34BBWHLWHBJ6SUL255PK30LEGY5IWG"}
{"meta_move": "drag_end", "rt": "407.0", "trial_number": "2", "pre_actions": "1", "move": "3@11", "instance": "prb29600", "distance_to_goal": "NA", "progress": "NA", "move_number": "3", "optimal_length": "14", "subject": "A214HWAW1PYWO8:34BBWHLWHBJ6SUL255PK30LEGY5IWG"}
{"meta_move": "drag_end", "rt": "406.0", "trial_number": "2", "pre_actions": "1", "move": "5@4", "instance": "prb29600", "distance_to_goal": "NA", "progress": "NA", "move_number": "4", "optimal_length": "14", "subject": "A214HWAW1PYWO8:34BBWHLWHBJ6SUL255PK30LEGY5IWG"}
{"meta_move": "drag_end", "rt": "432.0", "trial_number": "2", "pre_actions": "1", "move": "6@3", "instance": "prb29600", "distance_to_goal": "NA", "progress": "NA", "move_number": "5", "optimal_length": "14", "subject": "A214HWAW1PYWO8:34BBWHLWHBJ6SUL255PK30LEGY5IWG"}
{"meta_move": "drag_end", "rt": "4777.0", "trial_number": "2", "pre_actions": "1", "move": "0@15", "instance": "prb29600", "distance_to_goal": "NA", "progress": "NA", "move_number": "6", "optimal_length": "14", "subject": "A214HWAW1PYWO8:34BBWHLWHBJ6SUL255PK30LEGY5IWG"}
{"meta_move": "drag_end", "rt": "834.0", "trial_number": "2", "pre_actions": "1", "move": "0@21", "instance": "prb29600", "distance_to_goal": "NA", "progress": "NA", "move_number": "7", "optimal_length": "14", "subject": "A214HWAW1PYWO8:34BBWHLWHBJ6SUL255PK30LEGY5IWG"}
{"meta_move": "drag_end", "rt": "561.0", "trial_number": "2", "pre_actions": "1", "move": "r@14", "instance": "prb29600", "distance_to_goal": "NA", "progress": "NA", "move_number": "8", "optimal_length": "14", "subject": "A214HWAW1PYWO8:34BBWHLWHBJ6SUL255PK30LEGY5IWG"}
{"meta_move": "drag_end", "rt": "630.0", "trial_number": "2", "pre_actions": "1", "move": "7@19", "instance": "prb29600", "distance_to_goal": "NA", "progress": "NA", "move_number": "9", "optimal_length": "14", "subject": "A214HWAW1PYWO8:34BBWHLWHBJ6SUL255PK30LEGY5IWG"}
{"meta_move": "drag_end", "rt": "651.0", "trial_number": "2", "pre_actions": "1", "move": "r@12", "instance": "prb29600", "distance_to_goal": "NA", "progress": "NA", "move_number": "10", "optimal_length": "14", "subject": "A214HWAW1PYWO8:34BBWHLWHBJ6SUL255PK30LEGY5IWG"}
{"meta_move": "drag_end", "rt": "637.0", "trial_number": "2", "pre_actions": "1", "move": "6@9", "instance": "prb29600", "distance_to_goal": "NA", "progress": "NA", "move_number": "11", "optimal_length": "14", "subject": "A214HWAW1PYWO8:34BBWHLWHBJ6SUL255PK30LEGY5IWG"}
{"meta_move": "drag_end", "rt": "547.0", "trial_number": "2", "pre_actions": "1", "move": "5@0", "instance": "prb29600", "distance_to_goal": "NA", "progress": "NA", "move_number": "12", "optimal_length": "14", "subject": "A214HWAW1PYWO8:34BBWHLWHBJ6SUL255PK30LEGY5IWG"}
{"meta_move": "drag_end", "rt": "786.0", "trial_number": "2", "pre_actions": "1", "move": "3@5", "instance": "prb29600", "distance_to_goal": "NA", "progress": "NA", "move_number": "13", "optimal_length": "14", "subject": "A214HWAW1PYWO8:34BBWHLWHBJ6SUL255PK30LEGY5IWG"}
{"meta_move": "drag_end", "rt": "856.0", "trial_number": "2", "pre_actions": "1", "move": "2@22", "instance": "prb29600", "distance_to_goal": "NA", "progress": "NA", "move_number": "14", "optimal_length": "14", "subject": "A214HWAW1PYWO8:34BBWHLWHBJ6SUL255PK30LEGY5IWG"}
{"meta_move": "drag_end", "rt": "388.0", "trial_number": "2", "pre_actions": "1", "move": "6@3", "instance": "prb29600", "distance_to_goal": "NA", "progress": "NA", "move_number": "15", "optimal_length": "14", "subject": "A214HWAW1PYWO8:34BBWHLWHBJ6SUL255PK30LEGY5IWG"}
{"meta_move": "win", "rt": "512.0", "trial_number": "2", "pre_actions": "1", "move": "r@12", "instance": "prb29600", "distance_to_goal": "1", "progress": "NA", "move_number": "16", "optimal_length": "14", "subject": "A214HWAW1PYWO8:34BBWHLWHBJ6SUL255PK30LEGY5IWG"}
{"meta_move": "drag_end", "rt": "57.0", "trial_number": "0", "pre_actions": "0", "move": "r@16", "instance": "prb29600", "distance_to_goal": "NA", "progress": "NA", "move_number": "16", "optimal_length": "14", "subject": "A214HWAW1PYWO8:34BBWHLWHBJ6SUL255PK30LEGY5IWG"}
{"meta_move": "drag_end", "rt": "9095.0", "trial_number": "1", "pre_actions": "1", "move": "5@3", "instance": "prb29600", "distance_to_goal": "NA", "progress": "NA", "move_number": "0", "optimal_length": "14", "subject": "A21S7MA9DCW95E:3X87C8JFV7JQ2BSCY8KSFD9F2ILSQK"}
{"meta_move": "drag_end", "rt": "6970.0", "trial_number": "1", "pre_actions": "1", "move": "r@13", "instance": "prb29600", "distance_to_goal": "NA", "progress": "NA", "move_number": "0", "optimal_length": "14", "subject": "A21S7MA9DCW95E:3X87C8JFV7JQ2BSCY8KSFD9F2ILSQK"}
{"meta_move": "drag_end", "rt": "2353.0", "trial_number": "1", "pre_actions": "1", "move": "2@22", "instance": "prb29600", "distance_to_goal": "NA", "progress": "NA", "move_number": "1", "optimal_length": "14", "subject": "A21S7MA9DCW95E:3X87C8JFV7JQ2BSCY8KSFD9F2ILSQK"}
{"meta_move": "drag_end", "rt": "2517.0", "trial_number": "1", "pre_actions": "1", "move": "1@23", "instance": "prb29600", "distance_to_goal": "NA", "progress": "NA", "move_number": "2", "optimal_length": "14", "subject": "A21S7MA9DCW95E:3X87C8JFV7JQ2BSCY8KSFD9F2ILSQK"}
{"meta_move": "drag_end", "rt": "2895.0", "trial_number": "1", "pre_actions": "1", "move": "3@11", "instance": "prb29600", "distance_to_goal": "NA", "progress": "NA", "move_number": "3", "optimal_length": "14", "subject": "A21S7MA9DCW95E:3X87C8JFV7JQ2BSCY8KSFD9F2ILSQK"}
{"meta_move": "drag_end", "rt": "2821.0", "trial_number": "1", "pre_actions": "1", "move": "5@4", "instance": "prb29600", "distance_to_goal": "NA", "progress": "NA", "move_number": "4", "optimal_length": "14", "subject": "A21S7MA9DCW95E:3X87C8JFV7JQ2BSCY8KSFD9F2ILSQK"}
{"meta_move": "drag_end", "rt": "2562.0", "trial_number": "1", "pre_actions": "1", "move": "6@3", "instance": "prb29600", "distance_to_goal": "NA", "progress": "NA", "move_number": "5", "optimal_length": "14", "subject": "A21S7MA9DCW95E:3X87C8JFV7JQ2BSCY8KSFD9F2ILSQK"}
{"meta_move": "drag_end", "rt": "4262.0", "trial_number": "1", "pre_actions": "1", "move": "r@15", "instance": "prb29600", "distance_to_goal": "NA", "progress": "NA", "move_number": "6", "optimal_length": "14", "subject": "A21S7MA9DCW95E:3X87C8JFV7JQ2BSCY8KSFD9F2ILSQK"}
{"meta_move": "drag_end", "rt": "6704.0", "trial_number": "1", "pre_actions": "1", "move": "7@19", "instance": "prb29600", "distance_to_goal": "NA", "progress": "NA", "move_number": "7", "optimal_length": "14", "subject": "A21S7MA9DCW95E:3X87C8JFV7JQ2BSCY8KSFD9F2ILSQK"}
{"meta_move": "drag_end", "rt": "3643.0", "trial_number": "1", "pre_actions": "1", "move": "r@13", "instance": "prb29600", "distance_to_goal": "NA", "progress": "NA", "move_number": "8", "optimal_length": "14", "subject": "A21S7MA9DCW95E:3X87C8JFV7JQ2BSCY8KSFD9F2ILSQK"}
{"meta_move": "drag_end", "rt": "2468.0", "trial_number": "1", "pre_actions": "1", "move": "6@9", "instance": "prb29600", "distance_to_goal": "NA", "progress": "NA", "move_number": "9", "optimal_length": "14", "subject": "A21S7MA9DCW95E:3X87C8JFV7JQ2BSCY8KSFD9F2ILSQK"}
{"meta_move": "drag_end", "rt": "52.0", "trial_number": "1", "pre_actions": "1", "move": "6@9", "instance": "prb29600", "distance_to_goal": "NA", "progress": "NA", "move_number": "10", "optimal_length": "14", "subject": "A21S7MA9DCW95E:3X87C8JFV7JQ2BSCY8KSFD9F2ILSQK"}
{"meta_move": "drag_end", "rt": "157.0", "trial_number": "1", "pre_actions": "1", "move": "6@9", "instance": "prb29600", "distance_to_goal": "NA", "progress": "NA", "move_number": "10", "optimal_length": "14", "subject": "A21S7MA9DCW95E:3X87C8JFV7JQ2BSCY8KSFD9F2ILSQK"}
{"meta_move": "drag_end", "rt": "2780.0", "trial_number": "1", "pre_actions": "1", "move": "5@0", "instance": "prb29600", "distance_to_goal": "NA", "progress": "NA", "move_number": "10", "optimal_length": "14", "subject": "A21S7MA9DCW95E:3X87C8JFV7JQ2BSCY8KSFD9F2ILSQK"}
{"meta_move": "drag_end", "rt": "2869.0", "trial_number": "1", "pre_actions": "1", "move": "6@3", "instance": "prb29600", "distance_to_goal": "NA", "progress": "NA", "move_number": "11", "optimal_length": "14", "subject": "A21S7MA9DCW95E:3X87C8JFV7JQ2BSCY8KSFD9F2ILSQK"}
{"meta_move": "drag_end", "rt": "979.0", "trial_number": "1", "pre_actions": "1", "move": "3@5", "instance": "prb29600", "distance_to_goal": "NA", "progress": "NA", "move_number": "12", "optimal_length": "14", "subject": "A21S7MA9DCW95E:3X87C8JFV7JQ2BSCY8KSFD9F2ILSQK"}
{"meta_move": "win", "rt": "1054.0", "trial_number": "1", "pre_actions": "1", "move": "r@13", "instance": "prb29600", "distance_to_goal": "1", "progress": "NA", "move_number": "13", "optimal_length": "14", "subject": "A21S7MA9DCW95E:3X87C8JFV7JQ2BSCY8KSFD9F2ILSQK"}
{"meta_move": "drag_end", "rt": "311.0", "trial_number": "0", "pre_actions": "0", "move": "r@16", "instance": "prb29600", "distance_to_goal": "NA", "progress": "NA", "move_number": "13", "optimal_length": "14", "subject": "A21S7MA9DCW95E:3X87C8JFV7JQ2BSCY8KSFD9F2ILSQK"}
{"meta_move": "drag_end", "rt": "9357.0", "trial_number": "2", "pre_actions": "1", "move": "5@2", "instance": "prb29600", "distance_to_goal": "NA", "progress": "NA", "move_number": "0", "optimal_length": "14", "subject": "A23437BMZ5T1FH:3IHR8NYAM89M0EPM8U9LH53ZJDTP4U"}
{"meta_move": "drag_end", "rt": "849.0", "trial_number": "2", "pre_actions": "1", "move": "2@4", "instance": "prb29600", "distance_to_goal": "NA", "progress": "NA", "move_number": "1", "optimal_length": "14", "subject": "A23437BMZ5T1FH:3IHR8NYAM89M0EPM8U9LH53ZJDTP4U"}
{"meta_move": "drag_end", "rt": "6343.0", "trial_number": "2", "pre_actions": "1", "move": "2@22", "instance": "prb29600", "distance_to_goal": "NA", "progress": "NA", "move_number": "2", "optimal_length": "14", "subject": "A23437BMZ5T1FH:3IHR8NYAM89M0EPM8U9LH53ZJDTP4U"}
{"meta_move": "drag_end", "rt": "792.0", "trial_number": "2", "pre_actions": "1", "move": "5@3", "instance": "prb29600", "distance_to_goal": "NA", "progress": "NA", "move_number": "3", "optimal_length": "14", "subject": "A23437BMZ5T1FH:3IHR8NYAM89M0EPM8U9LH53ZJDTP4U"}
{"meta_move": "drag_end", "rt": "2561.0", "trial_number": "2", "pre_actions": "1", "move": "4@31", "instance": "prb29600", "distance_to_goal": "NA", "progress": "NA", "move_number": "4", "optimal_length": "14", "subject": "A23437BMZ5T1FH:3IHR8NYAM89M0EPM8U9LH53ZJDTP4U"}
{"meta_move": "drag_end", "rt": "2360.0", "trial_number": "2", "pre_actions": "1", "move": "4@30", "instance": "prb29600", "distance_to_goal": "NA", "progress": "NA", "move_number": "5", "optimal_length": "14", "subject": "A23437BMZ5T1FH:3IHR8NYAM89M0EPM8U9LH53ZJDTP4U"}
{"meta_move": "drag_end", "rt": "1073.0", "trial_number": "2", "pre_actions": "1", "move": "1@23", "instance": "prb29600", "distance_to_goal": "NA", "progress": "NA", "move_number": "6", "optimal_length": "14", "subject": "A23437BMZ5T1FH:3IHR8NYAM89M0EPM8U9LH53ZJDTP4U"}
{"meta_move": "drag_end", "rt": "2054.0", "trial_number": "2", "pre_actions": "1", "move": "5@2", "instance": "prb29600", "distance_to_goal": "NA", "progress": "NA", "move_number": "7", "optimal_length": "14", "subject": "A23437BMZ5T1FH:3IHR8NYAM89M0EPM8U9LH53ZJDTP4U"}
{"meta_move": "drag_end", "rt": "1449.0", "trial_number": "2", "pre_actions": "1", "move": "r@13", "instance": "prb29600", "distance_to_goal": "NA", "progress": "NA", "move_number": "8", "optimal_length": "14", "subject": "A23437BMZ5T1FH:3IHR8NYAM89M0EPM8U9LH53ZJDTP4U"}
{"meta_move": "drag_end", "rt": "1247.0", "trial_number": "2", "pre_actions": "1", "move": "5@3", "instance": "prb29600", "distance_to_goal": "NA", "progress": "NA", "move_number": "9", "optimal_length": "14", "subject": "A23437BMZ5T1FH:3IHR8NYAM89M0EPM8U9LH53ZJDTP4U"}
{"meta_move": "drag_end", "rt": "1729.0", "trial_number": "2", "pre_actions": "1", "move": "5@2", "instance": "prb29600", "distance_to_goal": "NA", "progress": "NA", "move_number": "10", "optimal_length": "14", "subject": "A23437BMZ5T1FH:3IHR8NYAM89M0EPM8U9LH53ZJDTP4U"}
{"meta_move": "drag_end", "rt": "1583.0", "trial_number": "2", "pre_actions": "1", "move": "2@4", "instance": "prb29600", "distance_to_goal": "NA", "progress": "NA", "move_number": "11", "optimal_length": "14", "subject": "A23437BMZ5T1FH:3IHR8NYAM89M0EPM8U9LH53ZJDTP4U"}
{"meta_move": "drag_end", "rt": "2656.0", "trial_number": "2", "pre_actions": "1", "move": "r@12", "instance": "prb29600", "distance_to_goal": "NA", "progress": "NA", "move_number": "12", "optimal_length": "14", "subject": "A23437BMZ5T1FH:3IHR8NYAM89M0EPM8U9LH53ZJDTP4U"}
{"meta_move": "drag_end", "rt": "2208.0", "trial_number": "2", "pre_actions": "1", "move": "0@21", "instance": "prb29600", "distance_to_goal": "NA", "progress": "NA", "move_number": "13", "optimal_length": "14", "subject": "A23437BMZ5T1FH:3IHR8NYAM89M0EPM8U9LH53ZJDTP4U"}
{"meta_move": "drag_end", "rt": "443.0", "trial_number": "2", "pre_actions": "1", "move": "0@21", "instance": "prb29600", "distance_to_goal": "NA", "progress": "NA", "move_number": "13", "optimal_length": "14", "subject": "A23437BMZ5T1FH:3IHR8NYAM89M0EPM8U9LH53ZJDTP4U"}
{"meta_move": "drag_end", "rt": "1149.0", "trial_number": "2", "pre_actions": "1", "move": "7@1", "instance": "prb29600", "distance_to_goal": "NA", "progress": "NA", "move_number": "13", "optimal_length": "14", "subject": "A23437BMZ5T1FH:3IHR8NYAM89M0EPM8U9LH53ZJDTP4U"}
{"meta_move": "drag_end", "rt": "2640.0", "trial_number": "2", "pre_actions": "1", "move": "2@22", "instance": "prb29600", "distance_to_goal": "NA", "progress": "NA", "move_number": "13", "optimal_length": "14", "subject": "A23437BMZ5T1FH:3IHR8NYAM89M0EPM8U9LH53ZJDTP4U"}
{"meta_move": "drag_end", "rt": "664.0", "trial_number": "2", "pre_actions": "1", "move": "5@3", "instance": "prb29600", "distance_to_goal": "NA", "progress": "NA", "move_number": "14", "optimal_length": "14", "subject": "A23437BMZ5T1FH:3IHR8NYAM89M0EPM8U9LH53ZJDTP4U"}
{"meta_move": "drag_end", "rt": "4994.0", "trial_number": "2", "pre_actions": "1", "move": "r@13", "instance": "prb29600", "distance_to_goal": "NA", "progress": "NA", "move_number": "15", "optimal_length": "14", "subject": "A23437BMZ5T1FH:3IHR8NYAM89M0EPM8U9LH53ZJDTP4U"}
{"meta_move": "drag_end", "rt": "3695.0", "trial_number": "2", "pre_actions": "1", "move": "3@11", "instance": "prb29600", "distance_to_goal": "NA", "progress": "NA", "move_number": "16", "optimal_length": "14", "subject": "A23437BMZ5T1FH:3IHR8NYAM89M0EPM8U9LH53ZJDTP4U"}
{"meta_move": "drag_end", "rt": "479.0", "trial_number": "2", "pre_actions": "1", "move": "5@4", "instance": "prb29600", "distance_to_goal": "NA", "progress": "NA", "move_number": "17", "optimal_length": "14", "subject": "A23437BMZ5T1FH:3IHR8NYAM89M0EPM8U9LH53ZJDTP4U"}
{"meta_move": "drag_end", "rt": "561.0", "trial_number": "2", "pre_actions": "1", "move": "6@3", "instance": "prb29600", "distance_to_goal": "NA", "progress": "NA", "move_number": "18", "optimal_length": "14", "subject": "A23437BMZ5T1FH:3IHR8NYAM89M0EPM8U9LH53ZJDTP4U"}
{"meta_move": "drag_end", "rt": "599.0", "trial_number": "2", "pre_actions": "1", "move": "r@15", "instance": "prb29600", "distance_to_goal": "NA", "progress": "NA", "move_number": "19", "optimal_length": "14", "subject": "A23437BMZ5T1FH:3IHR8NYAM89M0EPM8U9LH53ZJDTP4U"}
{"meta_move": "drag_end", "rt": "736.0", "trial_number": "2", "pre_actions": "1", "move": "7@19", "instance": "prb29600", "distance_to_goal": "NA", "progress": "NA", "move_number": "20", "optimal_length": "14", "subject": "A23437BMZ5T1FH:3IHR8NYAM89M0EPM8U9LH53ZJDTP4U"}
{"meta_move": "drag_end", "rt": "6891.0", "trial_number": "2", "pre_actions": "1", "move": "r@12", "instance": "prb29600", "distance_to_goal": "NA", "progress": "NA", "move_number": "21", "optimal_length": "14", "subject": "A23437BMZ5T1FH:3IHR8NYAM89M0EPM8U9LH53ZJDTP4U"}
{"meta_move": "drag_end", "rt": "848.0", "trial_number": "2", "pre_actions": "1", "move": "6@9", "instance": "prb29600", "distance_to_goal": "NA", "progress": "NA", "move_number": "22", "optimal_length": "14", "subject": "A23437BMZ5T1FH:3IHR8NYAM89M0EPM8U9LH53ZJDTP4U"}
{"meta_move": "drag_end", "rt": "674.0", "trial_number": "2", "pre_actions": "1", "move": "5@0", "instance": "prb29600", "distance_to_goal": "NA", "progress": "NA", "move_number": "23", "optimal_length": "14", "subject": "A23437BMZ5T1FH:3IHR8NYAM89M0EPM8U9LH53ZJDTP4U"}
{"meta_move": "drag_end", "rt": "845.0", "trial_number": "2", "pre_actions": "1", "move": "6@3", "instance": "prb29600", "distance_to_goal": "NA", "progress": "NA", "move_number": "24", "optimal_length": "14", "subject": "A23437BMZ5T1FH:3IHR8NYAM89M0EPM8U9LH53ZJDTP4U"}
{"meta_move": "drag_end", "rt": "591.0", "trial_number": "2", "pre_actions": "1", "move": "3@5", "instance": "prb29600", "distance_to_goal": "NA", "progress": "NA", "move_number": "25", "optimal_length": "14", "subject": "A23437BMZ5T1FH:3IHR8NYAM89M0EPM8U9LH53ZJDTP4U"}
{"meta_move": "win", "rt": "607.0", "trial_number": "2", "pre_actions": "1", "move": "r@12", "instance": "prb29600", "distance_to_goal": "1", "progress": "NA", "move_number": "26", "optimal_length": "14", "subject": "A23437BMZ5T1FH:3IHR8NYAM89M0EPM8U9LH53ZJDTP4U"}
{"meta_move": "drag_end", "rt": "57.0", "trial_number": "0", "pre_actions": "0", "move": "r@16", "instance": "prb29600", "distance_to_goal": "NA", "progress": "NA", "move_number": "26", "optimal_length": "14", "subject": "A23437BMZ5T1FH:3IHR8NYAM89M0EPM8U9LH53ZJDTP4U"}
{"meta_move": "drag_end", "rt": "8965.0", "trial_number": "1", "pre_actions": "1", "move": "r@12", "instance": "prb29600", "distance_to_goal": "NA", "progress": "NA", "move_number": "0", "optimal_length": "14", "subject": "A289D98Z4GAZ28:3ZV9H2YQQEFR2R3JK2IXZUJPXAF3WW"}
{"meta_move": "drag_end", "rt": "2431.0", "trial_number": "1", "pre_actions": "1", "move": "5@3", "instance": "prb29600", "distance_to_goal": "NA", "progress": "NA", "move_number": "0", "optimal_length": "14", "subject": "A289D98Z4GAZ28:3ZV9H2YQQEFR2R3JK2IXZUJPXAF3WW"}
{"meta_move": "drag_end", "rt": "555.0", "trial_number": "1", "pre_actions": "1", "move": "3@5", "instance": "prb29600", "distance_to_goal": "NA", "progress": "NA", "move_number": "0", "optimal_length": "14", "subject": "A289D98Z4GAZ28:3ZV9H2YQQEFR2R3JK2IXZUJPXAF3WW"}
{"meta_move": "drag_end", "rt": "728.0", "trial_number": "1", "pre_actions": "1", "move": "1@23", "instance": "prb29600", "distance_to_goal": "NA", "progress": "NA", "move_number": "0", "optimal_length": "14", "subject": "A289D98Z4GAZ28:3ZV9H2YQQEFR2R3JK2IXZUJPXAF3WW"}
{"meta_move": "drag_end", "rt": "811.0", "trial_number": "1", "pre_actions": "1", "move": "2@22", "instance": "prb29600", "distance_to_goal": "NA", "progress": "NA", "move_number": "1", "optimal_length": "14", "subject": "A289D98Z4GAZ28:3ZV9H2YQQEFR2R3JK2IXZUJPXAF3WW"}
{"meta_move": "drag_end", "rt": "6611.0", "trial_number": "1", "pre_actions": "1", "move": "5@3", "instance": "prb29600", "distance_to_goal": "NA", "progress": "NA", "move_number": "2", "optimal_length": "14", "subject": "A289D98Z4GAZ28:3ZV9H2YQQEFR2R3JK2IXZUJPXAF3WW"}
{"meta_move": "drag_end", "rt": "645.0", "trial_number": "1", "pre_actions": "1", "move": "3@11", "instance": "prb29600", "distance_to_goal": "NA", "progress": "NA", "move_number": "2", "optimal_length": "14", "subject": "A289D98Z4GAZ28:3ZV9H2YQQEFR2R3JK2IXZUJPXAF3WW"}
{"meta_move": "drag_end", "rt": "722.0", "trial_number": "1", "pre_actions": "1", "move": "5@4", "instance": "prb29600", "distance_to_goal": "NA", "progress": "NA", "move_number": "3", "optimal_length": "14", "subject": "A289D98Z4GAZ28:3ZV9H2YQQEFR2R3JK2IXZUJPXAF3WW"}
{"meta_move": "drag_end", "rt": "777.0", "trial_number": "1", "pre_actions": "1", "move": "6@3", "instance": "prb29600", "distance_to_goal": "NA", "progress": "NA", "move_number": "4", "optimal_length": "14", "subject": "A289D98Z4GAZ28:3ZV9H2YQQEFR2R3JK2IXZUJPXAF3WW"}
{"meta_move": "drag_end", "rt": "1063.0", "trial_number": "1", "pre_actions": "1", "move": "r@15", "instance": "prb29600", "distance_to_goal": "NA", "progress": "NA", "move_number": "5", "optimal_length": "14", "subject": "A289D98Z4GAZ28:3ZV9H2YQQEFR2R3JK2IXZUJPXAF3WW"}
{"meta_move": "drag_end", "rt": "2815.0", "trial_number": "1", "pre_actions": "1", "move": "7@19", "instance": "prb29600", "distance_to_goal": "NA", "progress": "NA", "move_number": "6", "optimal_length": "14", "subject": "A289D98Z4GAZ28:3ZV9H2YQQEFR2R3JK2IXZUJPXAF3WW"}
{"meta_move": "drag_end", "rt": "2503.0", "trial_number": "1", "pre_actions": "1", "move": "r@13", "instance": "prb29600", "distance_to_goal": "NA", "progress": "NA", "move_number": "7", "optimal_length": "14", "subject": "A289D98Z4GAZ28:3ZV9H2YQQEFR2R3JK2IXZUJPXAF3WW"}
{"meta_move": "drag_end", "rt": "683.0", "trial_number": "1", "pre_actions": "1", "move": "6@9", "instance": "prb29600", "distance_to_goal": "NA", "progress": "NA", "move_number": "8", "optimal_length": "14", "subject": "A289D98Z4GAZ28:3ZV9H2YQQEFR2R3JK2IXZUJPXAF3WW"}
{"meta_move": "drag_end", "rt": "962.0", "trial_number": "1", "pre_actions": "1", "move": "5@0", "instance": "prb29600", "distance_to_goal": "NA", "progress": "NA", "move_number": "9", "optimal_length": "14", "subject": "A289D98Z4GAZ28:3ZV9H2YQQEFR2R3JK2IXZUJPXAF3WW"}
{"meta_move": "drag_end", "rt": "1026.0", "trial_number": "1", "pre_actions": "1", "move": "6@3", "instance": "prb29600", "distance_to_goal": "NA", "progress": "NA", "move_number": "10", "optimal_length": "14", "subject": "A289D98Z4GAZ28:3ZV9H2YQQEFR2R3JK2IXZUJPXAF3WW"}
{"meta_move": "drag_end", "rt": "718.0", "trial_number": "1", "pre_actions": "1", "move": "3@5", "instance": "prb29600", "distance_to_goal": "NA", "progress": "NA", "move_number": "11", "optimal_length": "14", "subject": "A289D98Z4GAZ28:3ZV9H2YQQEFR2R3JK2IXZUJPXAF3WW"}
{"meta_move": "win", "rt": "721.0", "trial_number": "1", "pre_actions": "1", "move": "r@13", "instance": "prb29600", "distance_to_goal": "1", "progress": "NA", "move_number": "12", "optimal_length": "14", "subject": "A289D98Z4GAZ28:3ZV9H2YQQEFR2R3JK2IXZUJPXAF3WW"}
{"meta_move": "drag_end", "rt": "300.0", "trial_number": "0", "pre_actions": "0", "move": "r@16", "instance": "prb29600", "distance_to_goal": "NA", "progress": "NA", "move_number": "12", "optimal_length": "14", "subject": "A289D98Z4GAZ28:3ZV9H2YQQEFR2R3JK2IXZUJPXAF3WW"}
{"meta_move": "drag_end", "rt": "1544.0", "trial_number": "1", "pre_actions": "1", "move": "1@23", "instance": "prb29600", "distance_to_goal": "NA", "progress": "NA", "move_number": "0", "optimal_length": "14", "subject": "A2IBQA01NR5N76:3X4MXAO0BHWJLTOLVSJTHSM54OHWRG"}
{"meta_move": "drag_end", "rt": "476.0", "trial_number": "1", "pre_actions": "1", "move": "2@22", "instance": "prb29600", "distance_to_goal": "NA", "progress": "NA", "move_number": "1", "optimal_length": "14", "subject": "A2IBQA01NR5N76:3X4MXAO0BHWJLTOLVSJTHSM54OHWRG"}
{"meta_move": "drag_end", "rt": "4202.0", "trial_number": "1", "pre_actions": "1", "move": "5@3", "instance": "prb29600", "distance_to_goal": "NA", "progress": "NA", "move_number": "2", "optimal_length": "14", "subject": "A2IBQA01NR5N76:3X4MXAO0BHWJLTOLVSJTHSM54OHWRG"}
{"meta_move": "drag_end", "rt": "797.0", "trial_number": "1", "pre_actions": "1", "move": "3@11", "instance": "prb29600", "distance_to_goal": "NA", "progress": "NA", "move_number": "2", "optimal_length": "14", "subject": "A2IBQA01NR5N76:3X4MXAO0BHWJLTOLVSJTHSM54OHWRG"}
{"meta_move": "drag_end", "rt": "475.0", "trial_number": "1", "pre_actions": "1", "move": "5@4", "instance": "prb29600", "distance_to_goal": "NA", "progress": "NA", "move_number": "3", "optimal_length": "14", "subject": "A2IBQA01NR5N76:3X4MXAO0BHWJLTOLVSJTHSM54OHWRG"}
{"meta_move": "drag_end", "rt": "609.0", "trial_number": "1", "pre_actions": "1", "move": "6@3", "instance": "prb29600", "distance_to_goal": "NA", "progress": "NA", "move_number": "4", "optimal_length": "14", "subject": "A2IBQA01NR5N76:3X4MXAO0BHWJLTOLVSJTHSM54OHWRG"}
{"meta_move": "drag_end", "rt": "2788.0", "trial_number": "1", "pre_actions": "1", "move": "r@15", "instance": "prb29600", "distance_to_goal": "NA", "progress": "NA", "move_number": "5", "optimal_length": "14", "subject": "A2IBQA01NR5N76:3X4MXAO0BHWJLTOLVSJTHSM54OHWRG"}
{"meta_move": "drag_end", "rt": "973.0", "trial_number": "1", "pre_actions": "1", "move": "4@30", "instance": "prb29600", "distance_to_goal": "NA", "progress": "NA", "move_number": "6", "optimal_length": "14", "subject": "A2IBQA01NR5N76:3X4MXAO0BHWJLTOLVSJTHSM54OHWRG"}
{"meta_move": "drag_end", "rt": "1397.0", "trial_number": "1", "pre_actions": "1", "move": "7@19", "instance": "prb29600", "distance_to_goal": "NA", "progress": "NA", "move_number": "6", "optimal_length": "14", "subject": "A2IBQA01NR5N76:3X4MXAO0BHWJLTOLVSJTHSM54OHWRG"}
{"meta_move": "drag_end", "rt": "2093.0", "trial_number": "1", "pre_actions": "1", "move": "r@15", "instance": "prb29600", "distance_to_goal": "NA", "progress": "NA", "move_number": "7", "optimal_length": "14", "subject": "A2IBQA01NR5N76:3X4MXAO0BHWJLTOLVSJTHSM54OHWRG"}
{"meta_move": "drag_end", "rt": "801.0", "trial_number": "1", "pre_actions": "1", "move": "6@3", "instance": "prb29600", "distance_to_goal": "NA", "progress": "NA", "move_number": "7", "optimal_length": "14", "subject": "A2IBQA01NR5N76:3X4MXAO0BHWJLTOLVSJTHSM54OHWRG"}
{"meta_move": "drag_end", "rt": "742.0", "trial_number": "1", "pre_actions": "1", "move": "r@12", "instance": "prb29600", "distance_to_goal": "NA", "progress": "NA", "move_number": "7", "optimal_length": "14", "subject": "A2IBQA01NR5N76:3X4MXAO0BHWJLTOLVSJTHSM54OHWRG"}
{"meta_move": "drag_end", "rt": "3301.0", "trial_number": "1", "pre_actions": "1", "move": "6@9", "instance": "prb29600", "distance_to_goal": "NA", "progress": "NA", "move_number": "8", "optimal_length": "14", "subject": "A2IBQA01NR5N76:3X4MXAO0BHWJLTOLVSJTHSM54OHWRG"}
{"meta_move": "drag_end", "rt": "761.0", "trial_number": "1", "pre_actions": "1", "move": "5@0", "instance": "prb29600", "distance_to_goal": "NA", "progress": "NA", "move_number": "9", "optimal_length": "14", "subject": "A2IBQA01NR5N76:3X4MXAO0BHWJLTOLVSJTHSM54OHWRG"}
{"meta_move": "drag_end", "rt": "535.0", "trial_number": "1", "pre_actions": "1", "move": "6@3", "instance": "prb29600", "distance_to_goal": "NA", "progress": "NA", "move_number": "10", "optimal_length": "14", "subject": "A2IBQA01NR5N76:3X4MXAO0BHWJLTOLVSJTHSM54OHWRG"}
{"meta_move": "drag_end", "rt": "1191.0", "trial_number": "1", "pre_actions": "1", "move": "3@5", "instance": "prb29600", "distance_to_goal": "NA", "progress": "NA", "move_number": "11", "optimal_length": "14", "subject": "A2IBQA01NR5N76:3X4MXAO0BHWJLTOLVSJTHSM54OHWRG"}
{"meta_move": "win", "rt": "704.0", "trial_number": "1", "pre_actions": "1", "move": "r@12", "instance": "prb29600", "distance_to_goal": "1", "progress": "NA", "move_number": "12", "optimal_length": "14", "subject": "A2IBQA01NR5N76:3X4MXAO0BHWJLTOLVSJTHSM54OHWRG"}
{"meta_move": "drag_end", "rt": "652.0", "trial_number": "0", "pre_actions": "0", "move": "r@16", "instance": "prb29600", "distance_to_goal": "NA", "progress": "NA", "move_number": "12", "optimal_length": "14", "subject": "A2IBQA01NR5N76:3X4MXAO0BHWJLTOLVSJTHSM54OHWRG"}
{"meta_move": "drag_end", "rt": "3583.0", "trial_number": "1", "pre_actions": "1", "move": "2@22", "instance": "prb29600", "distance_to_goal": "NA", "progress": "NA", "move_number": "0", "optimal_length": "14", "subject": "A2MYB6MLQW0IGN:3TYCR1GOTDRCCQYD1V64UK7OE48LZS"}
{"meta_move": "drag_end", "rt": "1540.0", "trial_number": "1", "pre_actions": "1", "move": "1@23", "instance": "prb29600", "distance_to_goal": "NA", "progress": "NA", "move_number": "1", "optimal_length": "14", "subject": "A2MYB6MLQW0IGN:3TYCR1GOTDRCCQYD1V64UK7OE48LZS"}
{"meta_move": "drag_end", "rt": "4834.0", "trial_number": "1", "pre_actions": "1", "move": "5@2", "instance": "prb29600", "distance_to_goal": "NA", "progress": "NA", "move_number": "2", "optimal_length": "14", "subject": "A2MYB6MLQW0IGN:3TYCR1GOTDRCCQYD1V64UK7OE48LZS"}
{"meta_move": "drag_end", "rt": "4672.0", "trial_number": "1", "pre_actions": "1", "move": "5@3", "instance": "prb29600", "distance_to_goal": "NA", "progress": "NA", "move_number": "3", "optimal_length": "14", "subject": "A2MYB6MLQW0IGN:3TYCR1GOTDRCCQYD1V64UK7OE48LZS"}
{"meta_move": "drag_end", "rt": "913.0", "trial_number": "1", "pre_actions": "1", "move": "5@2", "instance": "prb29600", "distance_to_goal": "NA", "progress": "NA", "move_number": "4", "optimal_length": "14", "subject": "A2MYB6MLQW0IGN:3TYCR1GOTDRCCQYD1V64UK7OE48LZS"}
{"meta_move": "drag_end", "rt": "1084.0", "trial_number": "1", "pre_actions": "1", "move": "3@11", "instance": "prb29600", "distance_to_goal": "NA", "progress": "NA", "move_number": "5", "optimal_length": "14", "subject": "A2MYB6MLQW0IGN:3TYCR1GOTDRCCQYD1V64UK7OE48LZS"}
{"meta_move": "drag_end", "rt": "796.0", "trial_number": "1", "pre_actions": "1", "move": "2@4", "instance": "prb29600", "distance_to_goal": "NA", "progress": "NA", "move_number": "6", "optimal_length": "14", "subject": "A2MYB6MLQW0IGN:3TYCR1GOTDRCCQYD1V64UK7OE48LZS"}
{"meta_move": "drag_end", "rt": "6902.0", "trial_number": "1", "pre_actions": "1", "move": "2@22", "instance": "prb29600", "distance_to_goal": "NA", "progress": "NA", "move_number": "7", "optimal_length": "14", "subject": "A2MYB6MLQW0IGN:3TYCR1GOTDRCCQYD1V64UK7OE48LZS"}
{"meta_move": "drag_end", "rt": "1599.0", "trial_number": "1", "pre_actions": "1", "move": "5@4", "instance": "prb29600", "distance_to_goal": "NA", "progress": "NA", "move_number": "8", "optimal_length": "14", "subject": "A2MYB6MLQW0IGN:3TYCR1GOTDRCCQYD1V64UK7OE48LZS"}
{"meta_move": "drag_end", "rt": "692.0", "trial_number": "1", "pre_actions": "1", "move": "6@3", "instance": "prb29600", "distance_to_goal": "NA", "progress": "NA", "move_number": "9", "optimal_length": "14", "subject": "A2MYB6MLQW0IGN:3TYCR1GOTDRCCQYD1V64UK7OE48LZS"}
{"meta_move": "drag_end", "rt": "1942.0", "trial_number": "1", "pre_actions": "1", "move": "2@10", "instance": "prb29600", "distance_to_goal": "NA", "progress": "NA", "move_number": "10", "optimal_length": "14", "subject": "A2MYB6MLQW0IGN:3TYCR1GOTDRCCQYD1V64UK7OE48LZS"}
{"meta_move": "drag_end", "rt": "109.0", "trial_number": "1", "pre_actions": "1", "move": "5@4", "instance": "prb29600", "distance_to_goal": "NA", "progress": "NA", "move_number": "11", "optimal_length": "14", "subject": "A2MYB6MLQW0IGN:3TYCR1GOTDRCCQYD1V64UK7OE48LZS"}
{"meta_move": "drag_end", "rt": "2983.0", "trial_number": "1", "pre_actions": "1", "move": "r@14", "instance": "prb29600", "distance_to_goal": "NA", "progress": "NA", "move_number": "11", "optimal_length": "14", "subject": "A2MYB6MLQW0IGN:3TYCR1GOTDRCCQYD1V64UK7OE48LZS"}
{"meta_move": "drag_end", "rt": "865.0", "trial_number": "1", "pre_actions": "1", "move": "7@19", "instance": "prb29600", "distance_to_goal": "NA", "progress": "NA", "move_number": "12", "optimal_length": "14", "subject": "A2MYB6MLQW0IGN:3TYCR1GOTDRCCQYD1V64UK7OE48LZS"}
{"meta_move": "drag_end", "rt": "1197.0", "trial_number": "1", "pre_actions": "1", "move": "r@12", "instance": "prb29600", "distance_to_goal": "NA", "progress": "NA", "move_number": "13", "optimal_length": "14", "subject": "A2MYB6MLQW0IGN:3TYCR1GOTDRCCQYD1V64UK7OE48LZS"}
{"meta_move": "drag_end", "rt": "2682.0", "trial_number": "1", "pre_actions": "1", "move": "6@9", "instance": "prb29600", "distance_to_goal": "NA", "progress": "NA", "move_number": "14", "optimal_length": "14", "subject": "A2MYB6MLQW0IGN:3TYCR1GOTDRCCQYD1V64UK7OE48LZS"}
{"meta_move": "drag_end", "rt": "896.0", "trial_number": "1", "pre_actions": "1", "move": "5@0", "instance": "prb29600", "distance_to_goal": "NA", "progress": "NA", "move_number": "15", "optimal_length": "14", "subject": "A2MYB6MLQW0IGN:3TYCR1GOTDRCCQYD1V64UK7OE48LZS"}
{"meta_move": "drag_end", "rt": "934.0", "trial_number": "1", "pre_actions": "1", "move": "6@3", "instance": "prb29600", "distance_to_goal": "NA", "progress": "NA", "move_number": "16", "optimal_length": "14", "subject": "A2MYB6MLQW0IGN:3TYCR1GOTDRCCQYD1V64UK7OE48LZS"}
{"meta_move": "drag_end", "rt": "1338.0", "trial_number": "1", "pre_actions": "1", "move": "2@16", "instance": "prb29600", "distance_to_goal": "NA", "progress": "NA", "move_number": "17", "optimal_length": "14", "subject": "A2MYB6MLQW0IGN:3TYCR1GOTDRCCQYD1V64UK7OE48LZS"}
{"meta_move": "drag_end", "rt": "1584.0", "trial_number": "1", "pre_actions": "1", "move": "2@22", "instance": "prb29600", "distance_to_goal": "NA", "progress": "NA", "move_number": "18", "optimal_length": "14", "subject": "A2MYB6MLQW0IGN:3TYCR1GOTDRCCQYD1V64UK7OE48LZS"}
{"meta_move": "drag_end", "rt": "896.0", "trial_number": "1", "pre_actions": "1", "move": "3@5", "instance": "prb29600", "distance_to_goal": "NA", "progress": "NA", "move_number": "19", "optimal_length": "14", "subject": "A2MYB6MLQW0IGN:3TYCR1GOTDRCCQYD1V64UK7OE48LZS"}
{"meta_move": "drag_end", "rt": "1296.0", "trial_number": "1", "pre_actions": "1", "move": "r@12", "instance": "prb29600", "distance_to_goal": "NA", "progress": "NA", "move_number": "20", "optimal_length": "14", "subject": "A2MYB6MLQW0IGN:3TYCR1GOTDRCCQYD1V64UK7OE48LZS"}
{"meta_move": "win", "rt": "1902.0", "trial_number": "1", "pre_actions": "1", "move": "r@12", "instance": "prb29600", "distance_to_goal": "1", "progress": "NA", "move_number": "20", "optimal_length": "14", "subject": "A2MYB6MLQW0IGN:3TYCR1GOTDRCCQYD1V64UK7OE48LZS"}
{"meta_move": "drag_end", "rt": "178.0", "trial_number": "0", "pre_actions": "0", "move": "r@16", "instance": "prb29600", "distance_to_goal": "NA", "progress": "NA", "move_number": "20", "optimal_length": "14", "subject": "A2MYB6MLQW0IGN:3TYCR1GOTDRCCQYD1V64UK7OE48LZS"}
{"meta_move": "drag_end", "rt": "2250.0", "trial_number": "1", "pre_actions": "1", "move": "2@22", "instance": "prb29600", "distance_to_goal": "NA", "progress": "NA", "move_number": "0", "optimal_length": "14", "subject": "A2TQNX64349OZ9:3WSELTNVR4AZUVYAYCSWZIQW0J4ATB"}
{"meta_move": "drag_end", "rt": "548.0", "trial_number": "1", "pre_actions": "1", "move": "1@23", "instance": "prb29600", "distance_to_goal": "NA", "progress": "NA", "move_number": "1", "optimal_length": "14", "subject": "A2TQNX64349OZ9:3WSELTNVR4AZUVYAYCSWZIQW0J4ATB"}
{"meta_move": "drag_end", "rt": "1545.0", "trial_number": "1", "pre_actions": "1", "move": "7@1", "instance": "prb29600", "distance_to_goal": "NA", "progress": "NA", "move_number": "2", "optimal_length": "14", "subject": "A2TQNX64349OZ9:3WSELTNVR4AZUVYAYCSWZIQW0J4ATB"}
{"meta_move": "drag_end", "rt": "924.0", "trial_number": "1", "pre_actions": "1", "move": "5@2", "instance": "prb29600", "distance_to_goal": "NA", "progress": "NA", "move_number": "2", "optimal_length": "14", "subject": "A2TQNX64349OZ9:3WSELTNVR4AZUVYAYCSWZIQW0J4ATB"}
{"meta_move": "drag_end", "rt": "1548.0", "trial_number": "1", "pre_actions": "1", "move": "3@5", "instance": "prb29600", "distance_to_goal": "NA", "progress": "NA", "move_number": "3", "optimal_length": "14", "subject": "A2TQNX64349OZ9:3WSELTNVR4AZUVYAYCSWZIQW0J4ATB"}
{"meta_move": "drag_end", "rt": "4250.0", "trial_number": "2", "pre_actions": "1", "move": "4@31", "instance": "prb29600", "distance_to_goal": "NA", "progress": "NA", "move_number": "0", "optimal_length": "14", "subject": "A2TQNX64349OZ9:3WSELTNVR4AZUVYAYCSWZIQW0J4ATB"}
{"meta_move": "drag_end", "rt": "1363.0", "trial_number": "2", "pre_actions": "1", "move": "6@9", "instance": "prb29600", "distance_to_goal": "NA", "progress": "NA", "move_number": "1", "optimal_length": "14", "subject": "A2TQNX64349OZ9:3WSELTNVR4AZUVYAYCSWZIQW0J4ATB"}
{"meta_move": "drag_end", "rt": "604.0", "trial_number": "2", "pre_actions": "1", "move": "2@22", "instance": "prb29600", "distance_to_goal": "NA", "progress": "NA", "move_number": "1", "optimal_length": "14", "subject": "A2TQNX64349OZ9:3WSELTNVR4AZUVYAYCSWZIQW0J4ATB"}
{"meta_move": "drag_end", "rt": "1009.0", "trial_number": "2", "pre_actions": "1", "move": "6@9", "instance": "prb29600", "distance_to_goal": "NA", "progress": "NA", "move_number": "2", "optimal_length": "14", "subject": "A2TQNX64349OZ9:3WSELTNVR4AZUVYAYCSWZIQW0J4ATB"}
{"meta_move": "drag_end", "rt": "576.0", "trial_number": "2", "pre_actions": "1", "move": "1@23", "instance": "prb29600", "distance_to_goal": "NA", "progress": "NA", "move_number": "2", "optimal_length": "14", "subject": "A2TQNX64349OZ9:3WSELTNVR4AZUVYAYCSWZIQW0J4ATB"}
{"meta_move": "drag_end", "rt": "1019.0", "trial_number": "2", "pre_actions": "1", "move": "3@5", "instance": "prb29600", "distance_to_goal": "NA", "progress": "NA", "move_number": "3", "optimal_length": "14", "subject": "A2TQNX64349OZ9:3WSELTNVR4AZUVYAYCSWZIQW0J4ATB"}
{"meta_move": "drag_end", "rt": "652.0", "trial_number": "2", "pre_actions": "1", "move": "5@3", "instance": "prb29600", "distance_to_goal": "NA", "progress": "NA", "move_number": "3", "optimal_length": "14", "subject": "A2TQNX64349OZ9:3WSELTNVR4AZUVYAYCSWZIQW0J4ATB"}
{"meta_move": "drag_end", "rt": "1235.0", "trial_number": "2", "pre_actions": "1", "move": "5@2", "instance": "prb29600", "distance_to_goal": "NA", "progress": "NA", "move_number": "3", "optimal_length": "14", "subject": "A2TQNX64349OZ9:3WSELTNVR4AZUVYAYCSWZIQW0J4ATB"}
{"meta_move": "drag_end", "rt": "1318.0", "trial_number": "2", "pre_actions": "1", "move": "2@4", "instance": "prb29600", "distance_to_goal": "NA", "progress": "NA", "move_number": "4", "optimal_length": "14", "subject": "A2TQNX64349OZ9:3WSELTNVR4AZUVYAYCSWZIQW0J4ATB"}
{"meta_move": "drag_end", "rt": "905.0", "trial_number": "2", "pre_actions": "1", "move": "0@21", "instance": "prb29600", "distance_to_goal": "NA", "progress": "NA", "move_number": "5", "optimal_length": "14", "subject": "A2TQNX64349OZ9:3WSELTNVR4AZUVYAYCSWZIQW0J4ATB"}
{"meta_move": "drag_end", "rt": "1511.0", "trial_number": "2", "pre_actions": "1", "move": "7@1", "instance": "prb29600", "distance_to_goal": "NA", "progress": "NA", "move_number": "5", "optimal_length": "14", "subject": "A2TQNX64349OZ9:3WSELTNVR4AZUVYAYCSWZIQW0J4ATB"}
{"meta_move": "drag_end", "rt": "572.0", "trial_number": "2", "pre_actions": "1", "move": "r@12", "instance": "prb29600", "distance_to_goal": "NA", "progress": "NA", "move_number": "5", "optimal_length": "14", "subject": "A2TQNX64349OZ9:3WSELTNVR4AZUVYAYCSWZIQW0J4ATB"}
{"meta_move": "drag_end", "rt": "862.0", "trial_number": "2", "pre_actions": "1", "move": "r@13", "instance": "prb29600", "distance_to_goal": "NA", "progress": "NA", "move_number": "5", "optimal_length": "14", "subject": "A2TQNX64349OZ9:3WSELTNVR4AZUVYAYCSWZIQW0J4ATB"}
{"meta_move": "drag_end", "rt": "709.0", "trial_number": "2", "pre_actions": "1", "move": "7@1", "instance": "prb29600", "distance_to_goal": "NA", "progress": "NA", "move_number": "6", "optimal_length": "14", "subject": "A2TQNX64349OZ9:3WSELTNVR4AZUVYAYCSWZIQW0J4ATB"}
{"meta_move": "drag_end", "rt": "922.0", "trial_number": "2", "pre_actions": "1", "move": "4@30", "instance": "prb29600", "distance_to_goal": "NA", "progress": "NA", "move_number": "6", "optimal_length": "14", "subject": "A2TQNX64349OZ9:3WSELTNVR4AZUVYAYCSWZIQW0J4ATB"}
{"meta_move": "drag_end", "rt": "881.0", "trial_number": "2", "pre_actions": "1", "move": "7@1", "instance": "prb29600", "distance_to_goal": "NA", "progress": "NA", "move_number": "7", "optimal_length": "14", "subject": "A2TQNX64349OZ9:3WSELTNVR4AZUVYAYCSWZIQW0J4ATB"}
{"meta_move": "drag_end", "rt": "710.0", "trial_number": "2", "pre_actions": "1", "move": "5@2", "instance": "prb29600", "distance_to_goal": "NA", "progress": "NA", "move_number": "7", "optimal_length": "14", "subject": "A2TQNX64349OZ9:3WSELTNVR4AZUVYAYCSWZIQW0J4ATB"}
{"meta_move": "drag_end", "rt": "768.0", "trial_number": "2", "pre_actions": "1", "move": "r@12", "instance": "prb29600", "distance_to_goal": "NA", "progress": "NA", "move_number": "7", "optimal_length": "14", "subject": "A2TQNX64349OZ9:3WSELTNVR4AZUVYAYCSWZIQW0J4ATB"}
{"meta_move": "drag_end", "rt": "1023.0", "trial_number": "2", "pre_actions": "1", "move": "7@1", "instance": "prb29600", "distance_to_goal": "NA", "progress": "NA", "move_number": "8", "optimal_length": "14", "subject": "A2TQNX64349OZ9:3WSELTNVR4AZUVYAYCSWZIQW0J4ATB"}
{"meta_move": "drag_end", "rt": "989.0", "trial_number": "2", "pre_actions": "1", "move": "0@21", "instance": "prb29600", "distance_to_goal": "NA", "progress": "NA", "move_number": "8", "optimal_length": "14", "subject": "A2TQNX64349OZ9:3WSELTNVR4AZUVYAYCSWZIQW0J4ATB"}
{"meta_move": "drag_end", "rt": "517.0", "trial_number": "2", "pre_actions": "1", "move": "6@9", "instance": "prb29600", "distance_to_goal": "NA", "progress": "NA", "move_number": "8", "optimal_length": "14", "subject": "A2TQNX64349OZ9:3WSELTNVR4AZUVYAYCSWZIQW0J4ATB"}
{"meta_move": "drag_end", "rt": "524.0", "trial_number": "2", "pre_actions": "1", "move": "5@2", "instance": "prb29600", "distance_to_goal": "NA", "progress": "NA", "move_number": "8", "optimal_length": "14", "subject": "A2TQNX64349OZ9:3WSELTNVR4AZUVYAYCSWZIQW0J4ATB"}
{"meta_move": "drag_end", "rt": "4538.0", "trial_number": "3", "pre_actions": "1", "move": "5@2", "instance": "prb29600", "distance_to_goal": "NA", "progress": "NA", "move_number": "0", "optimal_length": "14", "subject": "A2TQNX64349OZ9:3WSELTNVR4AZUVYAYCSWZIQW0J4ATB"}
{"meta_move": "drag_end", "rt": "1446.0", "trial_number": "3", "pre_actions": "1", "move": "0@21", "instance": "prb29600", "distance_to_goal": "NA", "progress": "NA", "move_number": "1", "optimal_length": "14", "subject": "A2TQNX64349OZ9:3WSELTNVR4AZUVYAYCSWZIQW0J4ATB"}
{"meta_move": "drag_end", "rt": "1160.0", "trial_number": "3", "pre_actions": "1", "move": "2@22", "instance": "prb29600", "distance_to_goal": "NA", "progress": "NA", "move_number": "1", "optimal_length": "14", "subject": "A2TQNX64349OZ9:3WSELTNVR4AZUVYAYCSWZIQW0J4ATB"}
{"meta_move": "drag_end", "rt": "447.0", "trial_number": "3", "pre_actions": "1", "move": "1@23", "instance": "prb29600", "distance_to_goal": "NA", "progress": "NA", "move_number": "2", "optimal_length": "14", "subject": "A2TQNX64349OZ9:3WSELTNVR4AZUVYAYCSWZIQW0J4ATB"}
{"meta_move": "drag_end", "rt": "1604.0", "trial_number": "3", "pre_actions": "1", "move": "6@9", "instance": "prb29600", "distance_to_goal": "NA", "progress": "NA", "move_number": "3", "optimal_length": "14", "subject": "A2TQNX64349OZ9:3WSELTNVR4AZUVYAYCSWZIQW0J4ATB"}
{"meta_move": "drag_end", "rt": "800.0", "trial_number": "3", "pre_actions": "1", "move": "4@30", "instance": "prb29600", "distance_to_goal": "NA", "progress": "NA", "move_number": "3", "optimal_length": "14", "subject": "A2TQNX64349OZ9:3WSELTNVR4AZUVYAYCSWZIQW0J4ATB"}
{"meta_move": "drag_end", "rt": "1484.0", "trial_number": "4", "pre_actions": "1", "move": "7@1", "instance": "prb29600", "distance_to_goal": "NA", "progress": "NA", "move_number": "0", "optimal_length": "14", "subject": "A2TQNX64349OZ9:3WSELTNVR4AZUVYAYCSWZIQW0J4ATB"}
{"meta_move": "drag_end", "rt": "2589.0", "trial_number": "4", "pre_actions": "1", "move": "4@30", "instance": "prb29600", "distance_to_goal": "NA", "progress": "NA", "move_number": "0", "optimal_length": "14", "subject": "A2TQNX64349OZ9:3WSELTNVR4AZUVYAYCSWZIQW0J4ATB"}
{"meta_move": "drag_end", "rt": "983.0", "trial_number": "4", "pre_actions": "1", "move": "6@9", "instance": "prb29600", "distance_to_goal": "NA", "progress": "NA", "move_number": "0", "optimal_length": "14", "subject": "A2TQNX64349OZ9:3WSELTNVR4AZUVYAYCSWZIQW0J4ATB"}
{"meta_move": "drag_end", "rt": "2585.0", "trial_number": "4", "pre_actions": "1", "move": "5@2", "instance": "prb29600", "distance_to_goal": "NA", "progress": "NA", "move_number": "0", "optimal_length": "14", "subject": "A2TQNX64349OZ9:3WSELTNVR4AZUVYAYCSWZIQW0J4ATB"}
{"meta_move": "drag_end", "rt": "2467.0", "trial_number": "4", "pre_actions": "1", "move": "2@4", "instance": "prb29600", "distance_to_goal": "NA", "progress": "NA", "move_number": "1", "optimal_length": "14", "subject": "A2TQNX64349OZ9:3WSELTNVR4AZUVYAYCSWZIQW0J4ATB"}
{"meta_move": "drag_end", "rt": "956.0", "trial_number": "4", "pre_actions": "1", "move": "0@21", "instance": "prb29600", "distance_to_goal": "NA", "progress": "NA", "move_number": "2", "optimal_length": "14", "subject": "A2TQNX64349OZ9:3WSELTNVR4AZUVYAYCSWZIQW0J4ATB"}
{"meta_move": "drag_end", "rt": "1067.0", "trial_number": "4", "pre_actions": "1", "move": "2@22", "instance": "prb29600", "distance_to_goal": "NA", "progress": "NA", "move_number": "2", "optimal_length": "14", "subject": "A2TQNX64349OZ9:3WSELTNVR4AZUVYAYCSWZIQW0J4ATB"}
{"meta_move": "drag_end", "rt": "1207.0", "trial_number": "4", "pre_actions": "1", "move": "6@9", "instance": "prb29600", "distance_to_goal": "NA", "progress": "NA", "move_number": "3", "optimal_length": "14", "subject": "A2TQNX64349OZ9:3WSELTNVR4AZUVYAYCSWZIQW0J4ATB"}
{"meta_move": "drag_end", "rt": "556.0", "trial_number": "4", "pre_actions": "1", "move": "5@3", "instance": "prb29600", "distance_to_goal": "NA", "progress": "NA", "move_number": "3", "optimal_length": "14", "subject": "A2TQNX64349OZ9:3WSELTNVR4AZUVYAYCSWZIQW0J4ATB"}
{"meta_move": "drag_end", "rt": "905.0", "trial_number": "4", "pre_actions": "1", "move": "6@9", "instance": "prb29600", "distance_to_goal": "NA", "progress": "NA", "move_number": "4", "optimal_length": "14", "subject": "A2TQNX64349OZ9:3WSELTNVR4AZUVYAYCSWZIQW0J4ATB"}
{"meta_move": "drag_end", "rt": "1038.0", "trial_number": "4", "pre_actions": "1", "move": "6@9", "instance": "prb29600", "distance_to_goal": "NA", "progress": "NA", "move_number": "4", "optimal_length": "14", "subject": "A2TQNX64349OZ9:3WSELTNVR4AZUVYAYCSWZIQW0J4ATB"}
{"meta_move": "drag_end", "rt": "903.0", "trial_number": "4", "pre_actions": "1", "move": "1@23", "instance": "prb29600", "distance_to_goal": "NA", "progress": "NA", "move_number": "4", "optimal_length": "14", "subject": "A2TQNX64349OZ9:3WSELTNVR4AZUVYAYCSWZIQW0J4ATB"}
{"meta_move": "drag_end", "rt": "529.0", "trial_number": "4", "pre_actions": "1", "move": "3@11", "instance": "prb29600", "distance_to_goal": "NA", "progress": "NA", "move_number": "5", "optimal_length": "14", "subject": "A2TQNX64349OZ9:3WSELTNVR4AZUVYAYCSWZIQW0J4ATB"}
{"meta_move": "drag_end", "rt": "507.0", "trial_number": "4", "pre_actions": "1", "move": "5@4", "instance": "prb29600", "distance_to_goal": "NA", "progress": "NA", "move_number": "6", "optimal_length": "14", "subject": "A2TQNX64349OZ9:3WSELTNVR4AZUVYAYCSWZIQW0J4ATB"}
{"meta_move": "drag_end", "rt": "851.0", "trial_number": "4", "pre_actions": "1", "move": "6@3", "instance": "prb29600", "distance_to_goal": "NA", "progress": "NA", "move_number": "7", "optimal_length": "14", "subject": "A2TQNX64349OZ9:3WSELTNVR4AZUVYAYCSWZIQW0J4ATB"}
{"meta_move": "drag_end", "rt": "2585.0", "trial_number": "4", "pre_actions": "1", "move": "r@15", "instance": "prb29600", "distance_to_goal": "NA", "progress": "NA", "move_number": "8", "optimal_length": "14", "subject": "A2TQNX64349OZ9:3WSELTNVR4AZUVYAYCSWZIQW0J4ATB"}
{"meta_move": "drag_end", "rt": "1346.0", "trial_number": "4", "pre_actions": "1", "move": "7@19", "instance": "prb29600", "distance_to_goal": "NA", "progress": "NA", "move_number": "9", "optimal_length": "14", "subject": "A2TQNX64349OZ9:3WSELTNVR4AZUVYAYCSWZIQW0J4ATB"}
{"meta_move": "drag_end", "rt": "3462.0", "trial_number": "4", "pre_actions": "1", "move": "r@13", "instance": "prb29600", "distance_to_goal": "NA", "progress": "NA", "move_number": "10", "optimal_length": "14", "subject": "A2TQNX64349OZ9:3WSELTNVR4AZUVYAYCSWZIQW0J4ATB"}
{"meta_move": "drag_end", "rt": "1674.0", "trial_number": "4", "pre_actions": "1", "move": "r@12", "instance": "prb29600", "distance_to_goal": "NA", "progress": "NA", "move_number": "11", "optimal_length": "14", "subject": "A2TQNX64349OZ9:3WSELTNVR4AZUVYAYCSWZIQW0J4ATB"}
{"meta_move": "drag_end", "rt": "1072.0", "trial_number": "4", "pre_actions": "1", "move": "0@21", "instance": "prb29600", "distance_to_goal": "NA", "progress": "NA", "move_number": "12", "optimal_length": "14", "subject": "A2TQNX64349OZ9:3WSELTNVR4AZUVYAYCSWZIQW0J4ATB"}
{"meta_move": "drag_end", "rt": "1439.0", "trial_number": "4", "pre_actions": "1", "move": "6@9", "instance": "prb29600", "distance_to_goal": "NA", "progress": "NA", "move_number": "12", "optimal_length": "14", "subject": "A2TQNX64349OZ9:3WSELTNVR4AZUVYAYCSWZIQW0J4ATB"}
{"meta_move": "drag_end", "rt": "1023.0", "trial_number": "4", "pre_actions": "1", "move": "5@0", "instance": "prb29600", "distance_to_goal": "NA", "progress": "NA", "move_number": "13", "optimal_length": "14", "subject": "A2TQNX64349OZ9:3WSELTNVR4AZUVYAYCSWZIQW0J4ATB"}
{"meta_move": "drag_end", "rt": "850.0", "trial_number": "4", "pre_actions": "1", "move": "6@3", "instance": "prb29600", "distance_to_goal": "NA", "progress": "NA", "move_number": "14", "optimal_length": "14", "subject": "A2TQNX64349OZ9:3WSELTNVR4AZUVYAYCSWZIQW0J4ATB"}
{"meta_move": "drag_end", "rt": "924.0", "trial_number": "4", "pre_actions": "1", "move": "3@5", "instance": "prb29600", "distance_to_goal": "NA", "progress": "NA", "move_number": "15", "optimal_length": "14", "subject": "A2TQNX64349OZ9:3WSELTNVR4AZUVYAYCSWZIQW0J4ATB"}
{"meta_move": "win", "rt": "780.0", "trial_number": "4", "pre_actions": "1", "move": "r@12", "instance": "prb29600", "distance_to_goal": "1", "progress": "NA", "move_number": "16", "optimal_length": "14", "subject": "A2TQNX64349OZ9:3WSELTNVR4AZUVYAYCSWZIQW0J4ATB"}
{"meta_move": "drag_end", "rt": "26.0", "trial_number": "0", "pre_actions": "0", "move": "r@16", "instance": "prb29600", "distance_to_goal": "NA", "progress": "NA", "move_number": "16", "optimal_length": "14", "subject": "A2TQNX64349OZ9:3WSELTNVR4AZUVYAYCSWZIQW0J4ATB"}
{"meta_move": "drag_end", "rt": "1448.0", "trial_number": "1", "pre_actions": "1", "move": "0@21", "instance": "prb29600", "distance_to_goal": "NA", "progress": "NA", "move_number": "0", "optimal_length": "14", "subject": "A394S7JSNUA3TS:3VNL7UK1XGRUQMFI9SEODJ1NWBPTF2"}
{"meta_move": "drag_end", "rt": "559.0", "trial_number": "1", "pre_actions": "1", "move": "0@21", "instance": "prb29600", "distance_to_goal": "NA", "progress": "NA", "move_number": "0", "optimal_length": "14", "subject": "A394S7JSNUA3TS:3VNL7UK1XGRUQMFI9SEODJ1NWBPTF2"}
{"meta_move": "drag_end", "rt": "470.0", "trial_number": "1", "pre_actions": "1", "move": "0@21", "instance": "prb29600", "distance_to_goal": "NA", "progress": "NA", "move_number": "0", "optimal_length": "14", "subject": "A394S7JSNUA3TS:3VNL7UK1XGRUQMFI9SEODJ1NWBPTF2"}
{"meta_move": "drag_end", "rt": "1914.0", "trial_number": "1", "pre_actions": "1", "move": "0@21", "instance": "prb29600", "distance_to_goal": "NA", "progress": "NA", "move_number": "0", "optimal_length": "14", "subject": "A394S7JSNUA3TS:3VNL7UK1XGRUQMFI9SEODJ1NWBPTF2"}
{"meta_move": "drag_end", "rt": "1643.0", "trial_number": "1", "pre_actions": "1", "move": "r@12", "instance": "prb29600", "distance_to_goal": "NA", "progress": "NA", "move_number": "0", "optimal_length": "14", "subject": "A394S7JSNUA3TS:3VNL7UK1XGRUQMFI9SEODJ1NWBPTF2"}
{"meta_move": "drag_end", "rt": "1070.0", "trial_number": "1", "pre_actions": "1", "move": "5@2", "instance": "prb29600", "distance_to_goal": "NA", "progress": "NA", "move_number": "0", "optimal_length": "14", "subject": "A394S7JSNUA3TS:3VNL7UK1XGRUQMFI9SEODJ1NWBPTF2"}
{"meta_move": "drag_end", "rt": "889.0", "trial_number": "1", "pre_actions": "1", "move": "2@4", "instance": "prb29600", "distance_to_goal": "NA", "progress": "NA", "move_number": "1", "optimal_length": "14", "subject": "A394S7JSNUA3TS:3VNL7UK1XGRUQMFI9SEODJ1NWBPTF2"}
{"meta_move": "drag_end", "rt": "627.0", "trial_number": "1", "pre_actions": "1", "move": "1@23", "instance": "prb29600", "distance_to_goal": "NA", "progress": "NA", "move_number": "2", "optimal_length": "14", "subject": "A394S7JSNUA3TS:3VNL7UK1XGRUQMFI9SEODJ1NWBPTF2"}
{"meta_move": "drag_end", "rt": "1482.0", "trial_number": "1", "pre_actions": "1", "move": "0@21", "instance": "prb29600", "distance_to_goal": "NA", "progress": "NA", "move_number": "3", "optimal_length": "14", "subject": "A394S7JSNUA3TS:3VNL7UK1XGRUQMFI9SEODJ1NWBPTF2"}
{"meta_move": "drag_end", "rt": "2174.0", "trial_number": "1", "pre_actions": "1", "move": "2@22", "instance": "prb29600", "distance_to_goal": "NA", "progress": "NA", "move_number": "3", "optimal_length": "14", "subject": "A394S7JSNUA3TS:3VNL7UK1XGRUQMFI9SEODJ1NWBPTF2"}
{"meta_move": "drag_end", "rt": "769.0", "trial_number": "1", "pre_actions": "1", "move": "6@9", "instance": "prb29600", "distance_to_goal": "NA", "progress": "NA", "move_number": "4", "optimal_length": "14", "subject": "A394S7JSNUA3TS:3VNL7UK1XGRUQMFI9SEODJ1NWBPTF2"}
{"meta_move": "drag_end", "rt": "549.0", "trial_number": "1", "pre_actions": "1", "move": "5@3", "instance": "prb29600", "distance_to_goal": "NA", "progress": "NA", "move_number": "4", "optimal_length": "14", "subject": "A394S7JSNUA3TS:3VNL7UK1XGRUQMFI9SEODJ1NWBPTF2"}
{"meta_move": "drag_end", "rt": "883.0", "trial_number": "1", "pre_actions": "1", "move": "0@21", "instance": "prb29600", "distance_to_goal": "NA", "progress": "NA", "move_number": "5", "optimal_length": "14", "subject": "A394S7JSNUA3TS:3VNL7UK1XGRUQMFI9SEODJ1NWBPTF2"}
{"meta_move": "drag_end", "rt": "1402.0", "trial_number": "1", "pre_actions": "1", "move": "6@9", "instance": "prb29600", "distance_to_goal": "NA", "progress": "NA", "move_number": "5", "optimal_length": "14", "subject": "A394S7JSNUA3TS:3VNL7UK1XGRUQMFI9SEODJ1NWBPTF2"}
{"meta_move": "drag_end", "rt": "485.0", "trial_number": "1", "pre_actions": "1", "move": "5@3", "instance": "prb29600", "distance_to_goal": "NA", "progress": "NA", "move_number": "5", "optimal_length": "14", "subject": "A394S7JSNUA3TS:3VNL7UK1XGRUQMFI9SEODJ1NWBPTF2"}
{"meta_move": "drag_end", "rt": "576.0", "trial_number": "1", "pre_actions": "1", "move": "6@9", "instance": "prb29600", "distance_to_goal": "NA", "progress": "NA", "move_number": "5", "optimal_length": "14", "subject": "A394S7JSNUA3TS:3VNL7UK1XGRUQMFI9SEODJ1NWBPTF2"}
{"meta_move": "drag_end", "rt": "432.0", "trial_number": "1", "pre_actions": "1", "move": "5@2", "instance": "prb29600", "distance_to_goal": "NA", "progress": "NA", "move_number": "5", "optimal_length": "14", "subject": "A394S7JSNUA3TS:3VNL7UK1XGRUQMFI9SEODJ1NWBPTF2"}
{"meta_move": "drag_end", "rt": "1160.0", "trial_number": "1", "pre_actions": "1", "move": "7@1", "instance": "prb29600", "distance_to_goal": "NA", "progress": "NA", "move_number": "6", "optimal_length": "14", "subject": "A394S7JSNUA3TS:3VNL7UK1XGRUQMFI9SEODJ1NWBPTF2"}
{"meta_move": "drag_end", "rt": "505.0", "trial_number": "1", "pre_actions": "1", "move": "r@13", "instance": "prb29600", "distance_to_goal": "NA", "progress": "NA", "move_number": "6", "optimal_length": "14", "subject": "A394S7JSNUA3TS:3VNL7UK1XGRUQMFI9SEODJ1NWBPTF2"}
{"meta_move": "drag_end", "rt": "546.0", "trial_number": "1", "pre_actions": "1", "move": "7@1", "instance": "prb29600", "distance_to_goal": "NA", "progress": "NA", "move_number": "7", "optimal_length": "14", "subject": "A394S7JSNUA3TS:3VNL7UK1XGRUQMFI9SEODJ1NWBPTF2"}
{"meta_move": "drag_end", "rt": "416.0", "trial_number": "1", "pre_actions": "1", "move": "r@12", "instance": "prb29600", "distance_to_goal": "NA", "progress": "NA", "move_number": "7", "optimal_length": "14", "subject": "A394S7JSNUA3TS:3VNL7UK1XGRUQMFI9SEODJ1NWBPTF2"}
{"meta_move": "drag_end", "rt": "1435.0", "trial_number": "1", "pre_actions": "1", "move": "6@9", "instance": "prb29600", "distance_to_goal": "NA", "progress": "NA", "move_number": "8", "optimal_length": "14", "subject": "A394S7JSNUA3TS:3VNL7UK1XGRUQMFI9SEODJ1NWBPTF2"}
{"meta_move": "drag_end", "rt": "933.0", "trial_number": "1", "pre_actions": "1", "move": "6@9", "instance": "prb29600", "distance_to_goal": "NA", "progress": "NA", "move_number": "8", "optimal_length": "14", "subject": "A394S7JSNUA3TS:3VNL7UK1XGRUQMFI9SEODJ1NWBPTF2"}
{"meta_move": "drag_end", "rt": "1123.0", "trial_number": "1", "pre_actions": "1", "move": "6@9", "instance": "prb29600", "distance_to_goal": "NA", "progress": "NA", "move_number": "8", "optimal_length": "14", "subject": "A394S7JSNUA3TS:3VNL7UK1XGRUQMFI9SEODJ1NWBPTF2"}
{"meta_move": "drag_end", "rt": "1464.0", "trial_number": "1", "pre_actions": "1", "move": "0@21", "instance": "prb29600", "distance_to_goal": "NA", "progress": "NA", "move_number": "8", "optimal_length": "14", "subject": "A394S7JSNUA3TS:3VNL7UK1XGRUQMFI9SEODJ1NWBPTF2"}
{"meta_move": "drag_end", "rt": "446.0", "trial_number": "1", "pre_actions": "1", "move": "2@4", "instance": "prb29600", "distance_to_goal": "NA", "progress": "NA", "move_number": "8", "optimal_length": "14", "subject": "A394S7JSNUA3TS:3VNL7UK1XGRUQMFI9SEODJ1NWBPTF2"}
{"meta_move": "drag_end", "rt": "768.0", "trial_number": "1", "pre_actions": "1", "move": "0@21", "instance": "prb29600", "distance_to_goal": "NA", "progress": "NA", "move_number": "9", "optimal_length": "14", "subject": "A394S7JSNUA3TS:3VNL7UK1XGRUQMFI9SEODJ1NWBPTF2"}
{"meta_move": "drag_end", "rt": "586.0", "trial_number": "1", "pre_actions": "1", "move": "0@21", "instance": "prb29600", "distance_to_goal": "NA", "progress": "NA", "move_number": "9", "optimal_length": "14", "subject": "A394S7JSNUA3TS:3VNL7UK1XGRUQMFI9SEODJ1NWBPTF2"}
{"meta_move": "drag_end", "rt": "620.0", "trial_number": "1", "pre_actions": "1", "move": "2@22", "instance": "prb29600", "distance_to_goal": "NA", "progress": "NA", "move_number": "9", "optimal_length": "14", "subject": "A394S7JSNUA3TS:3VNL7UK1XGRUQMFI9SEODJ1NWBPTF2"}
{"meta_move": "drag_end", "rt": "629.0", "trial_number": "1", "pre_actions": "1", "move": "5@3", "instance": "prb29600", "distance_to_goal": "NA", "progress": "NA", "move_number": "10", "optimal_length": "14", "subject": "A394S7JSNUA3TS:3VNL7UK1XGRUQMFI9SEODJ1NWBPTF2"}
{"meta_move": "drag_end", "rt": "528.0", "trial_number": "1", "pre_actions": "1", "move": "3@11", "instance": "prb29600", "distance_to_goal": "NA", "progress": "NA", "move_number": "11", "optimal_length": "14", "subject": "A394S7JSNUA3TS:3VNL7UK1XGRUQMFI9SEODJ1NWBPTF2"}
{"meta_move": "drag_end", "rt": "470.0", "trial_number": "1", "pre_actions": "1", "move": "5@4", "instance": "prb29600", "distance_to_goal": "NA", "progress": "NA", "move_number": "12", "optimal_length": "14", "subject": "A394S7JSNUA3TS:3VNL7UK1XGRUQMFI9SEODJ1NWBPTF2"}
{"meta_move": "drag_end", "rt": "449.0", "trial_number": "1", "pre_actions": "1", "move": "6@3", "instance": "prb29600", "distance_to_goal": "NA", "progress": "NA", "move_number": "13", "optimal_length": "14", "subject": "A394S7JSNUA3TS:3VNL7UK1XGRUQMFI9SEODJ1NWBPTF2"}
{"meta_move": "drag_end", "rt": "1252.0", "trial_number": "1", "pre_actions": "1", "move": "r@15", "instance": "prb29600", "distance_to_goal": "NA", "progress": "NA", "move_number": "14", "optimal_length": "14", "subject": "A394S7JSNUA3TS:3VNL7UK1XGRUQMFI9SEODJ1NWBPTF2"}
{"meta_move": "drag_end", "rt": "1143.0", "trial_number": "1", "pre_actions": "1", "move": "6@3", "instance": "prb29600", "distance_to_goal": "NA", "progress": "NA", "move_number": "15", "optimal_length": "14", "subject": "A394S7JSNUA3TS:3VNL7UK1XGRUQMFI9SEODJ1NWBPTF2"}
{"meta_move": "drag_end", "rt": "535.0", "trial_number": "1", "pre_actions": "1", "move": "3@11", "instance": "prb29600", "distance_to_goal": "NA", "progress": "NA", "move_number": "15", "optimal_length": "14", "subject": "A394S7JSNUA3TS:3VNL7UK1XGRUQMFI9SEODJ1NWBPTF2"}
{"meta_move": "drag_end", "rt": "497.0", "trial_number": "1", "pre_actions": "1", "move": "0@21", "instance": "prb29600", "distance_to_goal": "NA", "progress": "NA", "move_number": "15", "optimal_length": "14", "subject": "A394S7JSNUA3TS:3VNL7UK1XGRUQMFI9SEODJ1NWBPTF2"}
{"meta_move": "drag_end", "rt": "1564.0", "trial_number": "1", "pre_actions": "1", "move": "r@13", "instance": "prb29600", "distance_to_goal": "NA", "progress": "NA", "move_number": "15", "optimal_length": "14", "subject": "A394S7JSNUA3TS:3VNL7UK1XGRUQMFI9SEODJ1NWBPTF2"}
{"meta_move": "drag_end", "rt": "675.0", "trial_number": "1", "pre_actions": "1", "move": "6@9", "instance": "prb29600", "distance_to_goal": "NA", "progress": "NA", "move_number": "16", "optimal_length": "14", "subject": "A394S7JSNUA3TS:3VNL7UK1XGRUQMFI9SEODJ1NWBPTF2"}
{"meta_move": "drag_end", "rt": "688.0", "trial_number": "1", "pre_actions": "1", "move": "5@2", "instance": "prb29600", "distance_to_goal": "NA", "progress": "NA", "move_number": "17", "optimal_length": "14", "subject": "A394S7JSNUA3TS:3VNL7UK1XGRUQMFI9SEODJ1NWBPTF2"}
{"meta_move": "drag_end", "rt": "787.0", "trial_number": "1", "pre_actions": "1", "move": "6@9", "instance": "prb29600", "distance_to_goal": "NA", "progress": "NA", "move_number": "18", "optimal_length": "14", "subject": "A394S7JSNUA3TS:3VNL7UK1XGRUQMFI9SEODJ1NWBPTF2"}
{"meta_move": "drag_end", "rt": "696.0", "trial_number": "1", "pre_actions": "1", "move": "0@21", "instance": "prb29600", "distance_to_goal": "NA", "progress": "NA", "move_number": "18", "optimal_length": "14", "subject": "A394S7JSNUA3TS:3VNL7UK1XGRUQMFI9SEODJ1NWBPTF2"}
{"meta_move": "drag_end", "rt": "908.0", "trial_number": "1", "pre_actions": "1", "move": "3@5", "instance": "prb29600", "distance_to_goal": "NA", "progress": "NA", "move_number": "18", "optimal_length": "14", "subject": "A394S7JSNUA3TS:3VNL7UK1XGRUQMFI9SEODJ1NWBPTF2"}
{"meta_move": "drag_end", "rt": "630.0", "trial_number": "1", "pre_actions": "1", "move": "6@9", "instance": "prb29600", "distance_to_goal": "NA", "progress": "NA", "move_number": "19", "optimal_length": "14", "subject": "A394S7JSNUA3TS:3VNL7UK1XGRUQMFI9SEODJ1NWBPTF2"}
{"meta_move": "drag_end", "rt": "476.0", "trial_number": "1", "pre_actions": "1", "move": "5@3", "instance": "prb29600", "distance_to_goal": "NA", "progress": "NA", "move_number": "19", "optimal_length": "14", "subject": "A394S7JSNUA3TS:3VNL7UK1XGRUQMFI9SEODJ1NWBPTF2"}
{"meta_move": "drag_end", "rt": "532.0", "trial_number": "1", "pre_actions": "1", "move": "6@9", "instance": "prb29600", "distance_to_goal": "NA", "progress": "NA", "move_number": "20", "optimal_length": "14", "subject": "A394S7JSNUA3TS:3VNL7UK1XGRUQMFI9SEODJ1NWBPTF2"}
{"meta_move": "drag_end", "rt": "584.0", "trial_number": "1", "pre_actions": "1", "move": "5@2", "instance": "prb29600", "distance_to_goal": "NA", "progress": "NA", "move_number": "20", "optimal_length": "14", "subject": "A394S7JSNUA3TS:3VNL7UK1XGRUQMFI9SEODJ1NWBPTF2"}
{"meta_move": "drag_end", "rt": "411.0", "trial_number": "1", "pre_actions": "1", "move": "7@1", "instance": "prb29600", "distance_to_goal": "NA", "progress": "NA", "move_number": "21", "optimal_length": "14", "subject": "A394S7JSNUA3TS:3VNL7UK1XGRUQMFI9SEODJ1NWBPTF2"}
{"meta_move": "drag_end", "rt": "1068.0", "trial_number": "1", "pre_actions": "1", "move": "r@12", "instance": "prb29600", "distance_to_goal": "NA", "progress": "NA", "move_number": "21", "optimal_length": "14", "subject": "A394S7JSNUA3TS:3VNL7UK1XGRUQMFI9SEODJ1NWBPTF2"}
{"meta_move": "drag_end", "rt": "702.0", "trial_number": "1", "pre_actions": "1", "move": "6@9", "instance": "prb29600", "distance_to_goal": "NA", "progress": "NA", "move_number": "22", "optimal_length": "14", "subject": "A394S7JSNUA3TS:3VNL7UK1XGRUQMFI9SEODJ1NWBPTF2"}
{"meta_move": "drag_end", "rt": "492.0", "trial_number": "1", "pre_actions": "1", "move": "3@11", "instance": "prb29600", "distance_to_goal": "NA", "progress": "NA", "move_number": "22", "optimal_length": "14", "subject": "A394S7JSNUA3TS:3VNL7UK1XGRUQMFI9SEODJ1NWBPTF2"}
{"meta_move": "drag_end", "rt": "516.0", "trial_number": "1", "pre_actions": "1", "move": "5@4", "instance": "prb29600", "distance_to_goal": "NA", "progress": "NA", "move_number": "23", "optimal_length": "14", "subject": "A394S7JSNUA3TS:3VNL7UK1XGRUQMFI9SEODJ1NWBPTF2"}
{"meta_move": "drag_end", "rt": "395.0", "trial_number": "1", "pre_actions": "1", "move": "6@3", "instance": "prb29600", "distance_to_goal": "NA", "progress": "NA", "move_number": "24", "optimal_length": "14", "subject": "A394S7JSNUA3TS:3VNL7UK1XGRUQMFI9SEODJ1NWBPTF2"}
{"meta_move": "drag_end", "rt": "626.0", "trial_number": "1", "pre_actions": "1", "move": "r@15", "instance": "prb29600", "distance_to_goal": "NA", "progress": "NA", "move_number": "25", "optimal_length": "14", "subject": "A394S7JSNUA3TS:3VNL7UK1XGRUQMFI9SEODJ1NWBPTF2"}
{"meta_move": "drag_end", "rt": "883.0", "trial_number": "1", "pre_actions": "1", "move": "7@19", "instance": "prb29600", "distance_to_goal": "NA", "progress": "NA", "move_number": "26", "optimal_length": "14", "subject": "A394S7JSNUA3TS:3VNL7UK1XGRUQMFI9SEODJ1NWBPTF2"}
{"meta_move": "drag_end", "rt": "509.0", "trial_number": "1", "pre_actions": "1", "move": "6@3", "instance": "prb29600", "distance_to_goal": "NA", "progress": "NA", "move_number": "27", "optimal_length": "14", "subject": "A394S7JSNUA3TS:3VNL7UK1XGRUQMFI9SEODJ1NWBPTF2"}
{"meta_move": "drag_end", "rt": "1239.0", "trial_number": "1", "pre_actions": "1", "move": "r@13", "instance": "prb29600", "distance_to_goal": "NA", "progress": "NA", "move_number": "27", "optimal_length": "14", "subject": "A394S7JSNUA3TS:3VNL7UK1XGRUQMFI9SEODJ1NWBPTF2"}
{"meta_move": "drag_end", "rt": "744.0", "trial_number": "1", "pre_actions": "1", "move": "6@9", "instance": "prb29600", "distance_to_goal": "NA", "progress": "NA", "move_number": "28", "optimal_length": "14", "subject": "A394S7JSNUA3TS:3VNL7UK1XGRUQMFI9SEODJ1NWBPTF2"}
{"meta_move": "drag_end", "rt": "469.0", "trial_number": "1", "pre_actions": "1", "move": "5@0", "instance": "prb29600", "distance_to_goal": "NA", "progress": "NA", "move_number": "29", "optimal_length": "14", "subject": "A394S7JSNUA3TS:3VNL7UK1XGRUQMFI9SEODJ1NWBPTF2"}
{"meta_move": "drag_end", "rt": "588.0", "trial_number": "1", "pre_actions": "1", "move": "6@3", "instance": "prb29600", "distance_to_goal": "NA", "progress": "NA", "move_number": "30", "optimal_length": "14", "subject": "A394S7JSNUA3TS:3VNL7UK1XGRUQMFI9SEODJ1NWBPTF2"}
{"meta_move": "drag_end", "rt": "529.0", "trial_number": "1", "pre_actions": "1", "move": "r@14", "instance": "prb29600", "distance_to_goal": "NA", "progress": "NA", "move_number": "31", "optimal_length": "14", "subject": "A394S7JSNUA3TS:3VNL7UK1XGRUQMFI9SEODJ1NWBPTF2"}
{"meta_move": "drag_end", "rt": "437.0", "trial_number": "1", "pre_actions": "1", "move": "3@5", "instance": "prb29600", "distance_to_goal": "NA", "progress": "NA", "move_number": "32", "optimal_length": "14", "subject": "A394S7JSNUA3TS:3VNL7UK1XGRUQMFI9SEODJ1NWBPTF2"}
{"meta_move": "win", "rt": "518.0", "trial_number": "1", "pre_actions": "1", "move": "r@14", "instance": "prb29600", "distance_to_goal": "1", "progress": "NA", "move_number": "33", "optimal_length": "14", "subject": "A394S7JSNUA3TS:3VNL7UK1XGRUQMFI9SEODJ1NWBPTF2"}
{"meta_move": "drag_end", "rt": "97.0", "trial_number": "0", "pre_actions": "0", "move": "r@16", "instance": "prb29600", "distance_to_goal": "NA", "progress": "NA", "move_number": "33", "optimal_length": "14", "subject": "A394S7JSNUA3TS:3VNL7UK1XGRUQMFI9SEODJ1NWBPTF2"}
{"meta_move": "drag_end", "rt": "3699.0", "trial_number": "1", "pre_actions": "1", "move": "1@23", "instance": "prb29600", "distance_to_goal": "NA", "progress": "NA", "move_number": "0", "optimal_length": "14", "subject": "A3NMQ3019X6YE0:3I2PTA7R3U2SESF4TZBQORI5LSJQKK"}
{"meta_move": "drag_end", "rt": "688.0", "trial_number": "1", "pre_actions": "1", "move": "2@22", "instance": "prb29600", "distance_to_goal": "NA", "progress": "NA", "move_number": "1", "optimal_length": "14", "subject": "A3NMQ3019X6YE0:3I2PTA7R3U2SESF4TZBQORI5LSJQKK"}
{"meta_move": "drag_end", "rt": "4830.0", "trial_number": "1", "pre_actions": "1", "move": "2@10", "instance": "prb29600", "distance_to_goal": "NA", "progress": "NA", "move_number": "2", "optimal_length": "14", "subject": "A3NMQ3019X6YE0:3I2PTA7R3U2SESF4TZBQORI5LSJQKK"}
{"meta_move": "drag_end", "rt": "736.0", "trial_number": "1", "pre_actions": "1", "move": "1@17", "instance": "prb29600", "distance_to_goal": "NA", "progress": "NA", "move_number": "3", "optimal_length": "14", "subject": "A3NMQ3019X6YE0:3I2PTA7R3U2SESF4TZBQORI5LSJQKK"}
{"meta_move": "drag_end", "rt": "1706.0", "trial_number": "1", "pre_actions": "1", "move": "5@2", "instance": "prb29600", "distance_to_goal": "NA", "progress": "NA", "move_number": "4", "optimal_length": "14", "subject": "A3NMQ3019X6YE0:3I2PTA7R3U2SESF4TZBQORI5LSJQKK"}
{"meta_move": "drag_end", "rt": "1148.0", "trial_number": "1", "pre_actions": "1", "move": "2@4", "instance": "prb29600", "distance_to_goal": "NA", "progress": "NA", "move_number": "5", "optimal_length": "14", "subject": "A3NMQ3019X6YE0:3I2PTA7R3U2SESF4TZBQORI5LSJQKK"}
