{"meta_move": "drag_end", "rt": "10458.0", "trial_number": "1", "pre_actions": "1", "move": "7@8", "instance": "prb25861", "distance_to_goal": "NA", "progress": "NA", "move_number": "0", "optimal_length": "16", "subject": "A15FXHC1CVNW31:3TS1AR6UQRM7SOIBWPBN8N9589Y7FV"}
{"meta_move": "drag_end", "rt": "780.0", "trial_number": "1", "pre_actions": "1", "move": "3@1", "instance": "prb25861", "distance_to_goal": "NA", "progress": "NA", "move_number": "1", "optimal_length": "16", "subject": "A15FXHC1CVNW31:3TS1AR6UQRM7SOIBWPBN8N9589Y7FV"}
{"meta_move": "drag_end", "rt": "2177.0", "trial_number": "1", "pre_actions": "1", "move": "r@14", "instance": "prb25861", "distance_to_goal": "NA", "progress": "NA", "move_number": "2", "optimal_length": "16", "subject": "A15FXHC1CVNW31:3TS1AR6UQRM7SOIBWPBN8N9589Y7FV"}
{"meta_move": "drag_end", "rt": "1104.0", "trial_number": "1", "pre_actions": "1", "move": "4@26", "instance": "prb25861", "distance_to_goal": "NA", "progress": "NA", "move_number": "2", "optimal_length": "16", "subject": "A15FXHC1CVNW31:3TS1AR6UQRM7SOIBWPBN8N9589Y7FV"}
{"meta_move": "drag_end", "rt": "542.0", "trial_number": "1", "pre_actions": "1", "move": "6@19", "instance": "prb25861", "distance_to_goal": "NA", "progress": "NA", "move_number": "3", "optimal_length": "16", "subject": "A15FXHC1CVNW31:3TS1AR6UQRM7SOIBWPBN8N9589Y7FV"}
{"meta_move": "drag_end", "rt": "938.0", "trial_number": "1", "pre_actions": "1", "move": "2@10", "instance": "prb25861", "distance_to_goal": "NA", "progress": "NA", "move_number": "4", "optimal_length": "16", "subject": "A15FXHC1CVNW31:3TS1AR6UQRM7SOIBWPBN8N9589Y7FV"}
{"meta_move": "drag_end", "rt": "1161.0", "trial_number": "1", "pre_actions": "1", "move": "3@7", "instance": "prb25861", "distance_to_goal": "NA", "progress": "NA", "move_number": "5", "optimal_length": "16", "subject": "A15FXHC1CVNW31:3TS1AR6UQRM7SOIBWPBN8N9589Y7FV"}
{"meta_move": "drag_end", "rt": "1873.0", "trial_number": "1", "pre_actions": "1", "move": "3@1", "instance": "prb25861", "distance_to_goal": "NA", "progress": "NA", "move_number": "6", "optimal_length": "16", "subject": "A15FXHC1CVNW31:3TS1AR6UQRM7SOIBWPBN8N9589Y7FV"}
{"meta_move": "drag_end", "rt": "3950.0", "trial_number": "1", "pre_actions": "1", "move": "2@4", "instance": "prb25861", "distance_to_goal": "NA", "progress": "NA", "move_number": "7", "optimal_length": "16", "subject": "A15FXHC1CVNW31:3TS1AR6UQRM7SOIBWPBN8N9589Y7FV"}
{"meta_move": "drag_end", "rt": "1419.0", "trial_number": "1", "pre_actions": "1", "move": "6@21", "instance": "prb25861", "distance_to_goal": "NA", "progress": "NA", "move_number": "8", "optimal_length": "16", "subject": "A15FXHC1CVNW31:3TS1AR6UQRM7SOIBWPBN8N9589Y7FV"}
{"meta_move": "drag_end", "rt": "904.0", "trial_number": "1", "pre_actions": "1", "move": "3@25", "instance": "prb25861", "distance_to_goal": "NA", "progress": "NA", "move_number": "9", "optimal_length": "16", "subject": "A15FXHC1CVNW31:3TS1AR6UQRM7SOIBWPBN8N9589Y7FV"}
{"meta_move": "drag_end", "rt": "1332.0", "trial_number": "1", "pre_actions": "1", "move": "7@6", "instance": "prb25861", "distance_to_goal": "NA", "progress": "NA", "move_number": "10", "optimal_length": "16", "subject": "A15FXHC1CVNW31:3TS1AR6UQRM7SOIBWPBN8N9589Y7FV"}
{"meta_move": "drag_end", "rt": "1096.0", "trial_number": "1", "pre_actions": "1", "move": "2@4", "instance": "prb25861", "distance_to_goal": "NA", "progress": "NA", "move_number": "11", "optimal_length": "16", "subject": "A15FXHC1CVNW31:3TS1AR6UQRM7SOIBWPBN8N9589Y7FV"}
{"meta_move": "drag_end", "rt": "732.0", "trial_number": "1", "pre_actions": "1", "move": "6@19", "instance": "prb25861", "distance_to_goal": "NA", "progress": "NA", "move_number": "11", "optimal_length": "16", "subject": "A15FXHC1CVNW31:3TS1AR6UQRM7SOIBWPBN8N9589Y7FV"}
{"meta_move": "drag_end", "rt": "866.0", "trial_number": "1", "pre_actions": "1", "move": "2@10", "instance": "prb25861", "distance_to_goal": "NA", "progress": "NA", "move_number": "12", "optimal_length": "16", "subject": "A15FXHC1CVNW31:3TS1AR6UQRM7SOIBWPBN8N9589Y7FV"}
{"meta_move": "drag_end", "rt": "821.0", "trial_number": "1", "pre_actions": "1", "move": "2@4", "instance": "prb25861", "distance_to_goal": "NA", "progress": "NA", "move_number": "13", "optimal_length": "16", "subject": "A15FXHC1CVNW31:3TS1AR6UQRM7SOIBWPBN8N9589Y7FV"}
{"meta_move": "drag_end", "rt": "757.0", "trial_number": "1", "pre_actions": "1", "move": "6@21", "instance": "prb25861", "distance_to_goal": "NA", "progress": "NA", "move_number": "14", "optimal_length": "16", "subject": "A15FXHC1CVNW31:3TS1AR6UQRM7SOIBWPBN8N9589Y7FV"}
{"meta_move": "drag_end", "rt": "851.0", "trial_number": "1", "pre_actions": "1", "move": "3@13", "instance": "prb25861", "distance_to_goal": "NA", "progress": "NA", "move_number": "15", "optimal_length": "16", "subject": "A15FXHC1CVNW31:3TS1AR6UQRM7SOIBWPBN8N9589Y7FV"}
{"meta_move": "drag_end", "rt": "662.0", "trial_number": "1", "pre_actions": "1", "move": "r@14", "instance": "prb25861", "distance_to_goal": "NA", "progress": "NA", "move_number": "16", "optimal_length": "16", "subject": "A15FXHC1CVNW31:3TS1AR6UQRM7SOIBWPBN8N9589Y7FV"}
{"meta_move": "drag_end", "rt": "1382.0", "trial_number": "1", "pre_actions": "1", "move": "6@20", "instance": "prb25861", "distance_to_goal": "NA", "progress": "NA", "move_number": "16", "optimal_length": "16", "subject": "A15FXHC1CVNW31:3TS1AR6UQRM7SOIBWPBN8N9589Y7FV"}
{"meta_move": "drag_end", "rt": "1172.0", "trial_number": "1", "pre_actions": "1", "move": "1@28", "instance": "prb25861", "distance_to_goal": "NA", "progress": "NA", "move_number": "17", "optimal_length": "16", "subject": "A15FXHC1CVNW31:3TS1AR6UQRM7SOIBWPBN8N9589Y7FV"}
{"meta_move": "drag_end", "rt": "1670.0", "trial_number": "1", "pre_actions": "1", "move": "7@8", "instance": "prb25861", "distance_to_goal": "NA", "progress": "NA", "move_number": "17", "optimal_length": "16", "subject": "A15FXHC1CVNW31:3TS1AR6UQRM7SOIBWPBN8N9589Y7FV"}
{"meta_move": "drag_end", "rt": "969.0", "trial_number": "1", "pre_actions": "1", "move": "3@1", "instance": "prb25861", "distance_to_goal": "NA", "progress": "NA", "move_number": "18", "optimal_length": "16", "subject": "A15FXHC1CVNW31:3TS1AR6UQRM7SOIBWPBN8N9589Y7FV"}
{"meta_move": "drag_end", "rt": "773.0", "trial_number": "1", "pre_actions": "1", "move": "0@0", "instance": "prb25861", "distance_to_goal": "NA", "progress": "NA", "move_number": "19", "optimal_length": "16", "subject": "A15FXHC1CVNW31:3TS1AR6UQRM7SOIBWPBN8N9589Y7FV"}
{"meta_move": "drag_end", "rt": "953.0", "trial_number": "1", "pre_actions": "1", "move": "r@13", "instance": "prb25861", "distance_to_goal": "NA", "progress": "NA", "move_number": "20", "optimal_length": "16", "subject": "A15FXHC1CVNW31:3TS1AR6UQRM7SOIBWPBN8N9589Y7FV"}
{"meta_move": "drag_end", "rt": "709.0", "trial_number": "1", "pre_actions": "1", "move": "6@18", "instance": "prb25861", "distance_to_goal": "NA", "progress": "NA", "move_number": "21", "optimal_length": "16", "subject": "A15FXHC1CVNW31:3TS1AR6UQRM7SOIBWPBN8N9589Y7FV"}
{"meta_move": "drag_end", "rt": "2915.0", "trial_number": "1", "pre_actions": "1", "move": "5@21", "instance": "prb25861", "distance_to_goal": "NA", "progress": "NA", "move_number": "22", "optimal_length": "16", "subject": "A15FXHC1CVNW31:3TS1AR6UQRM7SOIBWPBN8N9589Y7FV"}
{"meta_move": "drag_end", "rt": "552.0", "trial_number": "1", "pre_actions": "1", "move": "2@10", "instance": "prb25861", "distance_to_goal": "NA", "progress": "NA", "move_number": "23", "optimal_length": "16", "subject": "A15FXHC1CVNW31:3TS1AR6UQRM7SOIBWPBN8N9589Y7FV"}
{"meta_move": "drag_end", "rt": "2494.0", "trial_number": "1", "pre_actions": "1", "move": "4@26", "instance": "prb25861", "distance_to_goal": "NA", "progress": "NA", "move_number": "24", "optimal_length": "16", "subject": "A15FXHC1CVNW31:3TS1AR6UQRM7SOIBWPBN8N9589Y7FV"}
{"meta_move": "drag_end", "rt": "446.0", "trial_number": "1", "pre_actions": "1", "move": "4@26", "instance": "prb25861", "distance_to_goal": "NA", "progress": "NA", "move_number": "24", "optimal_length": "16", "subject": "A15FXHC1CVNW31:3TS1AR6UQRM7SOIBWPBN8N9589Y7FV"}
{"meta_move": "drag_end", "rt": "614.0", "trial_number": "1", "pre_actions": "1", "move": "5@27", "instance": "prb25861", "distance_to_goal": "NA", "progress": "NA", "move_number": "24", "optimal_length": "16", "subject": "A15FXHC1CVNW31:3TS1AR6UQRM7SOIBWPBN8N9589Y7FV"}
{"meta_move": "drag_end", "rt": "1767.0", "trial_number": "1", "pre_actions": "1", "move": "2@4", "instance": "prb25861", "distance_to_goal": "NA", "progress": "NA", "move_number": "25", "optimal_length": "16", "subject": "A15FXHC1CVNW31:3TS1AR6UQRM7SOIBWPBN8N9589Y7FV"}
{"meta_move": "drag_end", "rt": "1506.0", "trial_number": "1", "pre_actions": "1", "move": "6@21", "instance": "prb25861", "distance_to_goal": "NA", "progress": "NA", "move_number": "26", "optimal_length": "16", "subject": "A15FXHC1CVNW31:3TS1AR6UQRM7SOIBWPBN8N9589Y7FV"}
{"meta_move": "drag_end", "rt": "7773.0", "trial_number": "2", "pre_actions": "1", "move": "7@6", "instance": "prb25861", "distance_to_goal": "NA", "progress": "NA", "move_number": "0", "optimal_length": "16", "subject": "A15FXHC1CVNW31:3TS1AR6UQRM7SOIBWPBN8N9589Y7FV"}
{"meta_move": "drag_end", "rt": "1922.0", "trial_number": "2", "pre_actions": "1", "move": "3@13", "instance": "prb25861", "distance_to_goal": "NA", "progress": "NA", "move_number": "1", "optimal_length": "16", "subject": "A15FXHC1CVNW31:3TS1AR6UQRM7SOIBWPBN8N9589Y7FV"}
{"meta_move": "drag_end", "rt": "2042.0", "trial_number": "2", "pre_actions": "1", "move": "4@26", "instance": "prb25861", "distance_to_goal": "NA", "progress": "NA", "move_number": "2", "optimal_length": "16", "subject": "A15FXHC1CVNW31:3TS1AR6UQRM7SOIBWPBN8N9589Y7FV"}
{"meta_move": "drag_end", "rt": "866.0", "trial_number": "2", "pre_actions": "1", "move": "6@20", "instance": "prb25861", "distance_to_goal": "NA", "progress": "NA", "move_number": "3", "optimal_length": "16", "subject": "A15FXHC1CVNW31:3TS1AR6UQRM7SOIBWPBN8N9589Y7FV"}
{"meta_move": "drag_end", "rt": "1851.0", "trial_number": "2", "pre_actions": "1", "move": "7@8", "instance": "prb25861", "distance_to_goal": "NA", "progress": "NA", "move_number": "4", "optimal_length": "16", "subject": "A15FXHC1CVNW31:3TS1AR6UQRM7SOIBWPBN8N9589Y7FV"}
{"meta_move": "drag_end", "rt": "568.0", "trial_number": "2", "pre_actions": "1", "move": "3@1", "instance": "prb25861", "distance_to_goal": "NA", "progress": "NA", "move_number": "5", "optimal_length": "16", "subject": "A15FXHC1CVNW31:3TS1AR6UQRM7SOIBWPBN8N9589Y7FV"}
{"meta_move": "drag_end", "rt": "836.0", "trial_number": "2", "pre_actions": "1", "move": "0@0", "instance": "prb25861", "distance_to_goal": "NA", "progress": "NA", "move_number": "6", "optimal_length": "16", "subject": "A15FXHC1CVNW31:3TS1AR6UQRM7SOIBWPBN8N9589Y7FV"}
{"meta_move": "drag_end", "rt": "686.0", "trial_number": "2", "pre_actions": "1", "move": "r@13", "instance": "prb25861", "distance_to_goal": "NA", "progress": "NA", "move_number": "7", "optimal_length": "16", "subject": "A15FXHC1CVNW31:3TS1AR6UQRM7SOIBWPBN8N9589Y7FV"}
{"meta_move": "drag_end", "rt": "1435.0", "trial_number": "2", "pre_actions": "1", "move": "6@18", "instance": "prb25861", "distance_to_goal": "NA", "progress": "NA", "move_number": "8", "optimal_length": "16", "subject": "A15FXHC1CVNW31:3TS1AR6UQRM7SOIBWPBN8N9589Y7FV"}
{"meta_move": "drag_end", "rt": "1685.0", "trial_number": "2", "pre_actions": "1", "move": "5@15", "instance": "prb25861", "distance_to_goal": "NA", "progress": "NA", "move_number": "9", "optimal_length": "16", "subject": "A15FXHC1CVNW31:3TS1AR6UQRM7SOIBWPBN8N9589Y7FV"}
{"meta_move": "drag_end", "rt": "1176.0", "trial_number": "2", "pre_actions": "1", "move": "1@27", "instance": "prb25861", "distance_to_goal": "NA", "progress": "NA", "move_number": "10", "optimal_length": "16", "subject": "A15FXHC1CVNW31:3TS1AR6UQRM7SOIBWPBN8N9589Y7FV"}
{"meta_move": "drag_end", "rt": "1095.0", "trial_number": "2", "pre_actions": "1", "move": "2@10", "instance": "prb25861", "distance_to_goal": "NA", "progress": "NA", "move_number": "11", "optimal_length": "16", "subject": "A15FXHC1CVNW31:3TS1AR6UQRM7SOIBWPBN8N9589Y7FV"}
{"meta_move": "drag_end", "rt": "1150.0", "trial_number": "2", "pre_actions": "1", "move": "2@4", "instance": "prb25861", "distance_to_goal": "NA", "progress": "NA", "move_number": "12", "optimal_length": "16", "subject": "A15FXHC1CVNW31:3TS1AR6UQRM7SOIBWPBN8N9589Y7FV"}
{"meta_move": "drag_end", "rt": "727.0", "trial_number": "2", "pre_actions": "1", "move": "1@27", "instance": "prb25861", "distance_to_goal": "NA", "progress": "NA", "move_number": "13", "optimal_length": "16", "subject": "A15FXHC1CVNW31:3TS1AR6UQRM7SOIBWPBN8N9589Y7FV"}
{"meta_move": "drag_end", "rt": "416.0", "trial_number": "2", "pre_actions": "1", "move": "1@28", "instance": "prb25861", "distance_to_goal": "NA", "progress": "NA", "move_number": "13", "optimal_length": "16", "subject": "A15FXHC1CVNW31:3TS1AR6UQRM7SOIBWPBN8N9589Y7FV"}
{"meta_move": "drag_end", "rt": "1103.0", "trial_number": "2", "pre_actions": "1", "move": "5@21", "instance": "prb25861", "distance_to_goal": "NA", "progress": "NA", "move_number": "14", "optimal_length": "16", "subject": "A15FXHC1CVNW31:3TS1AR6UQRM7SOIBWPBN8N9589Y7FV"}
{"meta_move": "drag_end", "rt": "718.0", "trial_number": "2", "pre_actions": "1", "move": "5@27", "instance": "prb25861", "distance_to_goal": "NA", "progress": "NA", "move_number": "15", "optimal_length": "16", "subject": "A15FXHC1CVNW31:3TS1AR6UQRM7SOIBWPBN8N9589Y7FV"}
{"meta_move": "drag_end", "rt": "1236.0", "trial_number": "2", "pre_actions": "1", "move": "6@21", "instance": "prb25861", "distance_to_goal": "NA", "progress": "NA", "move_number": "16", "optimal_length": "16", "subject": "A15FXHC1CVNW31:3TS1AR6UQRM7SOIBWPBN8N9589Y7FV"}
{"meta_move": "drag_end", "rt": "1002.0", "trial_number": "2", "pre_actions": "1", "move": "0@18", "instance": "prb25861", "distance_to_goal": "NA", "progress": "NA", "move_number": "17", "optimal_length": "16", "subject": "A15FXHC1CVNW31:3TS1AR6UQRM7SOIBWPBN8N9589Y7FV"}
{"meta_move": "drag_end", "rt": "544.0", "trial_number": "2", "pre_actions": "1", "move": "r@12", "instance": "prb25861", "distance_to_goal": "NA", "progress": "NA", "move_number": "18", "optimal_length": "16", "subject": "A15FXHC1CVNW31:3TS1AR6UQRM7SOIBWPBN8N9589Y7FV"}
{"meta_move": "drag_end", "rt": "1458.0", "trial_number": "2", "pre_actions": "1", "move": "6@19", "instance": "prb25861", "distance_to_goal": "NA", "progress": "NA", "move_number": "19", "optimal_length": "16", "subject": "A15FXHC1CVNW31:3TS1AR6UQRM7SOIBWPBN8N9589Y7FV"}
{"meta_move": "drag_end", "rt": "1495.0", "trial_number": "2", "pre_actions": "1", "move": "2@10", "instance": "prb25861", "distance_to_goal": "NA", "progress": "NA", "move_number": "20", "optimal_length": "16", "subject": "A15FXHC1CVNW31:3TS1AR6UQRM7SOIBWPBN8N9589Y7FV"}
{"meta_move": "drag_end", "rt": "1532.0", "trial_number": "2", "pre_actions": "1", "move": "2@4", "instance": "prb25861", "distance_to_goal": "NA", "progress": "NA", "move_number": "21", "optimal_length": "16", "subject": "A15FXHC1CVNW31:3TS1AR6UQRM7SOIBWPBN8N9589Y7FV"}
{"meta_move": "drag_end", "rt": "1810.0", "trial_number": "2", "pre_actions": "1", "move": "6@21", "instance": "prb25861", "distance_to_goal": "NA", "progress": "NA", "move_number": "22", "optimal_length": "16", "subject": "A15FXHC1CVNW31:3TS1AR6UQRM7SOIBWPBN8N9589Y7FV"}
{"meta_move": "drag_end", "rt": "654.0", "trial_number": "2", "pre_actions": "1", "move": "4@14", "instance": "prb25861", "distance_to_goal": "NA", "progress": "NA", "move_number": "23", "optimal_length": "16", "subject": "A15FXHC1CVNW31:3TS1AR6UQRM7SOIBWPBN8N9589Y7FV"}
{"meta_move": "drag_end", "rt": "2366.0", "trial_number": "2", "pre_actions": "1", "move": "4@26", "instance": "prb25861", "distance_to_goal": "NA", "progress": "NA", "move_number": "24", "optimal_length": "16", "subject": "A15FXHC1CVNW31:3TS1AR6UQRM7SOIBWPBN8N9589Y7FV"}
{"meta_move": "drag_end", "rt": "719.0", "trial_number": "2", "pre_actions": "1", "move": "6@19", "instance": "prb25861", "distance_to_goal": "NA", "progress": "NA", "move_number": "25", "optimal_length": "16", "subject": "A15FXHC1CVNW31:3TS1AR6UQRM7SOIBWPBN8N9589Y7FV"}
{"meta_move": "drag_end", "rt": "1100.0", "trial_number": "2", "pre_actions": "1", "move": "2@10", "instance": "prb25861", "distance_to_goal": "NA", "progress": "NA", "move_number": "26", "optimal_length": "16", "subject": "A15FXHC1CVNW31:3TS1AR6UQRM7SOIBWPBN8N9589Y7FV"}
{"meta_move": "drag_end", "rt": "2083.0", "trial_number": "2", "pre_actions": "1", "move": "r@14", "instance": "prb25861", "distance_to_goal": "NA", "progress": "NA", "move_number": "27", "optimal_length": "16", "subject": "A15FXHC1CVNW31:3TS1AR6UQRM7SOIBWPBN8N9589Y7FV"}
{"meta_move": "drag_end", "rt": "699.0", "trial_number": "2", "pre_actions": "1", "move": "3@7", "instance": "prb25861", "distance_to_goal": "NA", "progress": "NA", "move_number": "28", "optimal_length": "16", "subject": "A15FXHC1CVNW31:3TS1AR6UQRM7SOIBWPBN8N9589Y7FV"}
{"meta_move": "drag_end", "rt": "1262.0", "trial_number": "2", "pre_actions": "1", "move": "2@4", "instance": "prb25861", "distance_to_goal": "NA", "progress": "NA", "move_number": "29", "optimal_length": "16", "subject": "A15FXHC1CVNW31:3TS1AR6UQRM7SOIBWPBN8N9589Y7FV"}
{"meta_move": "drag_end", "rt": "1094.0", "trial_number": "2", "pre_actions": "1", "move": "6@21", "instance": "prb25861", "distance_to_goal": "NA", "progress": "NA", "move_number": "30", "optimal_length": "16", "subject": "A15FXHC1CVNW31:3TS1AR6UQRM7SOIBWPBN8N9589Y7FV"}
{"meta_move": "drag_end", "rt": "1056.0", "trial_number": "2", "pre_actions": "1", "move": "3@25", "instance": "prb25861", "distance_to_goal": "NA", "progress": "NA", "move_number": "31", "optimal_length": "16", "subject": "A15FXHC1CVNW31:3TS1AR6UQRM7SOIBWPBN8N9589Y7FV"}
{"meta_move": "drag_end", "rt": "670.0", "trial_number": "2", "pre_actions": "1", "move": "6@19", "instance": "prb25861", "distance_to_goal": "NA", "progress": "NA", "move_number": "32", "optimal_length": "16", "subject": "A15FXHC1CVNW31:3TS1AR6UQRM7SOIBWPBN8N9589Y7FV"}
{"meta_move": "drag_end", "rt": "4697.0", "trial_number": "2", "pre_actions": "1", "move": "6@21", "instance": "prb25861", "distance_to_goal": "NA", "progress": "NA", "move_number": "33", "optimal_length": "16", "subject": "A15FXHC1CVNW31:3TS1AR6UQRM7SOIBWPBN8N9589Y7FV"}
{"meta_move": "drag_end", "rt": "2499.0", "trial_number": "2", "pre_actions": "1", "move": "7@6", "instance": "prb25861", "distance_to_goal": "NA", "progress": "NA", "move_number": "34", "optimal_length": "16", "subject": "A15FXHC1CVNW31:3TS1AR6UQRM7SOIBWPBN8N9589Y7FV"}
{"meta_move": "drag_end", "rt": "1215.0", "trial_number": "2", "pre_actions": "1", "move": "6@19", "instance": "prb25861", "distance_to_goal": "NA", "progress": "NA", "move_number": "35", "optimal_length": "16", "subject": "A15FXHC1CVNW31:3TS1AR6UQRM7SOIBWPBN8N9589Y7FV"}
{"meta_move": "drag_end", "rt": "1079.0", "trial_number": "2", "pre_actions": "1", "move": "1@28", "instance": "prb25861", "distance_to_goal": "NA", "progress": "NA", "move_number": "36", "optimal_length": "16", "subject": "A15FXHC1CVNW31:3TS1AR6UQRM7SOIBWPBN8N9589Y7FV"}
{"meta_move": "drag_end", "rt": "788.0", "trial_number": "2", "pre_actions": "1", "move": "2@10", "instance": "prb25861", "distance_to_goal": "NA", "progress": "NA", "move_number": "36", "optimal_length": "16", "subject": "A15FXHC1CVNW31:3TS1AR6UQRM7SOIBWPBN8N9589Y7FV"}
{"meta_move": "drag_end", "rt": "1472.0", "trial_number": "2", "pre_actions": "1", "move": "r@12", "instance": "prb25861", "distance_to_goal": "NA", "progress": "NA", "move_number": "37", "optimal_length": "16", "subject": "A15FXHC1CVNW31:3TS1AR6UQRM7SOIBWPBN8N9589Y7FV"}
{"meta_move": "drag_end", "rt": "1279.0", "trial_number": "2", "pre_actions": "1", "move": "2@4", "instance": "prb25861", "distance_to_goal": "NA", "progress": "NA", "move_number": "38", "optimal_length": "16", "subject": "A15FXHC1CVNW31:3TS1AR6UQRM7SOIBWPBN8N9589Y7FV"}
{"meta_move": "drag_end", "rt": "551.0", "trial_number": "2", "pre_actions": "1", "move": "6@21", "instance": "prb25861", "distance_to_goal": "NA", "progress": "NA", "move_number": "39", "optimal_length": "16", "subject": "A15FXHC1CVNW31:3TS1AR6UQRM7SOIBWPBN8N9589Y7FV"}
{"meta_move": "drag_end", "rt": "1126.0", "trial_number": "2", "pre_actions": "1", "move": "4@2", "instance": "prb25861", "distance_to_goal": "NA", "progress": "NA", "move_number": "40", "optimal_length": "16", "subject": "A15FXHC1CVNW31:3TS1AR6UQRM7SOIBWPBN8N9589Y7FV"}
{"meta_move": "drag_end", "rt": "1064.0", "trial_number": "2", "pre_actions": "1", "move": "6@19", "instance": "prb25861", "distance_to_goal": "NA", "progress": "NA", "move_number": "41", "optimal_length": "16", "subject": "A15FXHC1CVNW31:3TS1AR6UQRM7SOIBWPBN8N9589Y7FV"}
{"meta_move": "drag_end", "rt": "4862.0", "trial_number": "2", "pre_actions": "1", "move": "6@21", "instance": "prb25861", "distance_to_goal": "NA", "progress": "NA", "move_number": "42", "optimal_length": "16", "subject": "A15FXHC1CVNW31:3TS1AR6UQRM7SOIBWPBN8N9589Y7FV"}
{"meta_move": "drag_end", "rt": "1071.0", "trial_number": "2", "pre_actions": "1", "move": "3@19", "instance": "prb25861", "distance_to_goal": "NA", "progress": "NA", "move_number": "43", "optimal_length": "16", "subject": "A15FXHC1CVNW31:3TS1AR6UQRM7SOIBWPBN8N9589Y7FV"}
{"meta_move": "drag_end", "rt": "1435.0", "trial_number": "2", "pre_actions": "1", "move": "6@21", "instance": "prb25861", "distance_to_goal": "NA", "progress": "NA", "move_number": "44", "optimal_length": "16", "subject": "A15FXHC1CVNW31:3TS1AR6UQRM7SOIBWPBN8N9589Y7FV"}
{"meta_move": "drag_end", "rt": "717.0", "trial_number": "2", "pre_actions": "1", "move": "3@25", "instance": "prb25861", "distance_to_goal": "NA", "progress": "NA", "move_number": "44", "optimal_length": "16", "subject": "A15FXHC1CVNW31:3TS1AR6UQRM7SOIBWPBN8N9589Y7FV"}
{"meta_move": "drag_end", "rt": "4493.0", "trial_number": "2", "pre_actions": "1", "move": "6@19", "instance": "prb25861", "distance_to_goal": "NA", "progress": "NA", "move_number": "45", "optimal_length": "16", "subject": "A15FXHC1CVNW31:3TS1AR6UQRM7SOIBWPBN8N9589Y7FV"}
{"meta_move": "drag_end", "rt": "2109.0", "trial_number": "2", "pre_actions": "1", "move": "6@21", "instance": "prb25861", "distance_to_goal": "NA", "progress": "NA", "move_number": "46", "optimal_length": "16", "subject": "A15FXHC1CVNW31:3TS1AR6UQRM7SOIBWPBN8N9589Y7FV"}
{"meta_move": "drag_end", "rt": "3951.0", "trial_number": "2", "pre_actions": "1", "move": "4@14", "instance": "prb25861", "distance_to_goal": "NA", "progress": "NA", "move_number": "47", "optimal_length": "16", "subject": "A15FXHC1CVNW31:3TS1AR6UQRM7SOIBWPBN8N9589Y7FV"}
{"meta_move": "drag_end", "rt": "552.0", "trial_number": "2", "pre_actions": "1", "move": "7@8", "instance": "prb25861", "distance_to_goal": "NA", "progress": "NA", "move_number": "48", "optimal_length": "16", "subject": "A15FXHC1CVNW31:3TS1AR6UQRM7SOIBWPBN8N9589Y7FV"}
{"meta_move": "drag_end", "rt": "1008.0", "trial_number": "2", "pre_actions": "1", "move": "4@20", "instance": "prb25861", "distance_to_goal": "NA", "progress": "NA", "move_number": "49", "optimal_length": "16", "subject": "A15FXHC1CVNW31:3TS1AR6UQRM7SOIBWPBN8N9589Y7FV"}
{"meta_move": "drag_end", "rt": "569.0", "trial_number": "2", "pre_actions": "1", "move": "r@14", "instance": "prb25861", "distance_to_goal": "NA", "progress": "NA", "move_number": "50", "optimal_length": "16", "subject": "A15FXHC1CVNW31:3TS1AR6UQRM7SOIBWPBN8N9589Y7FV"}
{"meta_move": "drag_end", "rt": "858.0", "trial_number": "2", "pre_actions": "1", "move": "0@0", "instance": "prb25861", "distance_to_goal": "NA", "progress": "NA", "move_number": "51", "optimal_length": "16", "subject": "A15FXHC1CVNW31:3TS1AR6UQRM7SOIBWPBN8N9589Y7FV"}
{"meta_move": "drag_end", "rt": "1228.0", "trial_number": "2", "pre_actions": "1", "move": "3@1", "instance": "prb25861", "distance_to_goal": "NA", "progress": "NA", "move_number": "52", "optimal_length": "16", "subject": "A15FXHC1CVNW31:3TS1AR6UQRM7SOIBWPBN8N9589Y7FV"}
{"meta_move": "drag_end", "rt": "877.0", "trial_number": "2", "pre_actions": "1", "move": "0@18", "instance": "prb25861", "distance_to_goal": "NA", "progress": "NA", "move_number": "53", "optimal_length": "16", "subject": "A15FXHC1CVNW31:3TS1AR6UQRM7SOIBWPBN8N9589Y7FV"}
{"meta_move": "drag_end", "rt": "1251.0", "trial_number": "2", "pre_actions": "1", "move": "r@12", "instance": "prb25861", "distance_to_goal": "NA", "progress": "NA", "move_number": "54", "optimal_length": "16", "subject": "A15FXHC1CVNW31:3TS1AR6UQRM7SOIBWPBN8N9589Y7FV"}
{"meta_move": "drag_end", "rt": "1222.0", "trial_number": "2", "pre_actions": "1", "move": "4@14", "instance": "prb25861", "distance_to_goal": "NA", "progress": "NA", "move_number": "55", "optimal_length": "16", "subject": "A15FXHC1CVNW31:3TS1AR6UQRM7SOIBWPBN8N9589Y7FV"}
{"meta_move": "drag_end", "rt": "1624.0", "trial_number": "2", "pre_actions": "1", "move": "6@21", "instance": "prb25861", "distance_to_goal": "NA", "progress": "NA", "move_number": "56", "optimal_length": "16", "subject": "A15FXHC1CVNW31:3TS1AR6UQRM7SOIBWPBN8N9589Y7FV"}
{"meta_move": "drag_end", "rt": "797.0", "trial_number": "2", "pre_actions": "1", "move": "4@26", "instance": "prb25861", "distance_to_goal": "NA", "progress": "NA", "move_number": "56", "optimal_length": "16", "subject": "A15FXHC1CVNW31:3TS1AR6UQRM7SOIBWPBN8N9589Y7FV"}
{"meta_move": "drag_end", "rt": "1126.0", "trial_number": "2", "pre_actions": "1", "move": "6@19", "instance": "prb25861", "distance_to_goal": "NA", "progress": "NA", "move_number": "57", "optimal_length": "16", "subject": "A15FXHC1CVNW31:3TS1AR6UQRM7SOIBWPBN8N9589Y7FV"}
{"meta_move": "drag_end", "rt": "2185.0", "trial_number": "2", "pre_actions": "1", "move": "6@21", "instance": "prb25861", "distance_to_goal": "NA", "progress": "NA", "move_number": "58", "optimal_length": "16", "subject": "A15FXHC1CVNW31:3TS1AR6UQRM7SOIBWPBN8N9589Y7FV"}
{"meta_move": "drag_end", "rt": "935.0", "trial_number": "2", "pre_actions": "1", "move": "4@26", "instance": "prb25861", "distance_to_goal": "NA", "progress": "NA", "move_number": "59", "optimal_length": "16", "subject": "A15FXHC1CVNW31:3TS1AR6UQRM7SOIBWPBN8N9589Y7FV"}
{"meta_move": "drag_end", "rt": "1056.0", "trial_number": "2", "pre_actions": "1", "move": "r@14", "instance": "prb25861", "distance_to_goal": "NA", "progress": "NA", "move_number": "59", "optimal_length": "16", "subject": "A15FXHC1CVNW31:3TS1AR6UQRM7SOIBWPBN8N9589Y7FV"}
{"meta_move": "drag_end", "rt": "954.0", "trial_number": "2", "pre_actions": "1", "move": "3@13", "instance": "prb25861", "distance_to_goal": "NA", "progress": "NA", "move_number": "60", "optimal_length": "16", "subject": "A15FXHC1CVNW31:3TS1AR6UQRM7SOIBWPBN8N9589Y7FV"}
{"meta_move": "drag_end", "rt": "638.0", "trial_number": "2", "pre_actions": "1", "move": "7@6", "instance": "prb25861", "distance_to_goal": "NA", "progress": "NA", "move_number": "61", "optimal_length": "16", "subject": "A15FXHC1CVNW31:3TS1AR6UQRM7SOIBWPBN8N9589Y7FV"}
{"meta_move": "drag_end", "rt": "2939.0", "trial_number": "2", "pre_actions": "1", "move": "4@26", "instance": "prb25861", "distance_to_goal": "NA", "progress": "NA", "move_number": "62", "optimal_length": "16", "subject": "A15FXHC1CVNW31:3TS1AR6UQRM7SOIBWPBN8N9589Y7FV"}
{"meta_move": "drag_end", "rt": "625.0", "trial_number": "2", "pre_actions": "1", "move": "3@25", "instance": "prb25861", "distance_to_goal": "NA", "progress": "NA", "move_number": "62", "optimal_length": "16", "subject": "A15FXHC1CVNW31:3TS1AR6UQRM7SOIBWPBN8N9589Y7FV"}
{"meta_move": "drag_end", "rt": "1093.0", "trial_number": "2", "pre_actions": "1", "move": "6@19", "instance": "prb25861", "distance_to_goal": "NA", "progress": "NA", "move_number": "63", "optimal_length": "16", "subject": "A15FXHC1CVNW31:3TS1AR6UQRM7SOIBWPBN8N9589Y7FV"}
{"meta_move": "drag_end", "rt": "655.0", "trial_number": "2", "pre_actions": "1", "move": "r@12", "instance": "prb25861", "distance_to_goal": "NA", "progress": "NA", "move_number": "64", "optimal_length": "16", "subject": "A15FXHC1CVNW31:3TS1AR6UQRM7SOIBWPBN8N9589Y7FV"}
{"meta_move": "drag_end", "rt": "796.0", "trial_number": "2", "pre_actions": "1", "move": "6@21", "instance": "prb25861", "distance_to_goal": "NA", "progress": "NA", "move_number": "65", "optimal_length": "16", "subject": "A15FXHC1CVNW31:3TS1AR6UQRM7SOIBWPBN8N9589Y7FV"}
{"meta_move": "drag_end", "rt": "876.0", "trial_number": "2", "pre_actions": "1", "move": "4@2", "instance": "prb25861", "distance_to_goal": "NA", "progress": "NA", "move_number": "66", "optimal_length": "16", "subject": "A15FXHC1CVNW31:3TS1AR6UQRM7SOIBWPBN8N9589Y7FV"}
{"meta_move": "drag_end", "rt": "724.0", "trial_number": "2", "pre_actions": "1", "move": "r@14", "instance": "prb25861", "distance_to_goal": "NA", "progress": "NA", "move_number": "67", "optimal_length": "16", "subject": "A15FXHC1CVNW31:3TS1AR6UQRM7SOIBWPBN8N9589Y7FV"}
{"meta_move": "drag_end", "rt": "835.0", "trial_number": "2", "pre_actions": "1", "move": "6@19", "instance": "prb25861", "distance_to_goal": "NA", "progress": "NA", "move_number": "68", "optimal_length": "16", "subject": "A15FXHC1CVNW31:3TS1AR6UQRM7SOIBWPBN8N9589Y7FV"}
{"meta_move": "drag_end", "rt": "3775.0", "trial_number": "2", "pre_actions": "1", "move": "r@12", "instance": "prb25861", "distance_to_goal": "NA", "progress": "NA", "move_number": "69", "optimal_length": "16", "subject": "A15FXHC1CVNW31:3TS1AR6UQRM7SOIBWPBN8N9589Y7FV"}
{"meta_move": "drag_end", "rt": "1294.0", "trial_number": "2", "pre_actions": "1", "move": "4@8", "instance": "prb25861", "distance_to_goal": "NA", "progress": "NA", "move_number": "70", "optimal_length": "16", "subject": "A15FXHC1CVNW31:3TS1AR6UQRM7SOIBWPBN8N9589Y7FV"}
{"meta_move": "drag_end", "rt": "654.0", "trial_number": "2", "pre_actions": "1", "move": "6@21", "instance": "prb25861", "distance_to_goal": "NA", "progress": "NA", "move_number": "71", "optimal_length": "16", "subject": "A15FXHC1CVNW31:3TS1AR6UQRM7SOIBWPBN8N9589Y7FV"}
{"meta_move": "drag_end", "rt": "1671.0", "trial_number": "2", "pre_actions": "1", "move": "3@19", "instance": "prb25861", "distance_to_goal": "NA", "progress": "NA", "move_number": "72", "optimal_length": "16", "subject": "A15FXHC1CVNW31:3TS1AR6UQRM7SOIBWPBN8N9589Y7FV"}
{"meta_move": "drag_end", "rt": "851.0", "trial_number": "2", "pre_actions": "1", "move": "4@2", "instance": "prb25861", "distance_to_goal": "NA", "progress": "NA", "move_number": "73", "optimal_length": "16", "subject": "A15FXHC1CVNW31:3TS1AR6UQRM7SOIBWPBN8N9589Y7FV"}
{"meta_move": "drag_end", "rt": "1477.0", "trial_number": "2", "pre_actions": "1", "move": "r@14", "instance": "prb25861", "distance_to_goal": "NA", "progress": "NA", "move_number": "74", "optimal_length": "16", "subject": "A15FXHC1CVNW31:3TS1AR6UQRM7SOIBWPBN8N9589Y7FV"}
{"meta_move": "drag_end", "rt": "2519.0", "trial_number": "2", "pre_actions": "1", "move": "3@25", "instance": "prb25861", "distance_to_goal": "NA", "progress": "NA", "move_number": "75", "optimal_length": "16", "subject": "A15FXHC1CVNW31:3TS1AR6UQRM7SOIBWPBN8N9589Y7FV"}
{"meta_move": "drag_end", "rt": "968.0", "trial_number": "2", "pre_actions": "1", "move": "r@12", "instance": "prb25861", "distance_to_goal": "NA", "progress": "NA", "move_number": "76", "optimal_length": "16", "subject": "A15FXHC1CVNW31:3TS1AR6UQRM7SOIBWPBN8N9589Y7FV"}
{"meta_move": "drag_end", "rt": "1103.0", "trial_number": "2", "pre_actions": "1", "move": "4@26", "instance": "prb25861", "distance_to_goal": "NA", "progress": "NA", "move_number": "77", "optimal_length": "16", "subject": "A15FXHC1CVNW31:3TS1AR6UQRM7SOIBWPBN8N9589Y7FV"}
{"meta_move": "drag_end", "rt": "789.0", "trial_number": "2", "pre_actions": "1", "move": "6@19", "instance": "prb25861", "distance_to_goal": "NA", "progress": "NA", "move_number": "78", "optimal_length": "16", "subject": "A15FXHC1CVNW31:3TS1AR6UQRM7SOIBWPBN8N9589Y7FV"}
{"meta_move": "drag_end", "rt": "2355.0", "trial_number": "2", "pre_actions": "1", "move": "6@21", "instance": "prb25861", "distance_to_goal": "NA", "progress": "NA", "move_number": "79", "optimal_length": "16", "subject": "A15FXHC1CVNW31:3TS1AR6UQRM7SOIBWPBN8N9589Y7FV"}
{"meta_move": "drag_end", "rt": "2113.0", "trial_number": "2", "pre_actions": "1", "move": "4@2", "instance": "prb25861", "distance_to_goal": "NA", "progress": "NA", "move_number": "80", "optimal_length": "16", "subject": "A15FXHC1CVNW31:3TS1AR6UQRM7SOIBWPBN8N9589Y7FV"}
{"meta_move": "drag_end", "rt": "3327.0", "trial_number": "2", "pre_actions": "1", "move": "4@26", "instance": "prb25861", "distance_to_goal": "NA", "progress": "NA", "move_number": "81", "optimal_length": "16", "subject": "A15FXHC1CVNW31:3TS1AR6UQRM7SOIBWPBN8N9589Y7FV"}
{"meta_move": "drag_end", "rt": "890.0", "trial_number": "2", "pre_actions": "1", "move": "7@8", "instance": "prb25861", "distance_to_goal": "NA", "progress": "NA", "move_number": "82", "optimal_length": "16", "subject": "A15FXHC1CVNW31:3TS1AR6UQRM7SOIBWPBN8N9589Y7FV"}
{"meta_move": "drag_end", "rt": "710.0", "trial_number": "2", "pre_actions": "1", "move": "r@14", "instance": "prb25861", "distance_to_goal": "NA", "progress": "NA", "move_number": "83", "optimal_length": "16", "subject": "A15FXHC1CVNW31:3TS1AR6UQRM7SOIBWPBN8N9589Y7FV"}
{"meta_move": "drag_end", "rt": "826.0", "trial_number": "2", "pre_actions": "1", "move": "0@0", "instance": "prb25861", "distance_to_goal": "NA", "progress": "NA", "move_number": "84", "optimal_length": "16", "subject": "A15FXHC1CVNW31:3TS1AR6UQRM7SOIBWPBN8N9589Y7FV"}
{"meta_move": "drag_end", "rt": "757.0", "trial_number": "2", "pre_actions": "1", "move": "r@13", "instance": "prb25861", "distance_to_goal": "NA", "progress": "NA", "move_number": "85", "optimal_length": "16", "subject": "A15FXHC1CVNW31:3TS1AR6UQRM7SOIBWPBN8N9589Y7FV"}
{"meta_move": "drag_end", "rt": "2120.0", "trial_number": "2", "pre_actions": "1", "move": "7@7", "instance": "prb25861", "distance_to_goal": "NA", "progress": "NA", "move_number": "86", "optimal_length": "16", "subject": "A15FXHC1CVNW31:3TS1AR6UQRM7SOIBWPBN8N9589Y7FV"}
{"meta_move": "drag_end", "rt": "1378.0", "trial_number": "2", "pre_actions": "1", "move": "6@18", "instance": "prb25861", "distance_to_goal": "NA", "progress": "NA", "move_number": "87", "optimal_length": "16", "subject": "A15FXHC1CVNW31:3TS1AR6UQRM7SOIBWPBN8N9589Y7FV"}
{"meta_move": "drag_end", "rt": "1592.0", "trial_number": "2", "pre_actions": "1", "move": "5@3", "instance": "prb25861", "distance_to_goal": "NA", "progress": "NA", "move_number": "88", "optimal_length": "16", "subject": "A15FXHC1CVNW31:3TS1AR6UQRM7SOIBWPBN8N9589Y7FV"}
{"meta_move": "drag_end", "rt": "1875.0", "trial_number": "2", "pre_actions": "1", "move": "1@27", "instance": "prb25861", "distance_to_goal": "NA", "progress": "NA", "move_number": "89", "optimal_length": "16", "subject": "A15FXHC1CVNW31:3TS1AR6UQRM7SOIBWPBN8N9589Y7FV"}
{"meta_move": "drag_end", "rt": "884.0", "trial_number": "2", "pre_actions": "1", "move": "1@28", "instance": "prb25861", "distance_to_goal": "NA", "progress": "NA", "move_number": "90", "optimal_length": "16", "subject": "A15FXHC1CVNW31:3TS1AR6UQRM7SOIBWPBN8N9589Y7FV"}
{"meta_move": "drag_end", "rt": "852.0", "trial_number": "2", "pre_actions": "1", "move": "6@21", "instance": "prb25861", "distance_to_goal": "NA", "progress": "NA", "move_number": "91", "optimal_length": "16", "subject": "A15FXHC1CVNW31:3TS1AR6UQRM7SOIBWPBN8N9589Y7FV"}
{"meta_move": "drag_end", "rt": "3128.0", "trial_number": "2", "pre_actions": "1", "move": "0@18", "instance": "prb25861", "distance_to_goal": "NA", "progress": "NA", "move_number": "92", "optimal_length": "16", "subject": "A15FXHC1CVNW31:3TS1AR6UQRM7SOIBWPBN8N9589Y7FV"}
{"meta_move": "drag_end", "rt": "1259.0", "trial_number": "2", "pre_actions": "1", "move": "7@6", "instance": "prb25861", "distance_to_goal": "NA", "progress": "NA", "move_number": "93", "optimal_length": "16", "subject": "A15FXHC1CVNW31:3TS1AR6UQRM7SOIBWPBN8N9589Y7FV"}
{"meta_move": "drag_end", "rt": "419.0", "trial_number": "2", "pre_actions": "1", "move": "r@12", "instance": "prb25861", "distance_to_goal": "NA", "progress": "NA", "move_number": "94", "optimal_length": "16", "subject": "A15FXHC1CVNW31:3TS1AR6UQRM7SOIBWPBN8N9589Y7FV"}
{"meta_move": "drag_end", "rt": "803.0", "trial_number": "2", "pre_actions": "1", "move": "4@2", "instance": "prb25861", "distance_to_goal": "NA", "progress": "NA", "move_number": "95", "optimal_length": "16", "subject": "A15FXHC1CVNW31:3TS1AR6UQRM7SOIBWPBN8N9589Y7FV"}
{"meta_move": "drag_end", "rt": "740.0", "trial_number": "2", "pre_actions": "1", "move": "6@19", "instance": "prb25861", "distance_to_goal": "NA", "progress": "NA", "move_number": "96", "optimal_length": "16", "subject": "A15FXHC1CVNW31:3TS1AR6UQRM7SOIBWPBN8N9589Y7FV"}
{"meta_move": "drag_end", "rt": "1032.0", "trial_number": "2", "pre_actions": "1", "move": "1@26", "instance": "prb25861", "distance_to_goal": "NA", "progress": "NA", "move_number": "97", "optimal_length": "16", "subject": "A15FXHC1CVNW31:3TS1AR6UQRM7SOIBWPBN8N9589Y7FV"}
{"meta_move": "drag_end", "rt": "821.0", "trial_number": "2", "pre_actions": "1", "move": "2@22", "instance": "prb25861", "distance_to_goal": "NA", "progress": "NA", "move_number": "98", "optimal_length": "16", "subject": "A15FXHC1CVNW31:3TS1AR6UQRM7SOIBWPBN8N9589Y7FV"}
{"meta_move": "win", "rt": "669.0", "trial_number": "2", "pre_actions": "1", "move": "r@12", "instance": "prb25861", "distance_to_goal": "1", "progress": "NA", "move_number": "99", "optimal_length": "16", "subject": "A15FXHC1CVNW31:3TS1AR6UQRM7SOIBWPBN8N9589Y7FV"}
{"meta_move": "drag_end", "rt": "198.0", "trial_number": "0", "pre_actions": "0", "move": "r@16", "instance": "prb25861", "distance_to_goal": "NA", "progress": "NA", "move_number": "99", "optimal_length": "16", "subject": "A15FXHC1CVNW31:3TS1AR6UQRM7SOIBWPBN8N9589Y7FV"}
{"meta_move": "drag_end", "rt": "3195.0", "trial_number": "1", "pre_actions": "1", "move": "0@0", "instance": "prb25861", "distance_to_goal": "NA", "progress": "NA", "move_number": "0", "optimal_length": "16", "subject": "A18QU0YQB6Q8DF:3VE8AYVF8N5BS2NU6U3TMN50JMNF8V"}
{"meta_move": "drag_end", "rt": "1128.0", "trial_number": "1", "pre_actions": "1", "move": "3@25", "instance": "prb25861", "distance_to_goal": "NA", "progress": "NA", "move_number": "1", "optimal_length": "16", "subject": "A18QU0YQB6Q8DF:3VE8AYVF8N5BS2NU6U3TMN50JMNF8V"}
{"meta_move": "drag_end", "rt": "1314.0", "trial_number": "1", "pre_actions": "1", "move": "4@26", "instance": "prb25861", "distance_to_goal": "NA", "progress": "NA", "move_number": "2", "optimal_length": "16", "subject": "A18QU0YQB6Q8DF:3VE8AYVF8N5BS2NU6U3TMN50JMNF8V"}
{"meta_move": "drag_end", "rt": "1805.0", "trial_number": "1", "pre_actions": "1", "move": "6@18", "instance": "prb25861", "distance_to_goal": "NA", "progress": "NA", "move_number": "3", "optimal_length": "16", "subject": "A18QU0YQB6Q8DF:3VE8AYVF8N5BS2NU6U3TMN50JMNF8V"}
{"meta_move": "drag_end", "rt": "3812.0", "trial_number": "1", "pre_actions": "1", "move": "5@27", "instance": "prb25861", "distance_to_goal": "NA", "progress": "NA", "move_number": "4", "optimal_length": "16", "subject": "A18QU0YQB6Q8DF:3VE8AYVF8N5BS2NU6U3TMN50JMNF8V"}
{"meta_move": "drag_end", "rt": "909.0", "trial_number": "1", "pre_actions": "1", "move": "6@21", "instance": "prb25861", "distance_to_goal": "NA", "progress": "NA", "move_number": "4", "optimal_length": "16", "subject": "A18QU0YQB6Q8DF:3VE8AYVF8N5BS2NU6U3TMN50JMNF8V"}
{"meta_move": "drag_end", "rt": "1075.0", "trial_number": "1", "pre_actions": "1", "move": "3@19", "instance": "prb25861", "distance_to_goal": "NA", "progress": "NA", "move_number": "5", "optimal_length": "16", "subject": "A18QU0YQB6Q8DF:3VE8AYVF8N5BS2NU6U3TMN50JMNF8V"}
{"meta_move": "drag_end", "rt": "824.0", "trial_number": "1", "pre_actions": "1", "move": "4@20", "instance": "prb25861", "distance_to_goal": "NA", "progress": "NA", "move_number": "6", "optimal_length": "16", "subject": "A18QU0YQB6Q8DF:3VE8AYVF8N5BS2NU6U3TMN50JMNF8V"}
{"meta_move": "drag_end", "rt": "576.0", "trial_number": "1", "pre_actions": "1", "move": "4@26", "instance": "prb25861", "distance_to_goal": "NA", "progress": "NA", "move_number": "7", "optimal_length": "16", "subject": "A18QU0YQB6Q8DF:3VE8AYVF8N5BS2NU6U3TMN50JMNF8V"}
{"meta_move": "drag_end", "rt": "793.0", "trial_number": "1", "pre_actions": "1", "move": "3@25", "instance": "prb25861", "distance_to_goal": "NA", "progress": "NA", "move_number": "8", "optimal_length": "16", "subject": "A18QU0YQB6Q8DF:3VE8AYVF8N5BS2NU6U3TMN50JMNF8V"}
{"meta_move": "drag_end", "rt": "4254.0", "trial_number": "1", "pre_actions": "1", "move": "6@18", "instance": "prb25861", "distance_to_goal": "NA", "progress": "NA", "move_number": "9", "optimal_length": "16", "subject": "A18QU0YQB6Q8DF:3VE8AYVF8N5BS2NU6U3TMN50JMNF8V"}
{"meta_move": "drag_end", "rt": "2148.0", "trial_number": "1", "pre_actions": "1", "move": "1@28", "instance": "prb25861", "distance_to_goal": "NA", "progress": "NA", "move_number": "10", "optimal_length": "16", "subject": "A18QU0YQB6Q8DF:3VE8AYVF8N5BS2NU6U3TMN50JMNF8V"}
{"meta_move": "drag_end", "rt": "956.0", "trial_number": "1", "pre_actions": "1", "move": "5@21", "instance": "prb25861", "distance_to_goal": "NA", "progress": "NA", "move_number": "10", "optimal_length": "16", "subject": "A18QU0YQB6Q8DF:3VE8AYVF8N5BS2NU6U3TMN50JMNF8V"}
{"meta_move": "drag_end", "rt": "675.0", "trial_number": "1", "pre_actions": "1", "move": "5@27", "instance": "prb25861", "distance_to_goal": "NA", "progress": "NA", "move_number": "11", "optimal_length": "16", "subject": "A18QU0YQB6Q8DF:3VE8AYVF8N5BS2NU6U3TMN50JMNF8V"}
{"meta_move": "drag_end", "rt": "1362.0", "trial_number": "1", "pre_actions": "1", "move": "2@10", "instance": "prb25861", "distance_to_goal": "NA", "progress": "NA", "move_number": "12", "optimal_length": "16", "subject": "A18QU0YQB6Q8DF:3VE8AYVF8N5BS2NU6U3TMN50JMNF8V"}
{"meta_move": "drag_end", "rt": "2650.0", "trial_number": "1", "pre_actions": "1", "move": "7@8", "instance": "prb25861", "distance_to_goal": "NA", "progress": "NA", "move_number": "0", "optimal_length": "16", "subject": "A191V7PT3DQKDP:3PMBY0YE28B43VMUKKJ6EDF85RV9C8"}
{"meta_move": "drag_end", "rt": "1086.0", "trial_number": "1", "pre_actions": "1", "move": "3@1", "instance": "prb25861", "distance_to_goal": "NA", "progress": "NA", "move_number": "1", "optimal_length": "16", "subject": "A191V7PT3DQKDP:3PMBY0YE28B43VMUKKJ6EDF85RV9C8"}
{"meta_move": "drag_end", "rt": "1113.0", "trial_number": "1", "pre_actions": "1", "move": "4@26", "instance": "prb25861", "distance_to_goal": "NA", "progress": "NA", "move_number": "2", "optimal_length": "16", "subject": "A191V7PT3DQKDP:3PMBY0YE28B43VMUKKJ6EDF85RV9C8"}
{"meta_move": "drag_end", "rt": "2015.0", "trial_number": "1", "pre_actions": "1", "move": "6@21", "instance": "prb25861", "distance_to_goal": "NA", "progress": "NA", "move_number": "3", "optimal_length": "16", "subject": "A191V7PT3DQKDP:3PMBY0YE28B43VMUKKJ6EDF85RV9C8"}
{"meta_move": "drag_end", "rt": "2144.0", "trial_number": "1", "pre_actions": "1", "move": "4@20", "instance": "prb25861", "distance_to_goal": "NA", "progress": "NA", "move_number": "3", "optimal_length": "16", "subject": "A191V7PT3DQKDP:3PMBY0YE28B43VMUKKJ6EDF85RV9C8"}
{"meta_move": "drag_end", "rt": "1264.0", "trial_number": "1", "pre_actions": "1", "move": "0@18", "instance": "prb25861", "distance_to_goal": "NA", "progress": "NA", "move_number": "4", "optimal_length": "16", "subject": "A191V7PT3DQKDP:3PMBY0YE28B43VMUKKJ6EDF85RV9C8"}
{"meta_move": "drag_end", "rt": "825.0", "trial_number": "1", "pre_actions": "1", "move": "r@12", "instance": "prb25861", "distance_to_goal": "NA", "progress": "NA", "move_number": "5", "optimal_length": "16", "subject": "A191V7PT3DQKDP:3PMBY0YE28B43VMUKKJ6EDF85RV9C8"}
{"meta_move": "drag_end", "rt": "1513.0", "trial_number": "1", "pre_actions": "1", "move": "r@14", "instance": "prb25861", "distance_to_goal": "NA", "progress": "NA", "move_number": "6", "optimal_length": "16", "subject": "A191V7PT3DQKDP:3PMBY0YE28B43VMUKKJ6EDF85RV9C8"}
{"meta_move": "drag_end", "rt": "783.0", "trial_number": "1", "pre_actions": "1", "move": "3@25", "instance": "prb25861", "distance_to_goal": "NA", "progress": "NA", "move_number": "7", "optimal_length": "16", "subject": "A191V7PT3DQKDP:3PMBY0YE28B43VMUKKJ6EDF85RV9C8"}
{"meta_move": "drag_end", "rt": "1399.0", "trial_number": "1", "pre_actions": "1", "move": "7@6", "instance": "prb25861", "distance_to_goal": "NA", "progress": "NA", "move_number": "8", "optimal_length": "16", "subject": "A191V7PT3DQKDP:3PMBY0YE28B43VMUKKJ6EDF85RV9C8"}
{"meta_move": "drag_end", "rt": "809.0", "trial_number": "1", "pre_actions": "1", "move": "r@12", "instance": "prb25861", "distance_to_goal": "NA", "progress": "NA", "move_number": "9", "optimal_length": "16", "subject": "A191V7PT3DQKDP:3PMBY0YE28B43VMUKKJ6EDF85RV9C8"}
{"meta_move": "drag_end", "rt": "815.0", "trial_number": "1", "pre_actions": "1", "move": "4@2", "instance": "prb25861", "distance_to_goal": "NA", "progress": "NA", "move_number": "10", "optimal_length": "16", "subject": "A191V7PT3DQKDP:3PMBY0YE28B43VMUKKJ6EDF85RV9C8"}
{"meta_move": "drag_end", "rt": "1360.0", "trial_number": "1", "pre_actions": "1", "move": "6@19", "instance": "prb25861", "distance_to_goal": "NA", "progress": "NA", "move_number": "11", "optimal_length": "16", "subject": "A191V7PT3DQKDP:3PMBY0YE28B43VMUKKJ6EDF85RV9C8"}
{"meta_move": "drag_end", "rt": "4720.0", "trial_number": "1", "pre_actions": "1", "move": "6@19", "instance": "prb25861", "distance_to_goal": "NA", "progress": "NA", "move_number": "12", "optimal_length": "16", "subject": "A191V7PT3DQKDP:3PMBY0YE28B43VMUKKJ6EDF85RV9C8"}
{"meta_move": "drag_end", "rt": "1736.0", "trial_number": "1", "pre_actions": "1", "move": "r@14", "instance": "prb25861", "distance_to_goal": "NA", "progress": "NA", "move_number": "12", "optimal_length": "16", "subject": "A191V7PT3DQKDP:3PMBY0YE28B43VMUKKJ6EDF85RV9C8"}
{"meta_move": "drag_end", "rt": "4055.0", "trial_number": "1", "pre_actions": "1", "move": "0@18", "instance": "prb25861", "distance_to_goal": "NA", "progress": "NA", "move_number": "13", "optimal_length": "16", "subject": "A191V7PT3DQKDP:3PMBY0YE28B43VMUKKJ6EDF85RV9C8"}
{"meta_move": "drag_end", "rt": "1226.0", "trial_number": "1", "pre_actions": "1", "move": "r@12", "instance": "prb25861", "distance_to_goal": "NA", "progress": "NA", "move_number": "13", "optimal_length": "16", "subject": "A191V7PT3DQKDP:3PMBY0YE28B43VMUKKJ6EDF85RV9C8"}
{"meta_move": "drag_end", "rt": "934.0", "trial_number": "1", "pre_actions": "1", "move": "4@8", "instance": "prb25861", "distance_to_goal": "NA", "progress": "NA", "move_number": "14", "optimal_length": "16", "subject": "A191V7PT3DQKDP:3PMBY0YE28B43VMUKKJ6EDF85RV9C8"}
{"meta_move": "drag_end", "rt": "658.0", "trial_number": "1", "pre_actions": "1", "move": "6@21", "instance": "prb25861", "distance_to_goal": "NA", "progress": "NA", "move_number": "15", "optimal_length": "16", "subject": "A191V7PT3DQKDP:3PMBY0YE28B43VMUKKJ6EDF85RV9C8"}
{"meta_move": "drag_end", "rt": "615.0", "trial_number": "1", "pre_actions": "1", "move": "4@20", "instance": "prb25861", "distance_to_goal": "NA", "progress": "NA", "move_number": "16", "optimal_length": "16", "subject": "A191V7PT3DQKDP:3PMBY0YE28B43VMUKKJ6EDF85RV9C8"}
{"meta_move": "drag_end", "rt": "1192.0", "trial_number": "1", "pre_actions": "1", "move": "7@8", "instance": "prb25861", "distance_to_goal": "NA", "progress": "NA", "move_number": "17", "optimal_length": "16", "subject": "A191V7PT3DQKDP:3PMBY0YE28B43VMUKKJ6EDF85RV9C8"}
{"meta_move": "drag_end", "rt": "816.0", "trial_number": "1", "pre_actions": "1", "move": "r@14", "instance": "prb25861", "distance_to_goal": "NA", "progress": "NA", "move_number": "18", "optimal_length": "16", "subject": "A191V7PT3DQKDP:3PMBY0YE28B43VMUKKJ6EDF85RV9C8"}
{"meta_move": "drag_end", "rt": "1031.0", "trial_number": "1", "pre_actions": "1", "move": "3@1", "instance": "prb25861", "distance_to_goal": "NA", "progress": "NA", "move_number": "19", "optimal_length": "16", "subject": "A191V7PT3DQKDP:3PMBY0YE28B43VMUKKJ6EDF85RV9C8"}
{"meta_move": "drag_end", "rt": "776.0", "trial_number": "1", "pre_actions": "1", "move": "0@0", "instance": "prb25861", "distance_to_goal": "NA", "progress": "NA", "move_number": "20", "optimal_length": "16", "subject": "A191V7PT3DQKDP:3PMBY0YE28B43VMUKKJ6EDF85RV9C8"}
{"meta_move": "drag_end", "rt": "1313.0", "trial_number": "1", "pre_actions": "1", "move": "r@13", "instance": "prb25861", "distance_to_goal": "NA", "progress": "NA", "move_number": "21", "optimal_length": "16", "subject": "A191V7PT3DQKDP:3PMBY0YE28B43VMUKKJ6EDF85RV9C8"}
{"meta_move": "drag_end", "rt": "1080.0", "trial_number": "1", "pre_actions": "1", "move": "4@26", "instance": "prb25861", "distance_to_goal": "NA", "progress": "NA", "move_number": "22", "optimal_length": "16", "subject": "A191V7PT3DQKDP:3PMBY0YE28B43VMUKKJ6EDF85RV9C8"}
{"meta_move": "drag_end", "rt": "919.0", "trial_number": "1", "pre_actions": "1", "move": "6@18", "instance": "prb25861", "distance_to_goal": "NA", "progress": "NA", "move_number": "23", "optimal_length": "16", "subject": "A191V7PT3DQKDP:3PMBY0YE28B43VMUKKJ6EDF85RV9C8"}
{"meta_move": "drag_end", "rt": "2144.0", "trial_number": "1", "pre_actions": "1", "move": "5@15", "instance": "prb25861", "distance_to_goal": "NA", "progress": "NA", "move_number": "24", "optimal_length": "16", "subject": "A191V7PT3DQKDP:3PMBY0YE28B43VMUKKJ6EDF85RV9C8"}
{"meta_move": "drag_end", "rt": "1544.0", "trial_number": "1", "pre_actions": "1", "move": "1@27", "instance": "prb25861", "distance_to_goal": "NA", "progress": "NA", "move_number": "25", "optimal_length": "16", "subject": "A191V7PT3DQKDP:3PMBY0YE28B43VMUKKJ6EDF85RV9C8"}
{"meta_move": "drag_end", "rt": "5546.0", "trial_number": "1", "pre_actions": "1", "move": "1@28", "instance": "prb25861", "distance_to_goal": "NA", "progress": "NA", "move_number": "26", "optimal_length": "16", "subject": "A191V7PT3DQKDP:3PMBY0YE28B43VMUKKJ6EDF85RV9C8"}
{"meta_move": "drag_end", "rt": "855.0", "trial_number": "1", "pre_actions": "1", "move": "5@27", "instance": "prb25861", "distance_to_goal": "NA", "progress": "NA", "move_number": "27", "optimal_length": "16", "subject": "A191V7PT3DQKDP:3PMBY0YE28B43VMUKKJ6EDF85RV9C8"}
{"meta_move": "drag_end", "rt": "1097.0", "trial_number": "1", "pre_actions": "1", "move": "r@14", "instance": "prb25861", "distance_to_goal": "NA", "progress": "NA", "move_number": "28", "optimal_length": "16", "subject": "A191V7PT3DQKDP:3PMBY0YE28B43VMUKKJ6EDF85RV9C8"}
{"meta_move": "drag_end", "rt": "1542.0", "trial_number": "1", "pre_actions": "1", "move": "3@1", "instance": "prb25861", "distance_to_goal": "NA", "progress": "NA", "move_number": "29", "optimal_length": "16", "subject": "A191V7PT3DQKDP:3PMBY0YE28B43VMUKKJ6EDF85RV9C8"}
{"meta_move": "drag_end", "rt": "2056.0", "trial_number": "1", "pre_actions": "1", "move": "6@19", "instance": "prb25861", "distance_to_goal": "NA", "progress": "NA", "move_number": "29", "optimal_length": "16", "subject": "A191V7PT3DQKDP:3PMBY0YE28B43VMUKKJ6EDF85RV9C8"}
{"meta_move": "drag_end", "rt": "2614.0", "trial_number": "1", "pre_actions": "1", "move": "0@18", "instance": "prb25861", "distance_to_goal": "NA", "progress": "NA", "move_number": "30", "optimal_length": "16", "subject": "A191V7PT3DQKDP:3PMBY0YE28B43VMUKKJ6EDF85RV9C8"}
{"meta_move": "drag_end", "rt": "2191.0", "trial_number": "1", "pre_actions": "1", "move": "6@21", "instance": "prb25861", "distance_to_goal": "NA", "progress": "NA", "move_number": "31", "optimal_length": "16", "subject": "A191V7PT3DQKDP:3PMBY0YE28B43VMUKKJ6EDF85RV9C8"}
{"meta_move": "drag_end", "rt": "4072.0", "trial_number": "1", "pre_actions": "1", "move": "r@12", "instance": "prb25861", "distance_to_goal": "NA", "progress": "NA", "move_number": "32", "optimal_length": "16", "subject": "A191V7PT3DQKDP:3PMBY0YE28B43VMUKKJ6EDF85RV9C8"}
{"meta_move": "drag_end", "rt": "9849.0", "trial_number": "1", "pre_actions": "1", "move": "6@21", "instance": "prb25861", "distance_to_goal": "NA", "progress": "NA", "move_number": "33", "optimal_length": "16", "subject": "A191V7PT3DQKDP:3PMBY0YE28B43VMUKKJ6EDF85RV9C8"}
{"meta_move": "drag_end", "rt": "2534.0", "trial_number": "1", "pre_actions": "1", "move": "4@14", "instance": "prb25861", "distance_to_goal": "NA", "progress": "NA", "move_number": "33", "optimal_length": "16", "subject": "A191V7PT3DQKDP:3PMBY0YE28B43VMUKKJ6EDF85RV9C8"}
{"meta_move": "drag_end", "rt": "1506.0", "trial_number": "1", "pre_actions": "1", "move": "4@26", "instance": "prb25861", "distance_to_goal": "NA", "progress": "NA", "move_number": "34", "optimal_length": "16", "subject": "A191V7PT3DQKDP:3PMBY0YE28B43VMUKKJ6EDF85RV9C8"}
{"meta_move": "drag_end", "rt": "791.0", "trial_number": "1", "pre_actions": "1", "move": "r@13", "instance": "prb25861", "distance_to_goal": "NA", "progress": "NA", "move_number": "35", "optimal_length": "16", "subject": "A191V7PT3DQKDP:3PMBY0YE28B43VMUKKJ6EDF85RV9C8"}
{"meta_move": "drag_end", "rt": "705.0", "trial_number": "1", "pre_actions": "1", "move": "0@0", "instance": "prb25861", "distance_to_goal": "NA", "progress": "NA", "move_number": "36", "optimal_length": "16", "subject": "A191V7PT3DQKDP:3PMBY0YE28B43VMUKKJ6EDF85RV9C8"}
{"meta_move": "drag_end", "rt": "1879.0", "trial_number": "1", "pre_actions": "1", "move": "6@18", "instance": "prb25861", "distance_to_goal": "NA", "progress": "NA", "move_number": "37", "optimal_length": "16", "subject": "A191V7PT3DQKDP:3PMBY0YE28B43VMUKKJ6EDF85RV9C8"}
{"meta_move": "drag_end", "rt": "2432.0", "trial_number": "1", "pre_actions": "1", "move": "5@27", "instance": "prb25861", "distance_to_goal": "NA", "progress": "NA", "move_number": "38", "optimal_length": "16", "subject": "A191V7PT3DQKDP:3PMBY0YE28B43VMUKKJ6EDF85RV9C8"}
{"meta_move": "drag_end", "rt": "879.0", "trial_number": "1", "pre_actions": "1", "move": "6@21", "instance": "prb25861", "distance_to_goal": "NA", "progress": "NA", "move_number": "38", "optimal_length": "16", "subject": "A191V7PT3DQKDP:3PMBY0YE28B43VMUKKJ6EDF85RV9C8"}
{"meta_move": "drag_end", "rt": "1016.0", "trial_number": "1", "pre_actions": "1", "move": "0@18", "instance": "prb25861", "distance_to_goal": "NA", "progress": "NA", "move_number": "39", "optimal_length": "16", "subject": "A191V7PT3DQKDP:3PMBY0YE28B43VMUKKJ6EDF85RV9C8"}
{"meta_move": "drag_end", "rt": "506.0", "trial_number": "1", "pre_actions": "1", "move": "r@14", "instance": "prb25861", "distance_to_goal": "NA", "progress": "NA", "move_number": "40", "optimal_length": "16", "subject": "A191V7PT3DQKDP:3PMBY0YE28B43VMUKKJ6EDF85RV9C8"}
{"meta_move": "drag_end", "rt": "950.0", "trial_number": "1", "pre_actions": "1", "move": "3@25", "instance": "prb25861", "distance_to_goal": "NA", "progress": "NA", "move_number": "41", "optimal_length": "16", "subject": "A191V7PT3DQKDP:3PMBY0YE28B43VMUKKJ6EDF85RV9C8"}
{"meta_move": "drag_end", "rt": "2032.0", "trial_number": "1", "pre_actions": "1", "move": "7@6", "instance": "prb25861", "distance_to_goal": "NA", "progress": "NA", "move_number": "42", "optimal_length": "16", "subject": "A191V7PT3DQKDP:3PMBY0YE28B43VMUKKJ6EDF85RV9C8"}
{"meta_move": "drag_end", "rt": "2009.0", "trial_number": "1", "pre_actions": "1", "move": "6@19", "instance": "prb25861", "distance_to_goal": "NA", "progress": "NA", "move_number": "43", "optimal_length": "16", "subject": "A191V7PT3DQKDP:3PMBY0YE28B43VMUKKJ6EDF85RV9C8"}
{"meta_move": "drag_end", "rt": "2751.0", "trial_number": "1", "pre_actions": "1", "move": "2@10", "instance": "prb25861", "distance_to_goal": "NA", "progress": "NA", "move_number": "44", "optimal_length": "16", "subject": "A191V7PT3DQKDP:3PMBY0YE28B43VMUKKJ6EDF85RV9C8"}
{"meta_move": "drag_end", "rt": "800.0", "trial_number": "1", "pre_actions": "1", "move": "2@4", "instance": "prb25861", "distance_to_goal": "NA", "progress": "NA", "move_number": "45", "optimal_length": "16", "subject": "A191V7PT3DQKDP:3PMBY0YE28B43VMUKKJ6EDF85RV9C8"}
{"meta_move": "drag_end", "rt": "2312.0", "trial_number": "1", "pre_actions": "1", "move": "r@12", "instance": "prb25861", "distance_to_goal": "NA", "progress": "NA", "move_number": "46", "optimal_length": "16", "subject": "A191V7PT3DQKDP:3PMBY0YE28B43VMUKKJ6EDF85RV9C8"}
{"meta_move": "drag_end", "rt": "2656.0", "trial_number": "1", "pre_actions": "1", "move": "6@21", "instance": "prb25861", "distance_to_goal": "NA", "progress": "NA", "move_number": "47", "optimal_length": "16", "subject": "A191V7PT3DQKDP:3PMBY0YE28B43VMUKKJ6EDF85RV9C8"}
{"meta_move": "drag_end", "rt": "888.0", "trial_number": "1", "pre_actions": "1", "move": "7@8", "instance": "prb25861", "distance_to_goal": "NA", "progress": "NA", "move_number": "48", "optimal_length": "16", "subject": "A191V7PT3DQKDP:3PMBY0YE28B43VMUKKJ6EDF85RV9C8"}
{"meta_move": "drag_end", "rt": "704.0", "trial_number": "1", "pre_actions": "1", "move": "r@14", "instance": "prb25861", "distance_to_goal": "NA", "progress": "NA", "move_number": "49", "optimal_length": "16", "subject": "A191V7PT3DQKDP:3PMBY0YE28B43VMUKKJ6EDF85RV9C8"}
{"meta_move": "drag_end", "rt": "1224.0", "trial_number": "1", "pre_actions": "1", "move": "7@6", "instance": "prb25861", "distance_to_goal": "NA", "progress": "NA", "move_number": "50", "optimal_length": "16", "subject": "A191V7PT3DQKDP:3PMBY0YE28B43VMUKKJ6EDF85RV9C8"}
{"meta_move": "drag_end", "rt": "688.0", "trial_number": "1", "pre_actions": "1", "move": "r@12", "instance": "prb25861", "distance_to_goal": "NA", "progress": "NA", "move_number": "51", "optimal_length": "16", "subject": "A191V7PT3DQKDP:3PMBY0YE28B43VMUKKJ6EDF85RV9C8"}
{"meta_move": "drag_end", "rt": "872.0", "trial_number": "1", "pre_actions": "1", "move": "4@2", "instance": "prb25861", "distance_to_goal": "NA", "progress": "NA", "move_number": "52", "optimal_length": "16", "subject": "A191V7PT3DQKDP:3PMBY0YE28B43VMUKKJ6EDF85RV9C8"}
{"meta_move": "drag_end", "rt": "984.0", "trial_number": "1", "pre_actions": "1", "move": "r@14", "instance": "prb25861", "distance_to_goal": "NA", "progress": "NA", "move_number": "53", "optimal_length": "16", "subject": "A191V7PT3DQKDP:3PMBY0YE28B43VMUKKJ6EDF85RV9C8"}
{"meta_move": "drag_end", "rt": "6144.0", "trial_number": "1", "pre_actions": "1", "move": "3@13", "instance": "prb25861", "distance_to_goal": "NA", "progress": "NA", "move_number": "54", "optimal_length": "16", "subject": "A191V7PT3DQKDP:3PMBY0YE28B43VMUKKJ6EDF85RV9C8"}
{"meta_move": "drag_end", "rt": "2000.0", "trial_number": "1", "pre_actions": "1", "move": "6@21", "instance": "prb25861", "distance_to_goal": "NA", "progress": "NA", "move_number": "55", "optimal_length": "16", "subject": "A191V7PT3DQKDP:3PMBY0YE28B43VMUKKJ6EDF85RV9C8"}
{"meta_move": "drag_end", "rt": "1217.0", "trial_number": "1", "pre_actions": "1", "move": "3@25", "instance": "prb25861", "distance_to_goal": "NA", "progress": "NA", "move_number": "55", "optimal_length": "16", "subject": "A191V7PT3DQKDP:3PMBY0YE28B43VMUKKJ6EDF85RV9C8"}
{"meta_move": "drag_end", "rt": "1740.0", "trial_number": "1", "pre_actions": "1", "move": "r@12", "instance": "prb25861", "distance_to_goal": "NA", "progress": "NA", "move_number": "56", "optimal_length": "16", "subject": "A191V7PT3DQKDP:3PMBY0YE28B43VMUKKJ6EDF85RV9C8"}
{"meta_move": "drag_end", "rt": "753.0", "trial_number": "1", "pre_actions": "1", "move": "4@26", "instance": "prb25861", "distance_to_goal": "NA", "progress": "NA", "move_number": "57", "optimal_length": "16", "subject": "A191V7PT3DQKDP:3PMBY0YE28B43VMUKKJ6EDF85RV9C8"}
{"meta_move": "drag_end", "rt": "2871.0", "trial_number": "1", "pre_actions": "1", "move": "6@19", "instance": "prb25861", "distance_to_goal": "NA", "progress": "NA", "move_number": "58", "optimal_length": "16", "subject": "A191V7PT3DQKDP:3PMBY0YE28B43VMUKKJ6EDF85RV9C8"}
{"meta_move": "drag_end", "rt": "8665.0", "trial_number": "1", "pre_actions": "1", "move": "6@21", "instance": "prb25861", "distance_to_goal": "NA", "progress": "NA", "move_number": "59", "optimal_length": "16", "subject": "A191V7PT3DQKDP:3PMBY0YE28B43VMUKKJ6EDF85RV9C8"}
{"meta_move": "drag_end", "rt": "4800.0", "trial_number": "1", "pre_actions": "1", "move": "4@26", "instance": "prb25861", "distance_to_goal": "NA", "progress": "NA", "move_number": "60", "optimal_length": "16", "subject": "A191V7PT3DQKDP:3PMBY0YE28B43VMUKKJ6EDF85RV9C8"}
{"meta_move": "drag_end", "rt": "1623.0", "trial_number": "1", "pre_actions": "1", "move": "r@13", "instance": "prb25861", "distance_to_goal": "NA", "progress": "NA", "move_number": "60", "optimal_length": "16", "subject": "A191V7PT3DQKDP:3PMBY0YE28B43VMUKKJ6EDF85RV9C8"}
{"meta_move": "drag_end", "rt": "625.0", "trial_number": "1", "pre_actions": "1", "move": "7@7", "instance": "prb25861", "distance_to_goal": "NA", "progress": "NA", "move_number": "61", "optimal_length": "16", "subject": "A191V7PT3DQKDP:3PMBY0YE28B43VMUKKJ6EDF85RV9C8"}
{"meta_move": "drag_end", "rt": "799.0", "trial_number": "1", "pre_actions": "1", "move": "0@0", "instance": "prb25861", "distance_to_goal": "NA", "progress": "NA", "move_number": "62", "optimal_length": "16", "subject": "A191V7PT3DQKDP:3PMBY0YE28B43VMUKKJ6EDF85RV9C8"}
{"meta_move": "drag_end", "rt": "777.0", "trial_number": "1", "pre_actions": "1", "move": "6@18", "instance": "prb25861", "distance_to_goal": "NA", "progress": "NA", "move_number": "63", "optimal_length": "16", "subject": "A191V7PT3DQKDP:3PMBY0YE28B43VMUKKJ6EDF85RV9C8"}
{"meta_move": "drag_end", "rt": "774.0", "trial_number": "1", "pre_actions": "1", "move": "5@3", "instance": "prb25861", "distance_to_goal": "NA", "progress": "NA", "move_number": "64", "optimal_length": "16", "subject": "A191V7PT3DQKDP:3PMBY0YE28B43VMUKKJ6EDF85RV9C8"}
{"meta_move": "drag_end", "rt": "1153.0", "trial_number": "1", "pre_actions": "1", "move": "6@21", "instance": "prb25861", "distance_to_goal": "NA", "progress": "NA", "move_number": "65", "optimal_length": "16", "subject": "A191V7PT3DQKDP:3PMBY0YE28B43VMUKKJ6EDF85RV9C8"}
{"meta_move": "drag_end", "rt": "1025.0", "trial_number": "1", "pre_actions": "1", "move": "0@18", "instance": "prb25861", "distance_to_goal": "NA", "progress": "NA", "move_number": "66", "optimal_length": "16", "subject": "A191V7PT3DQKDP:3PMBY0YE28B43VMUKKJ6EDF85RV9C8"}
{"meta_move": "drag_end", "rt": "654.0", "trial_number": "1", "pre_actions": "1", "move": "r@12", "instance": "prb25861", "distance_to_goal": "NA", "progress": "NA", "move_number": "67", "optimal_length": "16", "subject": "A191V7PT3DQKDP:3PMBY0YE28B43VMUKKJ6EDF85RV9C8"}
{"meta_move": "drag_end", "rt": "897.0", "trial_number": "1", "pre_actions": "1", "move": "7@6", "instance": "prb25861", "distance_to_goal": "NA", "progress": "NA", "move_number": "68", "optimal_length": "16", "subject": "A191V7PT3DQKDP:3PMBY0YE28B43VMUKKJ6EDF85RV9C8"}
{"meta_move": "drag_end", "rt": "759.0", "trial_number": "1", "pre_actions": "1", "move": "4@2", "instance": "prb25861", "distance_to_goal": "NA", "progress": "NA", "move_number": "69", "optimal_length": "16", "subject": "A191V7PT3DQKDP:3PMBY0YE28B43VMUKKJ6EDF85RV9C8"}
{"meta_move": "drag_end", "rt": "705.0", "trial_number": "1", "pre_actions": "1", "move": "6@19", "instance": "prb25861", "distance_to_goal": "NA", "progress": "NA", "move_number": "70", "optimal_length": "16", "subject": "A191V7PT3DQKDP:3PMBY0YE28B43VMUKKJ6EDF85RV9C8"}
{"meta_move": "drag_end", "rt": "713.0", "trial_number": "1", "pre_actions": "1", "move": "1@26", "instance": "prb25861", "distance_to_goal": "NA", "progress": "NA", "move_number": "71", "optimal_length": "16", "subject": "A191V7PT3DQKDP:3PMBY0YE28B43VMUKKJ6EDF85RV9C8"}
{"meta_move": "drag_end", "rt": "719.0", "trial_number": "1", "pre_actions": "1", "move": "2@22", "instance": "prb25861", "distance_to_goal": "NA", "progress": "NA", "move_number": "72", "optimal_length": "16", "subject": "A191V7PT3DQKDP:3PMBY0YE28B43VMUKKJ6EDF85RV9C8"}
{"meta_move": "win", "rt": "575.0", "trial_number": "1", "pre_actions": "1", "move": "r@12", "instance": "prb25861", "distance_to_goal": "1", "progress": "NA", "move_number": "73", "optimal_length": "16", "subject": "A191V7PT3DQKDP:3PMBY0YE28B43VMUKKJ6EDF85RV9C8"}
{"meta_move": "drag_end", "rt": "256.0", "trial_number": "0", "pre_actions": "0", "move": "r@16", "instance": "prb25861", "distance_to_goal": "NA", "progress": "NA", "move_number": "73", "optimal_length": "16", "subject": "A191V7PT3DQKDP:3PMBY0YE28B43VMUKKJ6EDF85RV9C8"}
{"meta_move": "drag_end", "rt": "2939.0", "trial_number": "1", "pre_actions": "1", "move": "0@0", "instance": "prb25861", "distance_to_goal": "NA", "progress": "NA", "move_number": "0", "optimal_length": "16", "subject": "A1F4N58CAX8IMK:3TS1AR6UQRM7SOIBWPBN8N9589Y7FV"}
{"meta_move": "drag_end", "rt": "720.0", "trial_number": "1", "pre_actions": "1", "move": "3@25", "instance": "prb25861", "distance_to_goal": "NA", "progress": "NA", "move_number": "1", "optimal_length": "16", "subject": "A1F4N58CAX8IMK:3TS1AR6UQRM7SOIBWPBN8N9589Y7FV"}
{"meta_move": "drag_end", "rt": "608.0", "trial_number": "1", "pre_actions": "1", "move": "4@26", "instance": "prb25861", "distance_to_goal": "NA", "progress": "NA", "move_number": "2", "optimal_length": "16", "subject": "A1F4N58CAX8IMK:3TS1AR6UQRM7SOIBWPBN8N9589Y7FV"}
{"meta_move": "drag_end", "rt": "688.0", "trial_number": "1", "pre_actions": "1", "move": "6@18", "instance": "prb25861", "distance_to_goal": "NA", "progress": "NA", "move_number": "3", "optimal_length": "16", "subject": "A1F4N58CAX8IMK:3TS1AR6UQRM7SOIBWPBN8N9589Y7FV"}
{"meta_move": "drag_end", "rt": "2231.0", "trial_number": "1", "pre_actions": "1", "move": "5@21", "instance": "prb25861", "distance_to_goal": "NA", "progress": "NA", "move_number": "4", "optimal_length": "16", "subject": "A1F4N58CAX8IMK:3TS1AR6UQRM7SOIBWPBN8N9589Y7FV"}
{"meta_move": "drag_end", "rt": "1744.0", "trial_number": "1", "pre_actions": "1", "move": "7@8", "instance": "prb25861", "distance_to_goal": "NA", "progress": "NA", "move_number": "5", "optimal_length": "16", "subject": "A1F4N58CAX8IMK:3TS1AR6UQRM7SOIBWPBN8N9589Y7FV"}
{"meta_move": "drag_end", "rt": "697.0", "trial_number": "1", "pre_actions": "1", "move": "0@0", "instance": "prb25861", "distance_to_goal": "NA", "progress": "NA", "move_number": "6", "optimal_length": "16", "subject": "A1F4N58CAX8IMK:3TS1AR6UQRM7SOIBWPBN8N9589Y7FV"}
{"meta_move": "drag_end", "rt": "640.0", "trial_number": "1", "pre_actions": "1", "move": "5@27", "instance": "prb25861", "distance_to_goal": "NA", "progress": "NA", "move_number": "6", "optimal_length": "16", "subject": "A1F4N58CAX8IMK:3TS1AR6UQRM7SOIBWPBN8N9589Y7FV"}
{"meta_move": "drag_end", "rt": "647.0", "trial_number": "1", "pre_actions": "1", "move": "6@21", "instance": "prb25861", "distance_to_goal": "NA", "progress": "NA", "move_number": "7", "optimal_length": "16", "subject": "A1F4N58CAX8IMK:3TS1AR6UQRM7SOIBWPBN8N9589Y7FV"}
{"meta_move": "drag_end", "rt": "968.0", "trial_number": "1", "pre_actions": "1", "move": "3@1", "instance": "prb25861", "distance_to_goal": "NA", "progress": "NA", "move_number": "8", "optimal_length": "16", "subject": "A1F4N58CAX8IMK:3TS1AR6UQRM7SOIBWPBN8N9589Y7FV"}
{"meta_move": "drag_end", "rt": "2400.0", "trial_number": "1", "pre_actions": "1", "move": "r@13", "instance": "prb25861", "distance_to_goal": "NA", "progress": "NA", "move_number": "9", "optimal_length": "16", "subject": "A1F4N58CAX8IMK:3TS1AR6UQRM7SOIBWPBN8N9589Y7FV"}
{"meta_move": "drag_end", "rt": "1528.0", "trial_number": "1", "pre_actions": "1", "move": "4@26", "instance": "prb25861", "distance_to_goal": "NA", "progress": "NA", "move_number": "10", "optimal_length": "16", "subject": "A1F4N58CAX8IMK:3TS1AR6UQRM7SOIBWPBN8N9589Y7FV"}
{"meta_move": "drag_end", "rt": "760.0", "trial_number": "1", "pre_actions": "1", "move": "6@18", "instance": "prb25861", "distance_to_goal": "NA", "progress": "NA", "move_number": "10", "optimal_length": "16", "subject": "A1F4N58CAX8IMK:3TS1AR6UQRM7SOIBWPBN8N9589Y7FV"}
{"meta_move": "drag_end", "rt": "1736.0", "trial_number": "1", "pre_actions": "1", "move": "5@15", "instance": "prb25861", "distance_to_goal": "NA", "progress": "NA", "move_number": "11", "optimal_length": "16", "subject": "A1F4N58CAX8IMK:3TS1AR6UQRM7SOIBWPBN8N9589Y7FV"}
{"meta_move": "drag_end", "rt": "913.0", "trial_number": "1", "pre_actions": "1", "move": "1@27", "instance": "prb25861", "distance_to_goal": "NA", "progress": "NA", "move_number": "12", "optimal_length": "16", "subject": "A1F4N58CAX8IMK:3TS1AR6UQRM7SOIBWPBN8N9589Y7FV"}
{"meta_move": "drag_end", "rt": "1023.0", "trial_number": "1", "pre_actions": "1", "move": "1@28", "instance": "prb25861", "distance_to_goal": "NA", "progress": "NA", "move_number": "13", "optimal_length": "16", "subject": "A1F4N58CAX8IMK:3TS1AR6UQRM7SOIBWPBN8N9589Y7FV"}
{"meta_move": "drag_end", "rt": "984.0", "trial_number": "1", "pre_actions": "1", "move": "5@27", "instance": "prb25861", "distance_to_goal": "NA", "progress": "NA", "move_number": "14", "optimal_length": "16", "subject": "A1F4N58CAX8IMK:3TS1AR6UQRM7SOIBWPBN8N9589Y7FV"}
{"meta_move": "drag_end", "rt": "793.0", "trial_number": "1", "pre_actions": "1", "move": "2@10", "instance": "prb25861", "distance_to_goal": "NA", "progress": "NA", "move_number": "15", "optimal_length": "16", "subject": "A1F4N58CAX8IMK:3TS1AR6UQRM7SOIBWPBN8N9589Y7FV"}
{"meta_move": "drag_end", "rt": "1344.0", "trial_number": "1", "pre_actions": "1", "move": "6@19", "instance": "prb25861", "distance_to_goal": "NA", "progress": "NA", "move_number": "16", "optimal_length": "16", "subject": "A1F4N58CAX8IMK:3TS1AR6UQRM7SOIBWPBN8N9589Y7FV"}
{"meta_move": "drag_end", "rt": "791.0", "trial_number": "1", "pre_actions": "1", "move": "0@18", "instance": "prb25861", "distance_to_goal": "NA", "progress": "NA", "move_number": "17", "optimal_length": "16", "subject": "A1F4N58CAX8IMK:3TS1AR6UQRM7SOIBWPBN8N9589Y7FV"}
{"meta_move": "drag_end", "rt": "672.0", "trial_number": "1", "pre_actions": "1", "move": "r@12", "instance": "prb25861", "distance_to_goal": "NA", "progress": "NA", "move_number": "18", "optimal_length": "16", "subject": "A1F4N58CAX8IMK:3TS1AR6UQRM7SOIBWPBN8N9589Y7FV"}
{"meta_move": "drag_end", "rt": "1144.0", "trial_number": "1", "pre_actions": "1", "move": "2@4", "instance": "prb25861", "distance_to_goal": "NA", "progress": "NA", "move_number": "19", "optimal_length": "16", "subject": "A1F4N58CAX8IMK:3TS1AR6UQRM7SOIBWPBN8N9589Y7FV"}
{"meta_move": "drag_end", "rt": "712.0", "trial_number": "1", "pre_actions": "1", "move": "6@21", "instance": "prb25861", "distance_to_goal": "NA", "progress": "NA", "move_number": "20", "optimal_length": "16", "subject": "A1F4N58CAX8IMK:3TS1AR6UQRM7SOIBWPBN8N9589Y7FV"}
{"meta_move": "drag_end", "rt": "1193.0", "trial_number": "1", "pre_actions": "1", "move": "4@14", "instance": "prb25861", "distance_to_goal": "NA", "progress": "NA", "move_number": "21", "optimal_length": "16", "subject": "A1F4N58CAX8IMK:3TS1AR6UQRM7SOIBWPBN8N9589Y7FV"}
{"meta_move": "drag_end", "rt": "863.0", "trial_number": "1", "pre_actions": "1", "move": "5@27", "instance": "prb25861", "distance_to_goal": "NA", "progress": "NA", "move_number": "22", "optimal_length": "16", "subject": "A1F4N58CAX8IMK:3TS1AR6UQRM7SOIBWPBN8N9589Y7FV"}
{"meta_move": "drag_end", "rt": "904.0", "trial_number": "1", "pre_actions": "1", "move": "4@26", "instance": "prb25861", "distance_to_goal": "NA", "progress": "NA", "move_number": "22", "optimal_length": "16", "subject": "A1F4N58CAX8IMK:3TS1AR6UQRM7SOIBWPBN8N9589Y7FV"}
{"meta_move": "drag_end", "rt": "737.0", "trial_number": "1", "pre_actions": "1", "move": "6@19", "instance": "prb25861", "distance_to_goal": "NA", "progress": "NA", "move_number": "23", "optimal_length": "16", "subject": "A1F4N58CAX8IMK:3TS1AR6UQRM7SOIBWPBN8N9589Y7FV"}
{"meta_move": "drag_end", "rt": "1312.0", "trial_number": "1", "pre_actions": "1", "move": "1@28", "instance": "prb25861", "distance_to_goal": "NA", "progress": "NA", "move_number": "24", "optimal_length": "16", "subject": "A1F4N58CAX8IMK:3TS1AR6UQRM7SOIBWPBN8N9589Y7FV"}
{"meta_move": "drag_end", "rt": "423.0", "trial_number": "1", "pre_actions": "1", "move": "2@10", "instance": "prb25861", "distance_to_goal": "NA", "progress": "NA", "move_number": "24", "optimal_length": "16", "subject": "A1F4N58CAX8IMK:3TS1AR6UQRM7SOIBWPBN8N9589Y7FV"}
{"meta_move": "drag_end", "rt": "5633.0", "trial_number": "1", "pre_actions": "1", "move": "2@4", "instance": "prb25861", "distance_to_goal": "NA", "progress": "NA", "move_number": "25", "optimal_length": "16", "subject": "A1F4N58CAX8IMK:3TS1AR6UQRM7SOIBWPBN8N9589Y7FV"}
{"meta_move": "drag_end", "rt": "919.0", "trial_number": "1", "pre_actions": "1", "move": "6@21", "instance": "prb25861", "distance_to_goal": "NA", "progress": "NA", "move_number": "26", "optimal_length": "16", "subject": "A1F4N58CAX8IMK:3TS1AR6UQRM7SOIBWPBN8N9589Y7FV"}
{"meta_move": "drag_end", "rt": "816.0", "trial_number": "1", "pre_actions": "1", "move": "4@14", "instance": "prb25861", "distance_to_goal": "NA", "progress": "NA", "move_number": "27", "optimal_length": "16", "subject": "A1F4N58CAX8IMK:3TS1AR6UQRM7SOIBWPBN8N9589Y7FV"}
{"meta_move": "drag_end", "rt": "1472.0", "trial_number": "1", "pre_actions": "1", "move": "3@1", "instance": "prb25861", "distance_to_goal": "NA", "progress": "NA", "move_number": "28", "optimal_length": "16", "subject": "A1F4N58CAX8IMK:3TS1AR6UQRM7SOIBWPBN8N9589Y7FV"}
{"meta_move": "drag_end", "rt": "672.0", "trial_number": "1", "pre_actions": "1", "move": "0@18", "instance": "prb25861", "distance_to_goal": "NA", "progress": "NA", "move_number": "28", "optimal_length": "16", "subject": "A1F4N58CAX8IMK:3TS1AR6UQRM7SOIBWPBN8N9589Y7FV"}
{"meta_move": "drag_end", "rt": "1168.0", "trial_number": "1", "pre_actions": "1", "move": "4@26", "instance": "prb25861", "distance_to_goal": "NA", "progress": "NA", "move_number": "28", "optimal_length": "16", "subject": "A1F4N58CAX8IMK:3TS1AR6UQRM7SOIBWPBN8N9589Y7FV"}
{"meta_move": "drag_end", "rt": "984.0", "trial_number": "1", "pre_actions": "1", "move": "6@19", "instance": "prb25861", "distance_to_goal": "NA", "progress": "NA", "move_number": "29", "optimal_length": "16", "subject": "A1F4N58CAX8IMK:3TS1AR6UQRM7SOIBWPBN8N9589Y7FV"}
{"meta_move": "drag_end", "rt": "944.0", "trial_number": "1", "pre_actions": "1", "move": "2@10", "instance": "prb25861", "distance_to_goal": "NA", "progress": "NA", "move_number": "30", "optimal_length": "16", "subject": "A1F4N58CAX8IMK:3TS1AR6UQRM7SOIBWPBN8N9589Y7FV"}
{"meta_move": "drag_end", "rt": "2756.0", "trial_number": "1", "pre_actions": "1", "move": "0@0", "instance": "prb25861", "distance_to_goal": "NA", "progress": "NA", "move_number": "0", "optimal_length": "16", "subject": "A1LR0VQIHQUJAM:3YW4XOSQKRTI0K0Z2YPDTDJVFABU1I"}
{"meta_move": "drag_end", "rt": "809.0", "trial_number": "1", "pre_actions": "1", "move": "0@18", "instance": "prb25861", "distance_to_goal": "NA", "progress": "NA", "move_number": "1", "optimal_length": "16", "subject": "A1LR0VQIHQUJAM:3YW4XOSQKRTI0K0Z2YPDTDJVFABU1I"}
{"meta_move": "drag_end", "rt": "4236.0", "trial_number": "1", "pre_actions": "1", "move": "0@0", "instance": "prb25861", "distance_to_goal": "NA", "progress": "NA", "move_number": "2", "optimal_length": "16", "subject": "A1LR0VQIHQUJAM:3YW4XOSQKRTI0K0Z2YPDTDJVFABU1I"}
{"meta_move": "drag_end", "rt": "937.0", "trial_number": "1", "pre_actions": "1", "move": "3@13", "instance": "prb25861", "distance_to_goal": "NA", "progress": "NA", "move_number": "3", "optimal_length": "16", "subject": "A1LR0VQIHQUJAM:3YW4XOSQKRTI0K0Z2YPDTDJVFABU1I"}
{"meta_move": "drag_end", "rt": "645.0", "trial_number": "1", "pre_actions": "1", "move": "7@8", "instance": "prb25861", "distance_to_goal": "NA", "progress": "NA", "move_number": "4", "optimal_length": "16", "subject": "A1LR0VQIHQUJAM:3YW4XOSQKRTI0K0Z2YPDTDJVFABU1I"}
{"meta_move": "drag_end", "rt": "697.0", "trial_number": "1", "pre_actions": "1", "move": "3@1", "instance": "prb25861", "distance_to_goal": "NA", "progress": "NA", "move_number": "5", "optimal_length": "16", "subject": "A1LR0VQIHQUJAM:3YW4XOSQKRTI0K0Z2YPDTDJVFABU1I"}
{"meta_move": "drag_end", "rt": "708.0", "trial_number": "1", "pre_actions": "1", "move": "r@13", "instance": "prb25861", "distance_to_goal": "NA", "progress": "NA", "move_number": "6", "optimal_length": "16", "subject": "A1LR0VQIHQUJAM:3YW4XOSQKRTI0K0Z2YPDTDJVFABU1I"}
{"meta_move": "drag_end", "rt": "2783.0", "trial_number": "1", "pre_actions": "1", "move": "0@18", "instance": "prb25861", "distance_to_goal": "NA", "progress": "NA", "move_number": "7", "optimal_length": "16", "subject": "A1LR0VQIHQUJAM:3YW4XOSQKRTI0K0Z2YPDTDJVFABU1I"}
{"meta_move": "drag_end", "rt": "592.0", "trial_number": "1", "pre_actions": "1", "move": "r@12", "instance": "prb25861", "distance_to_goal": "NA", "progress": "NA", "move_number": "8", "optimal_length": "16", "subject": "A1LR0VQIHQUJAM:3YW4XOSQKRTI0K0Z2YPDTDJVFABU1I"}
{"meta_move": "drag_end", "rt": "1926.0", "trial_number": "1", "pre_actions": "1", "move": "4@14", "instance": "prb25861", "distance_to_goal": "NA", "progress": "NA", "move_number": "9", "optimal_length": "16", "subject": "A1LR0VQIHQUJAM:3YW4XOSQKRTI0K0Z2YPDTDJVFABU1I"}
{"meta_move": "drag_end", "rt": "4085.0", "trial_number": "1", "pre_actions": "1", "move": "5@27", "instance": "prb25861", "distance_to_goal": "NA", "progress": "NA", "move_number": "10", "optimal_length": "16", "subject": "A1LR0VQIHQUJAM:3YW4XOSQKRTI0K0Z2YPDTDJVFABU1I"}
{"meta_move": "drag_end", "rt": "1903.0", "trial_number": "1", "pre_actions": "1", "move": "4@26", "instance": "prb25861", "distance_to_goal": "NA", "progress": "NA", "move_number": "10", "optimal_length": "16", "subject": "A1LR0VQIHQUJAM:3YW4XOSQKRTI0K0Z2YPDTDJVFABU1I"}
{"meta_move": "drag_end", "rt": "1267.0", "trial_number": "1", "pre_actions": "1", "move": "6@19", "instance": "prb25861", "distance_to_goal": "NA", "progress": "NA", "move_number": "11", "optimal_length": "16", "subject": "A1LR0VQIHQUJAM:3YW4XOSQKRTI0K0Z2YPDTDJVFABU1I"}
{"meta_move": "drag_end", "rt": "604.0", "trial_number": "1", "pre_actions": "1", "move": "2@10", "instance": "prb25861", "distance_to_goal": "NA", "progress": "NA", "move_number": "12", "optimal_length": "16", "subject": "A1LR0VQIHQUJAM:3YW4XOSQKRTI0K0Z2YPDTDJVFABU1I"}
{"meta_move": "drag_end", "rt": "4819.0", "trial_number": "1", "pre_actions": "1", "move": "r@14", "instance": "prb25861", "distance_to_goal": "NA", "progress": "NA", "move_number": "13", "optimal_length": "16", "subject": "A1LR0VQIHQUJAM:3YW4XOSQKRTI0K0Z2YPDTDJVFABU1I"}
{"meta_move": "drag_end", "rt": "423.0", "trial_number": "1", "pre_actions": "1", "move": "2@4", "instance": "prb25861", "distance_to_goal": "NA", "progress": "NA", "move_number": "14", "optimal_length": "16", "subject": "A1LR0VQIHQUJAM:3YW4XOSQKRTI0K0Z2YPDTDJVFABU1I"}
{"meta_move": "drag_end", "rt": "565.0", "trial_number": "1", "pre_actions": "1", "move": "6@21", "instance": "prb25861", "distance_to_goal": "NA", "progress": "NA", "move_number": "15", "optimal_length": "16", "subject": "A1LR0VQIHQUJAM:3YW4XOSQKRTI0K0Z2YPDTDJVFABU1I"}
{"meta_move": "drag_end", "rt": "653.0", "trial_number": "1", "pre_actions": "1", "move": "3@25", "instance": "prb25861", "distance_to_goal": "NA", "progress": "NA", "move_number": "16", "optimal_length": "16", "subject": "A1LR0VQIHQUJAM:3YW4XOSQKRTI0K0Z2YPDTDJVFABU1I"}
{"meta_move": "drag_end", "rt": "6093.0", "trial_number": "1", "pre_actions": "1", "move": "0@0", "instance": "prb25861", "distance_to_goal": "NA", "progress": "NA", "move_number": "17", "optimal_length": "16", "subject": "A1LR0VQIHQUJAM:3YW4XOSQKRTI0K0Z2YPDTDJVFABU1I"}
{"meta_move": "drag_end", "rt": "855.0", "trial_number": "1", "pre_actions": "1", "move": "3@1", "instance": "prb25861", "distance_to_goal": "NA", "progress": "NA", "move_number": "18", "optimal_length": "16", "subject": "A1LR0VQIHQUJAM:3YW4XOSQKRTI0K0Z2YPDTDJVFABU1I"}
{"meta_move": "drag_end", "rt": "801.0", "trial_number": "1", "pre_actions": "1", "move": "r@13", "instance": "prb25861", "distance_to_goal": "NA", "progress": "NA", "move_number": "19", "optimal_length": "16", "subject": "A1LR0VQIHQUJAM:3YW4XOSQKRTI0K0Z2YPDTDJVFABU1I"}
{"meta_move": "drag_end", "rt": "2949.0", "trial_number": "1", "pre_actions": "1", "move": "4@26", "instance": "prb25861", "distance_to_goal": "NA", "progress": "NA", "move_number": "20", "optimal_length": "16", "subject": "A1LR0VQIHQUJAM:3YW4XOSQKRTI0K0Z2YPDTDJVFABU1I"}
{"meta_move": "drag_end", "rt": "5376.0", "trial_number": "1", "pre_actions": "1", "move": "6@18", "instance": "prb25861", "distance_to_goal": "NA", "progress": "NA", "move_number": "20", "optimal_length": "16", "subject": "A1LR0VQIHQUJAM:3YW4XOSQKRTI0K0Z2YPDTDJVFABU1I"}
{"meta_move": "drag_end", "rt": "650.0", "trial_number": "1", "pre_actions": "1", "move": "5@15", "instance": "prb25861", "distance_to_goal": "NA", "progress": "NA", "move_number": "21", "optimal_length": "16", "subject": "A1LR0VQIHQUJAM:3YW4XOSQKRTI0K0Z2YPDTDJVFABU1I"}
{"meta_move": "drag_end", "rt": "698.0", "trial_number": "1", "pre_actions": "1", "move": "1@27", "instance": "prb25861", "distance_to_goal": "NA", "progress": "NA", "move_number": "22", "optimal_length": "16", "subject": "A1LR0VQIHQUJAM:3YW4XOSQKRTI0K0Z2YPDTDJVFABU1I"}
{"meta_move": "drag_end", "rt": "27932.0", "trial_number": "1", "pre_actions": "1", "move": "1@28", "instance": "prb25861", "distance_to_goal": "NA", "progress": "NA", "move_number": "23", "optimal_length": "16", "subject": "A1LR0VQIHQUJAM:3YW4XOSQKRTI0K0Z2YPDTDJVFABU1I"}
{"meta_move": "drag_end", "rt": "570.0", "trial_number": "1", "pre_actions": "1", "move": "5@27", "instance": "prb25861", "distance_to_goal": "NA", "progress": "NA", "move_number": "24", "optimal_length": "16", "subject": "A1LR0VQIHQUJAM:3YW4XOSQKRTI0K0Z2YPDTDJVFABU1I"}
{"meta_move": "drag_end", "rt": "2868.0", "trial_number": "1", "pre_actions": "1", "move": "5@15", "instance": "prb25861", "distance_to_goal": "NA", "progress": "NA", "move_number": "25", "optimal_length": "16", "subject": "A1LR0VQIHQUJAM:3YW4XOSQKRTI0K0Z2YPDTDJVFABU1I"}
{"meta_move": "drag_end", "rt": "1157.0", "trial_number": "1", "pre_actions": "1", "move": "5@27", "instance": "prb25861", "distance_to_goal": "NA", "progress": "NA", "move_number": "26", "optimal_length": "16", "subject": "A1LR0VQIHQUJAM:3YW4XOSQKRTI0K0Z2YPDTDJVFABU1I"}
{"meta_move": "drag_end", "rt": "580.0", "trial_number": "1", "pre_actions": "1", "move": "6@21", "instance": "prb25861", "distance_to_goal": "NA", "progress": "NA", "move_number": "27", "optimal_length": "16", "subject": "A1LR0VQIHQUJAM:3YW4XOSQKRTI0K0Z2YPDTDJVFABU1I"}
{"meta_move": "drag_end", "rt": "631.0", "trial_number": "1", "pre_actions": "1", "move": "4@20", "instance": "prb25861", "distance_to_goal": "NA", "progress": "NA", "move_number": "28", "optimal_length": "16", "subject": "A1LR0VQIHQUJAM:3YW4XOSQKRTI0K0Z2YPDTDJVFABU1I"}
{"meta_move": "drag_end", "rt": "2808.0", "trial_number": "1", "pre_actions": "1", "move": "0@18", "instance": "prb25861", "distance_to_goal": "NA", "progress": "NA", "move_number": "29", "optimal_length": "16", "subject": "A1LR0VQIHQUJAM:3YW4XOSQKRTI0K0Z2YPDTDJVFABU1I"}
{"meta_move": "drag_end", "rt": "456.0", "trial_number": "1", "pre_actions": "1", "move": "r@12", "instance": "prb25861", "distance_to_goal": "NA", "progress": "NA", "move_number": "30", "optimal_length": "16", "subject": "A1LR0VQIHQUJAM:3YW4XOSQKRTI0K0Z2YPDTDJVFABU1I"}
{"meta_move": "drag_end", "rt": "453.0", "trial_number": "1", "pre_actions": "1", "move": "4@14", "instance": "prb25861", "distance_to_goal": "NA", "progress": "NA", "move_number": "31", "optimal_length": "16", "subject": "A1LR0VQIHQUJAM:3YW4XOSQKRTI0K0Z2YPDTDJVFABU1I"}
{"meta_move": "drag_end", "rt": "1163.0", "trial_number": "1", "pre_actions": "1", "move": "3@1", "instance": "prb25861", "distance_to_goal": "NA", "progress": "NA", "move_number": "32", "optimal_length": "16", "subject": "A1LR0VQIHQUJAM:3YW4XOSQKRTI0K0Z2YPDTDJVFABU1I"}
{"meta_move": "drag_end", "rt": "1702.0", "trial_number": "1", "pre_actions": "1", "move": "4@26", "instance": "prb25861", "distance_to_goal": "NA", "progress": "NA", "move_number": "32", "optimal_length": "16", "subject": "A1LR0VQIHQUJAM:3YW4XOSQKRTI0K0Z2YPDTDJVFABU1I"}
{"meta_move": "drag_end", "rt": "494.0", "trial_number": "1", "pre_actions": "1", "move": "r@14", "instance": "prb25861", "distance_to_goal": "NA", "progress": "NA", "move_number": "33", "optimal_length": "16", "subject": "A1LR0VQIHQUJAM:3YW4XOSQKRTI0K0Z2YPDTDJVFABU1I"}
{"meta_move": "drag_end", "rt": "603.0", "trial_number": "1", "pre_actions": "1", "move": "3@25", "instance": "prb25861", "distance_to_goal": "NA", "progress": "NA", "move_number": "34", "optimal_length": "16", "subject": "A1LR0VQIHQUJAM:3YW4XOSQKRTI0K0Z2YPDTDJVFABU1I"}
{"meta_move": "drag_end", "rt": "671.0", "trial_number": "1", "pre_actions": "1", "move": "r@12", "instance": "prb25861", "distance_to_goal": "NA", "progress": "NA", "move_number": "35", "optimal_length": "16", "subject": "A1LR0VQIHQUJAM:3YW4XOSQKRTI0K0Z2YPDTDJVFABU1I"}
{"meta_move": "drag_end", "rt": "1315.0", "trial_number": "1", "pre_actions": "1", "move": "7@6", "instance": "prb25861", "distance_to_goal": "NA", "progress": "NA", "move_number": "36", "optimal_length": "16", "subject": "A1LR0VQIHQUJAM:3YW4XOSQKRTI0K0Z2YPDTDJVFABU1I"}
{"meta_move": "drag_end", "rt": "815.0", "trial_number": "1", "pre_actions": "1", "move": "4@2", "instance": "prb25861", "distance_to_goal": "NA", "progress": "NA", "move_number": "37", "optimal_length": "16", "subject": "A1LR0VQIHQUJAM:3YW4XOSQKRTI0K0Z2YPDTDJVFABU1I"}
{"meta_move": "drag_end", "rt": "4929.0", "trial_number": "1", "pre_actions": "1", "move": "r@14", "instance": "prb25861", "distance_to_goal": "NA", "progress": "NA", "move_number": "38", "optimal_length": "16", "subject": "A1LR0VQIHQUJAM:3YW4XOSQKRTI0K0Z2YPDTDJVFABU1I"}
{"meta_move": "drag_end", "rt": "549.0", "trial_number": "1", "pre_actions": "1", "move": "3@13", "instance": "prb25861", "distance_to_goal": "NA", "progress": "NA", "move_number": "39", "optimal_length": "16", "subject": "A1LR0VQIHQUJAM:3YW4XOSQKRTI0K0Z2YPDTDJVFABU1I"}
{"meta_move": "drag_end", "rt": "447.0", "trial_number": "1", "pre_actions": "1", "move": "0@12", "instance": "prb25861", "distance_to_goal": "NA", "progress": "NA", "move_number": "40", "optimal_length": "16", "subject": "A1LR0VQIHQUJAM:3YW4XOSQKRTI0K0Z2YPDTDJVFABU1I"}
{"meta_move": "drag_end", "rt": "1796.0", "trial_number": "1", "pre_actions": "1", "move": "3@25", "instance": "prb25861", "distance_to_goal": "NA", "progress": "NA", "move_number": "41", "optimal_length": "16", "subject": "A1LR0VQIHQUJAM:3YW4XOSQKRTI0K0Z2YPDTDJVFABU1I"}
{"meta_move": "drag_end", "rt": "515.0", "trial_number": "1", "pre_actions": "1", "move": "6@19", "instance": "prb25861", "distance_to_goal": "NA", "progress": "NA", "move_number": "42", "optimal_length": "16", "subject": "A1LR0VQIHQUJAM:3YW4XOSQKRTI0K0Z2YPDTDJVFABU1I"}
{"meta_move": "drag_end", "rt": "3360.0", "trial_number": "1", "pre_actions": "1", "move": "2@4", "instance": "prb25861", "distance_to_goal": "NA", "progress": "NA", "move_number": "43", "optimal_length": "16", "subject": "A1LR0VQIHQUJAM:3YW4XOSQKRTI0K0Z2YPDTDJVFABU1I"}
{"meta_move": "drag_end", "rt": "1819.0", "trial_number": "1", "pre_actions": "1", "move": "0@0", "instance": "prb25861", "distance_to_goal": "NA", "progress": "NA", "move_number": "0", "optimal_length": "16", "subject": "A214HWAW1PYWO8:34BBWHLWHBJ6SUL255PK30LEGY5IWG"}
{"meta_move": "drag_end", "rt": "1129.0", "trial_number": "1", "pre_actions": "1", "move": "7@8", "instance": "prb25861", "distance_to_goal": "NA", "progress": "NA", "move_number": "1", "optimal_length": "16", "subject": "A214HWAW1PYWO8:34BBWHLWHBJ6SUL255PK30LEGY5IWG"}
{"meta_move": "drag_end", "rt": "513.0", "trial_number": "1", "pre_actions": "1", "move": "3@1", "instance": "prb25861", "distance_to_goal": "NA", "progress": "NA", "move_number": "2", "optimal_length": "16", "subject": "A214HWAW1PYWO8:34BBWHLWHBJ6SUL255PK30LEGY5IWG"}
{"meta_move": "drag_end", "rt": "63626.0", "trial_number": "1", "pre_actions": "1", "move": "0@18", "instance": "prb25861", "distance_to_goal": "NA", "progress": "NA", "move_number": "3", "optimal_length": "16", "subject": "A214HWAW1PYWO8:34BBWHLWHBJ6SUL255PK30LEGY5IWG"}
{"meta_move": "drag_end", "rt": "486.0", "trial_number": "1", "pre_actions": "1", "move": "3@25", "instance": "prb25861", "distance_to_goal": "NA", "progress": "NA", "move_number": "4", "optimal_length": "16", "subject": "A214HWAW1PYWO8:34BBWHLWHBJ6SUL255PK30LEGY5IWG"}
{"meta_move": "drag_end", "rt": "646.0", "trial_number": "1", "pre_actions": "1", "move": "7@6", "instance": "prb25861", "distance_to_goal": "NA", "progress": "NA", "move_number": "5", "optimal_length": "16", "subject": "A214HWAW1PYWO8:34BBWHLWHBJ6SUL255PK30LEGY5IWG"}
{"meta_move": "drag_end", "rt": "831.0", "trial_number": "1", "pre_actions": "1", "move": "r@12", "instance": "prb25861", "distance_to_goal": "NA", "progress": "NA", "move_number": "6", "optimal_length": "16", "subject": "A214HWAW1PYWO8:34BBWHLWHBJ6SUL255PK30LEGY5IWG"}
{"meta_move": "drag_end", "rt": "516.0", "trial_number": "1", "pre_actions": "1", "move": "5@27", "instance": "prb25861", "distance_to_goal": "NA", "progress": "NA", "move_number": "7", "optimal_length": "16", "subject": "A214HWAW1PYWO8:34BBWHLWHBJ6SUL255PK30LEGY5IWG"}
{"meta_move": "drag_end", "rt": "431.0", "trial_number": "1", "pre_actions": "1", "move": "4@2", "instance": "prb25861", "distance_to_goal": "NA", "progress": "NA", "move_number": "7", "optimal_length": "16", "subject": "A214HWAW1PYWO8:34BBWHLWHBJ6SUL255PK30LEGY5IWG"}
{"meta_move": "drag_end", "rt": "1021.0", "trial_number": "1", "pre_actions": "1", "move": "r@14", "instance": "prb25861", "distance_to_goal": "NA", "progress": "NA", "move_number": "8", "optimal_length": "16", "subject": "A214HWAW1PYWO8:34BBWHLWHBJ6SUL255PK30LEGY5IWG"}
{"meta_move": "drag_end", "rt": "2962.0", "trial_number": "1", "pre_actions": "1", "move": "6@19", "instance": "prb25861", "distance_to_goal": "NA", "progress": "NA", "move_number": "9", "optimal_length": "16", "subject": "A214HWAW1PYWO8:34BBWHLWHBJ6SUL255PK30LEGY5IWG"}
{"meta_move": "drag_end", "rt": "3629.0", "trial_number": "1", "pre_actions": "1", "move": "6@21", "instance": "prb25861", "distance_to_goal": "NA", "progress": "NA", "move_number": "10", "optimal_length": "16", "subject": "A214HWAW1PYWO8:34BBWHLWHBJ6SUL255PK30LEGY5IWG"}
{"meta_move": "drag_end", "rt": "683.0", "trial_number": "1", "pre_actions": "1", "move": "r@12", "instance": "prb25861", "distance_to_goal": "NA", "progress": "NA", "move_number": "11", "optimal_length": "16", "subject": "A214HWAW1PYWO8:34BBWHLWHBJ6SUL255PK30LEGY5IWG"}
{"meta_move": "drag_end", "rt": "1258.0", "trial_number": "1", "pre_actions": "1", "move": "6@21", "instance": "prb25861", "distance_to_goal": "NA", "progress": "NA", "move_number": "12", "optimal_length": "16", "subject": "A214HWAW1PYWO8:34BBWHLWHBJ6SUL255PK30LEGY5IWG"}
{"meta_move": "drag_end", "rt": "541.0", "trial_number": "1", "pre_actions": "1", "move": "r@14", "instance": "prb25861", "distance_to_goal": "NA", "progress": "NA", "move_number": "12", "optimal_length": "16", "subject": "A214HWAW1PYWO8:34BBWHLWHBJ6SUL255PK30LEGY5IWG"}
{"meta_move": "drag_end", "rt": "470.0", "trial_number": "1", "pre_actions": "1", "move": "7@6", "instance": "prb25861", "distance_to_goal": "NA", "progress": "NA", "move_number": "13", "optimal_length": "16", "subject": "A214HWAW1PYWO8:34BBWHLWHBJ6SUL255PK30LEGY5IWG"}
{"meta_move": "drag_end", "rt": "559.0", "trial_number": "1", "pre_actions": "1", "move": "r@12", "instance": "prb25861", "distance_to_goal": "NA", "progress": "NA", "move_number": "13", "optimal_length": "16", "subject": "A214HWAW1PYWO8:34BBWHLWHBJ6SUL255PK30LEGY5IWG"}
{"meta_move": "drag_end", "rt": "500.0", "trial_number": "1", "pre_actions": "1", "move": "4@26", "instance": "prb25861", "distance_to_goal": "NA", "progress": "NA", "move_number": "14", "optimal_length": "16", "subject": "A214HWAW1PYWO8:34BBWHLWHBJ6SUL255PK30LEGY5IWG"}
{"meta_move": "drag_end", "rt": "620.0", "trial_number": "1", "pre_actions": "1", "move": "6@19", "instance": "prb25861", "distance_to_goal": "NA", "progress": "NA", "move_number": "15", "optimal_length": "16", "subject": "A214HWAW1PYWO8:34BBWHLWHBJ6SUL255PK30LEGY5IWG"}
{"meta_move": "drag_end", "rt": "4765.0", "trial_number": "1", "pre_actions": "1", "move": "7@8", "instance": "prb25861", "distance_to_goal": "NA", "progress": "NA", "move_number": "16", "optimal_length": "16", "subject": "A214HWAW1PYWO8:34BBWHLWHBJ6SUL255PK30LEGY5IWG"}
{"meta_move": "drag_end", "rt": "516.0", "trial_number": "1", "pre_actions": "1", "move": "r@14", "instance": "prb25861", "distance_to_goal": "NA", "progress": "NA", "move_number": "17", "optimal_length": "16", "subject": "A214HWAW1PYWO8:34BBWHLWHBJ6SUL255PK30LEGY5IWG"}
{"meta_move": "drag_end", "rt": "565.0", "trial_number": "1", "pre_actions": "1", "move": "0@0", "instance": "prb25861", "distance_to_goal": "NA", "progress": "NA", "move_number": "18", "optimal_length": "16", "subject": "A214HWAW1PYWO8:34BBWHLWHBJ6SUL255PK30LEGY5IWG"}
{"meta_move": "drag_end", "rt": "668.0", "trial_number": "1", "pre_actions": "1", "move": "6@21", "instance": "prb25861", "distance_to_goal": "NA", "progress": "NA", "move_number": "19", "optimal_length": "16", "subject": "A214HWAW1PYWO8:34BBWHLWHBJ6SUL255PK30LEGY5IWG"}
{"meta_move": "drag_end", "rt": "578.0", "trial_number": "1", "pre_actions": "1", "move": "3@1", "instance": "prb25861", "distance_to_goal": "NA", "progress": "NA", "move_number": "20", "optimal_length": "16", "subject": "A214HWAW1PYWO8:34BBWHLWHBJ6SUL255PK30LEGY5IWG"}
{"meta_move": "drag_end", "rt": "549.0", "trial_number": "1", "pre_actions": "1", "move": "6@18", "instance": "prb25861", "distance_to_goal": "NA", "progress": "NA", "move_number": "21", "optimal_length": "16", "subject": "A214HWAW1PYWO8:34BBWHLWHBJ6SUL255PK30LEGY5IWG"}
{"meta_move": "drag_end", "rt": "3858.0", "trial_number": "1", "pre_actions": "1", "move": "r@13", "instance": "prb25861", "distance_to_goal": "NA", "progress": "NA", "move_number": "22", "optimal_length": "16", "subject": "A214HWAW1PYWO8:34BBWHLWHBJ6SUL255PK30LEGY5IWG"}
{"meta_move": "drag_end", "rt": "1048.0", "trial_number": "1", "pre_actions": "1", "move": "2@10", "instance": "prb25861", "distance_to_goal": "NA", "progress": "NA", "move_number": "23", "optimal_length": "16", "subject": "A214HWAW1PYWO8:34BBWHLWHBJ6SUL255PK30LEGY5IWG"}
{"meta_move": "drag_end", "rt": "718.0", "trial_number": "1", "pre_actions": "1", "move": "2@4", "instance": "prb25861", "distance_to_goal": "NA", "progress": "NA", "move_number": "24", "optimal_length": "16", "subject": "A214HWAW1PYWO8:34BBWHLWHBJ6SUL255PK30LEGY5IWG"}
{"meta_move": "drag_end", "rt": "10992.0", "trial_number": "2", "pre_actions": "1", "move": "0@0", "instance": "prb25861", "distance_to_goal": "NA", "progress": "NA", "move_number": "0", "optimal_length": "16", "subject": "A214HWAW1PYWO8:34BBWHLWHBJ6SUL255PK30LEGY5IWG"}
{"meta_move": "drag_end", "rt": "903.0", "trial_number": "2", "pre_actions": "1", "move": "7@8", "instance": "prb25861", "distance_to_goal": "NA", "progress": "NA", "move_number": "1", "optimal_length": "16", "subject": "A214HWAW1PYWO8:34BBWHLWHBJ6SUL255PK30LEGY5IWG"}
{"meta_move": "drag_end", "rt": "1415.0", "trial_number": "2", "pre_actions": "1", "move": "3@1", "instance": "prb25861", "distance_to_goal": "NA", "progress": "NA", "move_number": "2", "optimal_length": "16", "subject": "A214HWAW1PYWO8:34BBWHLWHBJ6SUL255PK30LEGY5IWG"}
{"meta_move": "drag_end", "rt": "1132.0", "trial_number": "2", "pre_actions": "1", "move": "r@13", "instance": "prb25861", "distance_to_goal": "NA", "progress": "NA", "move_number": "3", "optimal_length": "16", "subject": "A214HWAW1PYWO8:34BBWHLWHBJ6SUL255PK30LEGY5IWG"}
{"meta_move": "drag_end", "rt": "1264.0", "trial_number": "2", "pre_actions": "1", "move": "4@26", "instance": "prb25861", "distance_to_goal": "NA", "progress": "NA", "move_number": "4", "optimal_length": "16", "subject": "A214HWAW1PYWO8:34BBWHLWHBJ6SUL255PK30LEGY5IWG"}
{"meta_move": "drag_end", "rt": "541.0", "trial_number": "2", "pre_actions": "1", "move": "6@18", "instance": "prb25861", "distance_to_goal": "NA", "progress": "NA", "move_number": "5", "optimal_length": "16", "subject": "A214HWAW1PYWO8:34BBWHLWHBJ6SUL255PK30LEGY5IWG"}
{"meta_move": "drag_end", "rt": "1498.0", "trial_number": "2", "pre_actions": "1", "move": "5@27", "instance": "prb25861", "distance_to_goal": "NA", "progress": "NA", "move_number": "6", "optimal_length": "16", "subject": "A214HWAW1PYWO8:34BBWHLWHBJ6SUL255PK30LEGY5IWG"}
{"meta_move": "drag_end", "rt": "949.0", "trial_number": "2", "pre_actions": "1", "move": "2@10", "instance": "prb25861", "distance_to_goal": "NA", "progress": "NA", "move_number": "6", "optimal_length": "16", "subject": "A214HWAW1PYWO8:34BBWHLWHBJ6SUL255PK30LEGY5IWG"}
{"meta_move": "drag_end", "rt": "726.0", "trial_number": "2", "pre_actions": "1", "move": "5@15", "instance": "prb25861", "distance_to_goal": "NA", "progress": "NA", "move_number": "7", "optimal_length": "16", "subject": "A214HWAW1PYWO8:34BBWHLWHBJ6SUL255PK30LEGY5IWG"}
{"meta_move": "drag_end", "rt": "584.0", "trial_number": "2", "pre_actions": "1", "move": "7@8", "instance": "prb25861", "distance_to_goal": "NA", "progress": "NA", "move_number": "8", "optimal_length": "16", "subject": "A214HWAW1PYWO8:34BBWHLWHBJ6SUL255PK30LEGY5IWG"}
{"meta_move": "drag_end", "rt": "261.0", "trial_number": "2", "pre_actions": "1", "move": "2@10", "instance": "prb25861", "distance_to_goal": "NA", "progress": "NA", "move_number": "8", "optimal_length": "16", "subject": "A214HWAW1PYWO8:34BBWHLWHBJ6SUL255PK30LEGY5IWG"}
{"meta_move": "drag_end", "rt": "404.0", "trial_number": "2", "pre_actions": "1", "move": "5@27", "instance": "prb25861", "distance_to_goal": "NA", "progress": "NA", "move_number": "8", "optimal_length": "16", "subject": "A214HWAW1PYWO8:34BBWHLWHBJ6SUL255PK30LEGY5IWG"}
{"meta_move": "drag_end", "rt": "1004.0", "trial_number": "2", "pre_actions": "1", "move": "r@14", "instance": "prb25861", "distance_to_goal": "NA", "progress": "NA", "move_number": "9", "optimal_length": "16", "subject": "A214HWAW1PYWO8:34BBWHLWHBJ6SUL255PK30LEGY5IWG"}
{"meta_move": "drag_end", "rt": "4648.0", "trial_number": "2", "pre_actions": "1", "move": "2@4", "instance": "prb25861", "distance_to_goal": "NA", "progress": "NA", "move_number": "10", "optimal_length": "16", "subject": "A214HWAW1PYWO8:34BBWHLWHBJ6SUL255PK30LEGY5IWG"}
{"meta_move": "drag_end", "rt": "481.0", "trial_number": "2", "pre_actions": "1", "move": "6@21", "instance": "prb25861", "distance_to_goal": "NA", "progress": "NA", "move_number": "11", "optimal_length": "16", "subject": "A214HWAW1PYWO8:34BBWHLWHBJ6SUL255PK30LEGY5IWG"}
{"meta_move": "drag_end", "rt": "962.0", "trial_number": "2", "pre_actions": "1", "move": "r@14", "instance": "prb25861", "distance_to_goal": "NA", "progress": "NA", "move_number": "12", "optimal_length": "16", "subject": "A214HWAW1PYWO8:34BBWHLWHBJ6SUL255PK30LEGY5IWG"}
{"meta_move": "drag_end", "rt": "1434.0", "trial_number": "2", "pre_actions": "1", "move": "r@13", "instance": "prb25861", "distance_to_goal": "NA", "progress": "NA", "move_number": "12", "optimal_length": "16", "subject": "A214HWAW1PYWO8:34BBWHLWHBJ6SUL255PK30LEGY5IWG"}
{"meta_move": "drag_end", "rt": "381.0", "trial_number": "2", "pre_actions": "1", "move": "r@14", "instance": "prb25861", "distance_to_goal": "NA", "progress": "NA", "move_number": "13", "optimal_length": "16", "subject": "A214HWAW1PYWO8:34BBWHLWHBJ6SUL255PK30LEGY5IWG"}
{"meta_move": "drag_end", "rt": "508.0", "trial_number": "2", "pre_actions": "1", "move": "0@18", "instance": "prb25861", "distance_to_goal": "NA", "progress": "NA", "move_number": "14", "optimal_length": "16", "subject": "A214HWAW1PYWO8:34BBWHLWHBJ6SUL255PK30LEGY5IWG"}
