{"rt": "54096.0", "trial_number": "0", "skipped": "False", "complete": "True", "assignment": "3TYCR1GOTDRCCQYD1V64UK7OHTBZLQ", "start_time": "1.51753656782e+12", "human_length": "43", "nodes_expanded": "999", "instance": "prb25604", "end_time": "1.51753662192e+12", "optimal_length": "16", "subject": "A13BZCNJ0WR1T7"}
{"rt": "0.0", "trial_number": "0", "skipped": "False", "complete": "False", "assignment": "3YW4XOSQKRTI0K0Z2YPDTDJVFABU1I", "start_time": "1.51682523702e+12", "human_length": "1", "nodes_expanded": "999", "instance": "prb25604", "end_time": "1.51682523702e+12", "optimal_length": "16", "subject": "A15781PHGW377Y"}
{"rt": "35913.0", "trial_number": "1", "skipped": "False", "complete": "True", "assignment": "3YW4XOSQKRTI0K0Z2YPDTDJVFABU1I", "start_time": "1.51682523702e+12", "human_length": "22", "nodes_expanded": "999", "instance": "prb25604", "end_time": "1.51682527294e+12", "optimal_length": "16", "subject": "A15781PHGW377Y"}
{"rt": "35913.0", "trial_number": "0", "skipped": "False", "complete": "True", "assignment": "3YW4XOSQKRTI0K0Z2YPDTDJVFABU1I", "start_time": "1.51682523702e+12", "human_length": "22", "nodes_expanded": "999", "instance": "prb25604", "end_time": "1.51682527294e+12", "optimal_length": "16", "subject": "A15781PHGW377Y"}
{"rt": "115037.0", "trial_number": "0", "skipped": "False", "complete": "True", "assignment": "3TS1AR6UQRM7SOIBWPBN8N9589Y7FV", "start_time": "1.51684229323e+12", "human_length": "69", "nodes_expanded": "999", "instance": "prb25604", "end_time": "1.51684240827e+12", "optimal_length": "16", "subject": "A15FXHC1CVNW31"}
{"rt": "58872.0", "trial_number": "0", "skipped": "False", "complete": "False", "assignment": "3VE8AYVF8N5BS2NU6U3TMN50JMNF8V", "start_time": "1.51673493538e+12", "human_length": "14", "nodes_expanded": "999", "instance": "prb25604", "end_time": "1.51673499425e+12", "optimal_length": "16", "subject": "A18QU0YQB6Q8DF"}
{"rt": "0.0", "trial_number": "1", "skipped": "False", "complete": "False", "assignment": "3VE8AYVF8N5BS2NU6U3TMN50JMNF8V", "start_time": "1.51673499798e+12", "human_length": "1", "nodes_expanded": "999", "instance": "prb25604", "end_time": "1.51673499798e+12", "optimal_length": "16", "subject": "A18QU0YQB6Q8DF"}
{"rt": "0.0", "trial_number": "2", "skipped": "False", "complete": "False", "assignment": "3VE8AYVF8N5BS2NU6U3TMN50JMNF8V", "start_time": "1.51673493538e+12", "human_length": "1", "nodes_expanded": "999", "instance": "prb25604", "end_time": "1.51673493538e+12", "optimal_length": "16", "subject": "A18QU0YQB6Q8DF"}
{"rt": "0.0", "trial_number": "3", "skipped": "False", "complete": "False", "assignment": "3VE8AYVF8N5BS2NU6U3TMN50JMNF8V", "start_time": "1.51673499798e+12", "human_length": "1", "nodes_expanded": "999", "instance": "prb25604", "end_time": "1.51673499798e+12", "optimal_length": "16", "subject": "A18QU0YQB6Q8DF"}
{"rt": "0.0", "trial_number": "4", "skipped": "False", "complete": "False", "assignment": "3VE8AYVF8N5BS2NU6U3TMN50JMNF8V", "start_time": "1.51673493538e+12", "human_length": "1", "nodes_expanded": "999", "instance": "prb25604", "end_time": "1.51673493538e+12", "optimal_length": "16", "subject": "A18QU0YQB6Q8DF"}
{"rt": "68849.0", "trial_number": "5", "skipped": "True", "complete": "False", "assignment": "3VE8AYVF8N5BS2NU6U3TMN50JMNF8V", "start_time": "1.51673499798e+12", "human_length": "101", "nodes_expanded": "999", "instance": "prb25604", "end_time": "1.51673506683e+12", "optimal_length": "16", "subject": "A18QU0YQB6Q8DF"}
{"rt": "58872.0", "trial_number": "0", "skipped": "False", "complete": "False", "assignment": "3VE8AYVF8N5BS2NU6U3TMN50JMNF8V", "start_time": "1.51673493538e+12", "human_length": "14", "nodes_expanded": "999", "instance": "prb25604", "end_time": "1.51673499425e+12", "optimal_length": "16", "subject": "A18QU0YQB6Q8DF"}
{"rt": "68849.0", "trial_number": "1", "skipped": "True", "complete": "False", "assignment": "3VE8AYVF8N5BS2NU6U3TMN50JMNF8V", "start_time": "1.51673499798e+12", "human_length": "27", "nodes_expanded": "999", "instance": "prb25604", "end_time": "1.51673506683e+12", "optimal_length": "16", "subject": "A18QU0YQB6Q8DF"}
{"rt": "27445.0", "trial_number": "0", "skipped": "False", "complete": "True", "assignment": "3IJXV6UZ1YR1KY4G6BFEG1DXR47RIC", "start_time": "1.51797271404e+12", "human_length": "24", "nodes_expanded": "999", "instance": "prb25604", "end_time": "1.51797274148e+12", "optimal_length": "16", "subject": "A18T3WK7J16C1B"}
{"rt": "15996.0", "trial_number": "0", "skipped": "False", "complete": "True", "assignment": "3PMBY0YE28B43VMUKKJ6EDF85RV9C8", "start_time": "1.51638621697e+12", "human_length": "17", "nodes_expanded": "999", "instance": "prb25604", "end_time": "1.51638623297e+12", "optimal_length": "16", "subject": "A191V7PT3DQKDP"}
{"rt": "28556.0", "trial_number": "0", "skipped": "False", "complete": "True", "assignment": "3H0W84IWBLAP4T2UASPNVMF5ZH7ER9", "start_time": "1.51755241611e+12", "human_length": "21", "nodes_expanded": "999", "instance": "prb25604", "end_time": "1.51755244467e+12", "optimal_length": "16", "subject": "A1AKX1C8GCVCTP"}
{"rt": "19759.0", "trial_number": "0", "skipped": "False", "complete": "True", "assignment": "3ZSANO2JCGFTBM23KS9Y3E51YP4FSQ", "start_time": "1.51814268382e+12", "human_length": "18", "nodes_expanded": "999", "instance": "prb25604", "end_time": "1.51814270358e+12", "optimal_length": "16", "subject": "A1F42D4L22K5ND"}
{"rt": "16494.0", "trial_number": "0", "skipped": "False", "complete": "True", "assignment": "3TS1AR6UQRM7SOIBWPBN8N9589Y7FV", "start_time": "1.51683976788e+12", "human_length": "18", "nodes_expanded": "999", "instance": "prb25604", "end_time": "1.51683978438e+12", "optimal_length": "16", "subject": "A1F4N58CAX8IMK"}
{"rt": "25334.0", "trial_number": "1", "skipped": "False", "complete": "True", "assignment": "35DR22AR5ES6RR89U7EJ1DXW91AX3P", "start_time": "1.51795370629e+12", "human_length": "18", "nodes_expanded": "999", "instance": "prb25604", "end_time": "1.51795373162e+12", "optimal_length": "16", "subject": "A1F4N58CAX8IMK"}
{"rt": "29166.0", "trial_number": "0", "skipped": "False", "complete": "True", "assignment": "33F859I567LE8WC74WB3GA7E94XBHW", "start_time": "1.51796855939e+12", "human_length": "27", "nodes_expanded": "999", "instance": "prb25604", "end_time": "1.51796858855e+12", "optimal_length": "16", "subject": "A1GQS6USF2JEYG"}
{"rt": "32161.0", "trial_number": "0", "skipped": "False", "complete": "True", "assignment": "3XLBSAQ9Z5KDX59BX15UBFPNNHYZ7Q", "start_time": "1.51814576491e+12", "human_length": "29", "nodes_expanded": "999", "instance": "prb25604", "end_time": "1.51814579707e+12", "optimal_length": "16", "subject": "A1HFNOKU591WCY"}
{"rt": "25803.0", "trial_number": "0", "skipped": "False", "complete": "True", "assignment": "3FTF2T8WLSQDHTSZ1BJ7Q7MB14SW9H", "start_time": "1.51813631827e+12", "human_length": "22", "nodes_expanded": "999", "instance": "prb25604", "end_time": "1.51813634407e+12", "optimal_length": "16", "subject": "A1IUH9D7N69VS"}
{"rt": "0.0", "trial_number": "0", "skipped": "False", "complete": "False", "assignment": "3YW4XOSQKRTI0K0Z2YPDTDJVFABU1I", "start_time": "1.51683077014e+12", "human_length": "1", "nodes_expanded": "999", "instance": "prb25604", "end_time": "1.51683077014e+12", "optimal_length": "16", "subject": "A1LR0VQIHQUJAM"}
{"rt": "83577.0", "trial_number": "1", "skipped": "False", "complete": "True", "assignment": "3YW4XOSQKRTI0K0Z2YPDTDJVFABU1I", "start_time": "1.51683077014e+12", "human_length": "57", "nodes_expanded": "999", "instance": "prb25604", "end_time": "1.51683085372e+12", "optimal_length": "16", "subject": "A1LR0VQIHQUJAM"}
{"rt": "69262.0", "trial_number": "0", "skipped": "False", "complete": "True", "assignment": "3R5F3LQFV3SKIB1AENMWM1BICT5OZB", "start_time": "1.51795797698e+12", "human_length": "51", "nodes_expanded": "999", "instance": "prb25604", "end_time": "1.51795804624e+12", "optimal_length": "16", "subject": "A1N1EF0MIRSEZZ"}
{"rt": "29745.0", "trial_number": "0", "skipped": "False", "complete": "True", "assignment": "31LM9EDVOM0C0BWUVMJXJINN3QPJNI", "start_time": "1.51752398009e+12", "human_length": "22", "nodes_expanded": "999", "instance": "prb25604", "end_time": "1.51752400984e+12", "optimal_length": "16", "subject": "A1NT8BT94ME6F5"}
{"rt": "1021815.0", "trial_number": "0", "skipped": "False", "complete": "True", "assignment": "3PB5A5BD0WED6OE679H5Q89HBDGG71", "start_time": "1.51795117257e+12", "human_length": "25", "nodes_expanded": "999", "instance": "prb25604", "end_time": "1.51795219438e+12", "optimal_length": "16", "subject": "A1USR9JCAMDGM3"}
{"rt": "91708.0", "trial_number": "0", "skipped": "False", "complete": "False", "assignment": "3XC1O3LBOTUGQEPEV3HM8W67X4RTLL", "start_time": "1.51813718713e+12", "human_length": "48", "nodes_expanded": "999", "instance": "prb25604", "end_time": "1.51813727884e+12", "optimal_length": "16", "subject": "A1ZTSCPETU3UJW"}
{"rt": "52464.0", "trial_number": "1", "skipped": "True", "complete": "False", "assignment": "3XC1O3LBOTUGQEPEV3HM8W67X4RTLL", "start_time": "1.51813728139e+12", "human_length": "29", "nodes_expanded": "999", "instance": "prb25604", "end_time": "1.51813733386e+12", "optimal_length": "16", "subject": "A1ZTSCPETU3UJW"}
{"rt": "16679.0", "trial_number": "0", "skipped": "False", "complete": "True", "assignment": "34BBWHLWHBJ6SUL255PK30LEGY5IWG", "start_time": "1.51639241632e+12", "human_length": "22", "nodes_expanded": "999", "instance": "prb25604", "end_time": "1.516392433e+12", "optimal_length": "16", "subject": "A214HWAW1PYWO8"}
{"rt": "0.0", "trial_number": "0", "skipped": "False", "complete": "False", "assignment": "3X87C8JFV7JQ2BSCY8KSFD9F2ILSQK", "start_time": "1.51674528005e+12", "human_length": "1", "nodes_expanded": "999", "instance": "prb25604", "end_time": "1.51674528005e+12", "optimal_length": "16", "subject": "A21S7MA9DCW95E"}
{"rt": "0.0", "trial_number": "1", "skipped": "False", "complete": "False", "assignment": "3X87C8JFV7JQ2BSCY8KSFD9F2ILSQK", "start_time": "1.51674528005e+12", "human_length": "1", "nodes_expanded": "999", "instance": "prb25604", "end_time": "1.51674528005e+12", "optimal_length": "16", "subject": "A21S7MA9DCW95E"}
{"rt": "30153.0", "trial_number": "2", "skipped": "False", "complete": "True", "assignment": "3X87C8JFV7JQ2BSCY8KSFD9F2ILSQK", "start_time": "1.51674528005e+12", "human_length": "22", "nodes_expanded": "999", "instance": "prb25604", "end_time": "1.51674531021e+12", "optimal_length": "16", "subject": "A21S7MA9DCW95E"}
{"rt": "30153.0", "trial_number": "0", "skipped": "False", "complete": "True", "assignment": "3X87C8JFV7JQ2BSCY8KSFD9F2ILSQK", "start_time": "1.51674528005e+12", "human_length": "22", "nodes_expanded": "999", "instance": "prb25604", "end_time": "1.51674531021e+12", "optimal_length": "16", "subject": "A21S7MA9DCW95E"}
{"rt": "0.0", "trial_number": "0", "skipped": "False", "complete": "False", "assignment": "3IHR8NYAM89M0EPM8U9LH53ZJDTP4U", "start_time": "1.51682598149e+12", "human_length": "1", "nodes_expanded": "999", "instance": "prb25604", "end_time": "1.51682598149e+12", "optimal_length": "16", "subject": "A23437BMZ5T1FH"}
{"rt": "28835.0", "trial_number": "1", "skipped": "True", "complete": "False", "assignment": "3IHR8NYAM89M0EPM8U9LH53ZJDTP4U", "start_time": "1.51682598149e+12", "human_length": "41", "nodes_expanded": "999", "instance": "prb25604", "end_time": "1.51682601032e+12", "optimal_length": "16", "subject": "A23437BMZ5T1FH"}
{"rt": "36109.0", "trial_number": "0", "skipped": "False", "complete": "False", "assignment": "30IQTZXKALEAAZ9CBKW0ZFZP6O5X07", "start_time": "1.51794404648e+12", "human_length": "16", "nodes_expanded": "999", "instance": "prb25604", "end_time": "1.51794408259e+12", "optimal_length": "16", "subject": "A23XJ8I86R0O3B"}
{"rt": "26960.0", "trial_number": "1", "skipped": "False", "complete": "False", "assignment": "30IQTZXKALEAAZ9CBKW0ZFZP6O5X07", "start_time": "1.51794409552e+12", "human_length": "10", "nodes_expanded": "999", "instance": "prb25604", "end_time": "1.51794412248e+12", "optimal_length": "16", "subject": "A23XJ8I86R0O3B"}
{"rt": "83311.0", "trial_number": "2", "skipped": "True", "complete": "False", "assignment": "30IQTZXKALEAAZ9CBKW0ZFZP6O5X07", "start_time": "1.51794412848e+12", "human_length": "28", "nodes_expanded": "999", "instance": "prb25604", "end_time": "1.5179442118e+12", "optimal_length": "16", "subject": "A23XJ8I86R0O3B"}
{"rt": "55755.0", "trial_number": "0", "skipped": "False", "complete": "False", "assignment": "3X4MXAO0BHWJLTOLVSJTHSM54OHWRG", "start_time": "1.51682199506e+12", "human_length": "27", "nodes_expanded": "999", "instance": "prb25604", "end_time": "1.51682205081e+12", "optimal_length": "16", "subject": "A2IBQA01NR5N76"}
{"rt": "0.0", "trial_number": "1", "skipped": "False", "complete": "False", "assignment": "3X4MXAO0BHWJLTOLVSJTHSM54OHWRG", "start_time": "1.51682205326e+12", "human_length": "1", "nodes_expanded": "999", "instance": "prb25604", "end_time": "1.51682205326e+12", "optimal_length": "16", "subject": "A2IBQA01NR5N76"}
{"rt": "0.0", "trial_number": "2", "skipped": "False", "complete": "False", "assignment": "3X4MXAO0BHWJLTOLVSJTHSM54OHWRG", "start_time": "1.51682199506e+12", "human_length": "1", "nodes_expanded": "999", "instance": "prb25604", "end_time": "1.51682199506e+12", "optimal_length": "16", "subject": "A2IBQA01NR5N76"}
{"rt": "23919.0", "trial_number": "3", "skipped": "False", "complete": "True", "assignment": "3X4MXAO0BHWJLTOLVSJTHSM54OHWRG", "start_time": "1.51682205326e+12", "human_length": "18", "nodes_expanded": "999", "instance": "prb25604", "end_time": "1.51682207718e+12", "optimal_length": "16", "subject": "A2IBQA01NR5N76"}
{"rt": "55755.0", "trial_number": "0", "skipped": "False", "complete": "False", "assignment": "3X4MXAO0BHWJLTOLVSJTHSM54OHWRG", "start_time": "1.51682199506e+12", "human_length": "27", "nodes_expanded": "999", "instance": "prb25604", "end_time": "1.51682205081e+12", "optimal_length": "16", "subject": "A2IBQA01NR5N76"}
{"rt": "23919.0", "trial_number": "1", "skipped": "False", "complete": "True", "assignment": "3X4MXAO0BHWJLTOLVSJTHSM54OHWRG", "start_time": "1.51682205326e+12", "human_length": "18", "nodes_expanded": "999", "instance": "prb25604", "end_time": "1.51682207718e+12", "optimal_length": "16", "subject": "A2IBQA01NR5N76"}
{"rt": "44337.0", "trial_number": "0", "skipped": "False", "complete": "True", "assignment": "3TAYZSBPLMG9ASQRWXURJVBCPLN2SH", "start_time": "1.51813633514e+12", "human_length": "28", "nodes_expanded": "999", "instance": "prb25604", "end_time": "1.51813637948e+12", "optimal_length": "16", "subject": "A2RCYLKY072XXO"}
{"rt": "0.0", "trial_number": "0", "skipped": "False", "complete": "False", "assignment": "3IJXV6UZ1YR1KY4G6BFEG1DXP7SRI1", "start_time": "1.51675095248e+12", "human_length": "1", "nodes_expanded": "999", "instance": "prb25604", "end_time": "1.51675095248e+12", "optimal_length": "16", "subject": "A2RTJ6BDY0DZVZ"}
{"rt": "0.0", "trial_number": "1", "skipped": "False", "complete": "False", "assignment": "3IJXV6UZ1YR1KY4G6BFEG1DXP7SRI1", "start_time": "1.51675095248e+12", "human_length": "1", "nodes_expanded": "999", "instance": "prb25604", "end_time": "1.51675095248e+12", "optimal_length": "16", "subject": "A2RTJ6BDY0DZVZ"}
{"rt": "30814.0", "trial_number": "2", "skipped": "False", "complete": "True", "assignment": "3IJXV6UZ1YR1KY4G6BFEG1DXP7SRI1", "start_time": "1.51675095248e+12", "human_length": "22", "nodes_expanded": "999", "instance": "prb25604", "end_time": "1.51675098329e+12", "optimal_length": "16", "subject": "A2RTJ6BDY0DZVZ"}
{"rt": "30814.0", "trial_number": "0", "skipped": "False", "complete": "True", "assignment": "3IJXV6UZ1YR1KY4G6BFEG1DXP7SRI1", "start_time": "1.51675095248e+12", "human_length": "22", "nodes_expanded": "999", "instance": "prb25604", "end_time": "1.51675098329e+12", "optimal_length": "16", "subject": "A2RTJ6BDY0DZVZ"}
{"rt": "0.0", "trial_number": "0", "skipped": "False", "complete": "False", "assignment": "3WSELTNVR4AZUVYAYCSWZIQW0J4ATB", "start_time": "1.51674025606e+12", "human_length": "1", "nodes_expanded": "999", "instance": "prb25604", "end_time": "1.51674025606e+12", "optimal_length": "16", "subject": "A2TQNX64349OZ9"}
{"rt": "0.0", "trial_number": "1", "skipped": "False", "complete": "False", "assignment": "3WSELTNVR4AZUVYAYCSWZIQW0J4ATB", "start_time": "1.51674025606e+12", "human_length": "1", "nodes_expanded": "999", "instance": "prb25604", "end_time": "1.51674025606e+12", "optimal_length": "16", "subject": "A2TQNX64349OZ9"}
{"rt": "16497.0", "trial_number": "2", "skipped": "True", "complete": "False", "assignment": "3WSELTNVR4AZUVYAYCSWZIQW0J4ATB", "start_time": "1.51674025606e+12", "human_length": "45", "nodes_expanded": "999", "instance": "prb25604", "end_time": "1.51674027256e+12", "optimal_length": "16", "subject": "A2TQNX64349OZ9"}
{"rt": "16497.0", "trial_number": "0", "skipped": "True", "complete": "False", "assignment": "3WSELTNVR4AZUVYAYCSWZIQW0J4ATB", "start_time": "1.51674025606e+12", "human_length": "19", "nodes_expanded": "999", "instance": "prb25604", "end_time": "1.51674027256e+12", "optimal_length": "16", "subject": "A2TQNX64349OZ9"}
{"rt": "32109.0", "trial_number": "0", "skipped": "False", "complete": "True", "assignment": "3JCG6DTRV4YEPVDZ64VNKDUEMPGQQ1", "start_time": "1.51794762034e+12", "human_length": "16", "nodes_expanded": "999", "instance": "prb25604", "end_time": "1.51794765245e+12", "optimal_length": "16", "subject": "A2V7KYLBCBTI3B"}
{"rt": "40451.0", "trial_number": "0", "skipped": "False", "complete": "True", "assignment": "37TD41K0AIHM8AITTQJXV8KY05QCSB", "start_time": "1.51752303583e+12", "human_length": "22", "nodes_expanded": "999", "instance": "prb25604", "end_time": "1.51752307628e+12", "optimal_length": "16", "subject": "A30KYQGABO7JER"}
{"rt": "28570.0", "trial_number": "0", "skipped": "False", "complete": "True", "assignment": "34HJIJKLP64Z5YMIU6IKNXSH7PDV4I", "start_time": "1.51794098913e+12", "human_length": "21", "nodes_expanded": "999", "instance": "prb25604", "end_time": "1.5179410177e+12", "optimal_length": "16", "subject": "A3CTXNQ2GXIQSP"}
{"rt": "20940.0", "trial_number": "0", "skipped": "False", "complete": "True", "assignment": "3TPWUS5F8A9FFRZ2DVTYSXNJ6BWWC6", "start_time": "1.51794182347e+12", "human_length": "18", "nodes_expanded": "999", "instance": "prb25604", "end_time": "1.51794184441e+12", "optimal_length": "16", "subject": "A3GXC3VG37CQ3G"}
{"rt": "43757.0", "trial_number": "0", "skipped": "False", "complete": "True", "assignment": "3V5Q80FXIYZ5QB5C6ITQBN30WY823U", "start_time": "1.51753580916e+12", "human_length": "18", "nodes_expanded": "999", "instance": "prb25604", "end_time": "1.51753585292e+12", "optimal_length": "16", "subject": "A3NMQ3019X6YE0"}
{"rt": "43757.0", "trial_number": "0", "skipped": "False", "complete": "True", "assignment": "3V5Q80FXIYZ5QB5C6ITQBN30WY823U", "start_time": "1.51753580916e+12", "human_length": "18", "nodes_expanded": "999", "instance": "prb25604", "end_time": "1.51753585292e+12", "optimal_length": "16", "subject": "A3NMQ3019X6YE0"}
{"rt": "0.0", "trial_number": "0", "skipped": "False", "complete": "False", "assignment": "3X87C8JFV7JQ2BSCY8KSFD9F2ILSQK", "start_time": "1.51673769023e+12", "human_length": "1", "nodes_expanded": "999", "instance": "prb25604", "end_time": "1.51673769023e+12", "optimal_length": "16", "subject": "A3Q0XAGQ7TD7MP"}
{"rt": "0.0", "trial_number": "1", "skipped": "False", "complete": "False", "assignment": "3X87C8JFV7JQ2BSCY8KSFD9F2ILSQK", "start_time": "1.51673769023e+12", "human_length": "1", "nodes_expanded": "999", "instance": "prb25604", "end_time": "1.51673769023e+12", "optimal_length": "16", "subject": "A3Q0XAGQ7TD7MP"}
{"rt": "70984.0", "trial_number": "2", "skipped": "False", "complete": "True", "assignment": "3X87C8JFV7JQ2BSCY8KSFD9F2ILSQK", "start_time": "1.51673769023e+12", "human_length": "31", "nodes_expanded": "999", "instance": "prb25604", "end_time": "1.51673776122e+12", "optimal_length": "16", "subject": "A3Q0XAGQ7TD7MP"}
{"rt": "35304.0", "trial_number": "3", "skipped": "False", "complete": "True", "assignment": "3GLB5JMZFY3TNXFGYMKRQ0JDXNTDGZ", "start_time": "1.51794553913e+12", "human_length": "17", "nodes_expanded": "999", "instance": "prb25604", "end_time": "1.51794557444e+12", "optimal_length": "16", "subject": "A3Q0XAGQ7TD7MP"}
{"rt": "70984.0", "trial_number": "0", "skipped": "False", "complete": "True", "assignment": "3X87C8JFV7JQ2BSCY8KSFD9F2ILSQK", "start_time": "1.51673769023e+12", "human_length": "31", "nodes_expanded": "999", "instance": "prb25604", "end_time": "1.51673776122e+12", "optimal_length": "16", "subject": "A3Q0XAGQ7TD7MP"}
{"rt": "35304.0", "trial_number": "1", "skipped": "False", "complete": "True", "assignment": "3GLB5JMZFY3TNXFGYMKRQ0JDXNTDGZ", "start_time": "1.51794553913e+12", "human_length": "17", "nodes_expanded": "999", "instance": "prb25604", "end_time": "1.51794557444e+12", "optimal_length": "16", "subject": "A3Q0XAGQ7TD7MP"}
{"rt": "29385.0", "trial_number": "0", "skipped": "False", "complete": "True", "assignment": "3M0BCWMB8W4W5M7WZVX3HDH1P53WB1", "start_time": "1.51816001568e+12", "human_length": "24", "nodes_expanded": "999", "instance": "prb25604", "end_time": "1.51816004507e+12", "optimal_length": "16", "subject": "A53S7J4JGWG38"}
{"rt": "0.0", "trial_number": "0", "skipped": "False", "complete": "False", "assignment": "34T446B1C1MM71YHKO0DL2EF3BLC0W", "start_time": "1.51673487651e+12", "human_length": "1", "nodes_expanded": "999", "instance": "prb25604", "end_time": "1.51673487651e+12", "optimal_length": "16", "subject": "ABL3H3O3BI8ZD"}
{"rt": "0.0", "trial_number": "1", "skipped": "False", "complete": "False", "assignment": "34T446B1C1MM71YHKO0DL2EF3BLC0W", "start_time": "1.51673487651e+12", "human_length": "1", "nodes_expanded": "999", "instance": "prb25604", "end_time": "1.51673487651e+12", "optimal_length": "16", "subject": "ABL3H3O3BI8ZD"}
{"rt": "0.0", "trial_number": "2", "skipped": "True", "complete": "False", "assignment": "34T446B1C1MM71YHKO0DL2EF3BLC0W", "start_time": "1.51673487651e+12", "human_length": "1", "nodes_expanded": "999", "instance": "prb25604", "end_time": "1.51673487651e+12", "optimal_length": "16", "subject": "ABL3H3O3BI8ZD"}
{"rt": "0.0", "trial_number": "0", "skipped": "True", "complete": "False", "assignment": "34T446B1C1MM71YHKO0DL2EF3BLC0W", "start_time": "1.51673487651e+12", "human_length": "1", "nodes_expanded": "999", "instance": "prb25604", "end_time": "1.51673487651e+12", "optimal_length": "16", "subject": "ABL3H3O3BI8ZD"}
{"rt": "19548.0", "trial_number": "0", "skipped": "False", "complete": "True", "assignment": "3IXEICO793RY7TM78ZBKJDOA7ADT6Q", "start_time": "1.51816907925e+12", "human_length": "16", "nodes_expanded": "999", "instance": "prb25604", "end_time": "1.5181690988e+12", "optimal_length": "16", "subject": "ALH1K6ZAQQMN7"}
{"rt": "28061.0", "trial_number": "0", "skipped": "True", "complete": "False", "assignment": "36H9ULYP6320CJJDXY0KBDEE1Z3JFB", "start_time": "1.51753316808e+12", "human_length": "13", "nodes_expanded": "999", "instance": "prb25604", "end_time": "1.51753319614e+12", "optimal_length": "16", "subject": "AN098C29EGJ6"}
{"rt": "57283.0", "trial_number": "0", "skipped": "False", "complete": "True", "assignment": "3HWRJOOET6A15827PHPSLWK1MOYSEU", "start_time": "1.51814492411e+12", "human_length": "45", "nodes_expanded": "999", "instance": "prb25604", "end_time": "1.51814498139e+12", "optimal_length": "16", "subject": "AO1QGAUZ85T6L"}
{"rt": "14063.0", "trial_number": "0", "skipped": "False", "complete": "True", "assignment": "3AZHRG4CU5SYU12YRVPCSZALW5003R", "start_time": "1.51630728753e+12", "human_length": "18", "nodes_expanded": "999", "instance": "prb25604", "end_time": "1.51630730159e+12", "optimal_length": "16", "subject": "ARWF605I7RWM7"}
{"rt": "33528.0", "trial_number": "0", "skipped": "False", "complete": "True", "assignment": "33PPO7FECWN7JOLBOAKUBCWTC0AIDL", "start_time": "1.51795074031e+12", "human_length": "19", "nodes_expanded": "999", "instance": "prb25604", "end_time": "1.51795077384e+12", "optimal_length": "16", "subject": "AXKM02NVXNGOM"}
{"rt": "98365.0", "trial_number": "0", "skipped": "False", "complete": "True", "assignment": "3ON104KXQL4CKNMNKGNG9ZBVBAB4WI", "start_time": "1.51631245632e+12", "human_length": "62", "nodes_expanded": "999", "instance": "prb25604", "end_time": "1.51631255468e+12", "optimal_length": "16", "subject": "AYPOAY43REHC8"}
