{"meta_move": "drag_end", "rt": "5562.0", "trial_number": "1", "pre_actions": "1", "move": "4@17", "instance": "prb22436", "distance_to_goal": "NA", "progress": "NA", "move_number": "0", "optimal_length": "11", "subject": "A15781PHGW377Y:3YW4XOSQKRTI0K0Z2YPDTDJVFABU1I"}
{"meta_move": "drag_end", "rt": "1489.0", "trial_number": "1", "pre_actions": "1", "move": "3@27", "instance": "prb22436", "distance_to_goal": "NA", "progress": "NA", "move_number": "1", "optimal_length": "11", "subject": "A15781PHGW377Y:3YW4XOSQKRTI0K0Z2YPDTDJVFABU1I"}
{"meta_move": "drag_end", "rt": "1438.0", "trial_number": "1", "pre_actions": "1", "move": "2@34", "instance": "prb22436", "distance_to_goal": "NA", "progress": "NA", "move_number": "2", "optimal_length": "11", "subject": "A15781PHGW377Y:3YW4XOSQKRTI0K0Z2YPDTDJVFABU1I"}
{"meta_move": "drag_end", "rt": "1039.0", "trial_number": "1", "pre_actions": "1", "move": "0@20", "instance": "prb22436", "distance_to_goal": "NA", "progress": "NA", "move_number": "3", "optimal_length": "11", "subject": "A15781PHGW377Y:3YW4XOSQKRTI0K0Z2YPDTDJVFABU1I"}
{"meta_move": "drag_end", "rt": "1643.0", "trial_number": "1", "pre_actions": "1", "move": "1@8", "instance": "prb22436", "distance_to_goal": "NA", "progress": "NA", "move_number": "4", "optimal_length": "11", "subject": "A15781PHGW377Y:3YW4XOSQKRTI0K0Z2YPDTDJVFABU1I"}
{"meta_move": "drag_end", "rt": "1374.0", "trial_number": "1", "pre_actions": "1", "move": "4@5", "instance": "prb22436", "distance_to_goal": "NA", "progress": "NA", "move_number": "5", "optimal_length": "11", "subject": "A15781PHGW377Y:3YW4XOSQKRTI0K0Z2YPDTDJVFABU1I"}
{"meta_move": "drag_end", "rt": "1254.0", "trial_number": "1", "pre_actions": "1", "move": "r@14", "instance": "prb22436", "distance_to_goal": "NA", "progress": "NA", "move_number": "6", "optimal_length": "11", "subject": "A15781PHGW377Y:3YW4XOSQKRTI0K0Z2YPDTDJVFABU1I"}
{"meta_move": "drag_end", "rt": "2145.0", "trial_number": "1", "pre_actions": "1", "move": "5@25", "instance": "prb22436", "distance_to_goal": "NA", "progress": "NA", "move_number": "7", "optimal_length": "11", "subject": "A15781PHGW377Y:3YW4XOSQKRTI0K0Z2YPDTDJVFABU1I"}
{"meta_move": "drag_end", "rt": "856.0", "trial_number": "1", "pre_actions": "1", "move": "1@6", "instance": "prb22436", "distance_to_goal": "NA", "progress": "NA", "move_number": "8", "optimal_length": "11", "subject": "A15781PHGW377Y:3YW4XOSQKRTI0K0Z2YPDTDJVFABU1I"}
{"meta_move": "drag_end", "rt": "1040.0", "trial_number": "1", "pre_actions": "1", "move": "6@4", "instance": "prb22436", "distance_to_goal": "NA", "progress": "NA", "move_number": "9", "optimal_length": "11", "subject": "A15781PHGW377Y:3YW4XOSQKRTI0K0Z2YPDTDJVFABU1I"}
{"meta_move": "win", "rt": "770.0", "trial_number": "1", "pre_actions": "1", "move": "r@14", "instance": "prb22436", "distance_to_goal": "1", "progress": "NA", "move_number": "10", "optimal_length": "11", "subject": "A15781PHGW377Y:3YW4XOSQKRTI0K0Z2YPDTDJVFABU1I"}
{"meta_move": "drag_end", "rt": "174.0", "trial_number": "0", "pre_actions": "0", "move": "r@16", "instance": "prb22436", "distance_to_goal": "NA", "progress": "NA", "move_number": "10", "optimal_length": "11", "subject": "A15781PHGW377Y:3YW4XOSQKRTI0K0Z2YPDTDJVFABU1I"}
{"meta_move": "drag_end", "rt": "1350.0", "trial_number": "1", "pre_actions": "1", "move": "0@2", "instance": "prb22436", "distance_to_goal": "NA", "progress": "NA", "move_number": "0", "optimal_length": "11", "subject": "A15FXHC1CVNW31:3TS1AR6UQRM7SOIBWPBN8N9589Y7FV"}
{"meta_move": "drag_end", "rt": "712.0", "trial_number": "1", "pre_actions": "1", "move": "3@26", "instance": "prb22436", "distance_to_goal": "NA", "progress": "NA", "move_number": "1", "optimal_length": "11", "subject": "A15FXHC1CVNW31:3TS1AR6UQRM7SOIBWPBN8N9589Y7FV"}
{"meta_move": "drag_end", "rt": "3043.0", "trial_number": "1", "pre_actions": "1", "move": "3@25", "instance": "prb22436", "distance_to_goal": "NA", "progress": "NA", "move_number": "2", "optimal_length": "11", "subject": "A15FXHC1CVNW31:3TS1AR6UQRM7SOIBWPBN8N9589Y7FV"}
{"meta_move": "drag_end", "rt": "686.0", "trial_number": "1", "pre_actions": "1", "move": "3@26", "instance": "prb22436", "distance_to_goal": "NA", "progress": "NA", "move_number": "3", "optimal_length": "11", "subject": "A15FXHC1CVNW31:3TS1AR6UQRM7SOIBWPBN8N9589Y7FV"}
{"meta_move": "drag_end", "rt": "1324.0", "trial_number": "1", "pre_actions": "1", "move": "7@18", "instance": "prb22436", "distance_to_goal": "NA", "progress": "NA", "move_number": "4", "optimal_length": "11", "subject": "A15FXHC1CVNW31:3TS1AR6UQRM7SOIBWPBN8N9589Y7FV"}
{"meta_move": "drag_end", "rt": "600.0", "trial_number": "1", "pre_actions": "1", "move": "2@30", "instance": "prb22436", "distance_to_goal": "NA", "progress": "NA", "move_number": "5", "optimal_length": "11", "subject": "A15FXHC1CVNW31:3TS1AR6UQRM7SOIBWPBN8N9589Y7FV"}
{"meta_move": "drag_end", "rt": "1174.0", "trial_number": "1", "pre_actions": "1", "move": "3@26", "instance": "prb22436", "distance_to_goal": "NA", "progress": "NA", "move_number": "6", "optimal_length": "11", "subject": "A15FXHC1CVNW31:3TS1AR6UQRM7SOIBWPBN8N9589Y7FV"}
{"meta_move": "drag_end", "rt": "1364.0", "trial_number": "1", "pre_actions": "1", "move": "3@25", "instance": "prb22436", "distance_to_goal": "NA", "progress": "NA", "move_number": "6", "optimal_length": "11", "subject": "A15FXHC1CVNW31:3TS1AR6UQRM7SOIBWPBN8N9589Y7FV"}
{"meta_move": "drag_end", "rt": "613.0", "trial_number": "1", "pre_actions": "1", "move": "6@28", "instance": "prb22436", "distance_to_goal": "NA", "progress": "NA", "move_number": "7", "optimal_length": "11", "subject": "A15FXHC1CVNW31:3TS1AR6UQRM7SOIBWPBN8N9589Y7FV"}
{"meta_move": "drag_end", "rt": "2163.0", "trial_number": "1", "pre_actions": "1", "move": "4@17", "instance": "prb22436", "distance_to_goal": "NA", "progress": "NA", "move_number": "8", "optimal_length": "11", "subject": "A15FXHC1CVNW31:3TS1AR6UQRM7SOIBWPBN8N9589Y7FV"}
{"meta_move": "drag_end", "rt": "1361.0", "trial_number": "1", "pre_actions": "1", "move": "6@16", "instance": "prb22436", "distance_to_goal": "NA", "progress": "NA", "move_number": "9", "optimal_length": "11", "subject": "A15FXHC1CVNW31:3TS1AR6UQRM7SOIBWPBN8N9589Y7FV"}
{"meta_move": "drag_end", "rt": "848.0", "trial_number": "1", "pre_actions": "1", "move": "3@27", "instance": "prb22436", "distance_to_goal": "NA", "progress": "NA", "move_number": "10", "optimal_length": "11", "subject": "A15FXHC1CVNW31:3TS1AR6UQRM7SOIBWPBN8N9589Y7FV"}
{"meta_move": "drag_end", "rt": "1193.0", "trial_number": "1", "pre_actions": "1", "move": "0@20", "instance": "prb22436", "distance_to_goal": "NA", "progress": "NA", "move_number": "11", "optimal_length": "11", "subject": "A15FXHC1CVNW31:3TS1AR6UQRM7SOIBWPBN8N9589Y7FV"}
{"meta_move": "drag_end", "rt": "885.0", "trial_number": "1", "pre_actions": "1", "move": "r@14", "instance": "prb22436", "distance_to_goal": "NA", "progress": "NA", "move_number": "12", "optimal_length": "11", "subject": "A15FXHC1CVNW31:3TS1AR6UQRM7SOIBWPBN8N9589Y7FV"}
{"meta_move": "drag_end", "rt": "765.0", "trial_number": "1", "pre_actions": "1", "move": "1@8", "instance": "prb22436", "distance_to_goal": "NA", "progress": "NA", "move_number": "13", "optimal_length": "11", "subject": "A15FXHC1CVNW31:3TS1AR6UQRM7SOIBWPBN8N9589Y7FV"}
{"meta_move": "drag_end", "rt": "1701.0", "trial_number": "1", "pre_actions": "1", "move": "4@5", "instance": "prb22436", "distance_to_goal": "NA", "progress": "NA", "move_number": "14", "optimal_length": "11", "subject": "A15FXHC1CVNW31:3TS1AR6UQRM7SOIBWPBN8N9589Y7FV"}
{"meta_move": "drag_end", "rt": "3577.0", "trial_number": "1", "pre_actions": "1", "move": "4@17", "instance": "prb22436", "distance_to_goal": "NA", "progress": "NA", "move_number": "15", "optimal_length": "11", "subject": "A15FXHC1CVNW31:3TS1AR6UQRM7SOIBWPBN8N9589Y7FV"}
{"meta_move": "drag_end", "rt": "963.0", "trial_number": "1", "pre_actions": "1", "move": "1@9", "instance": "prb22436", "distance_to_goal": "NA", "progress": "NA", "move_number": "16", "optimal_length": "11", "subject": "A15FXHC1CVNW31:3TS1AR6UQRM7SOIBWPBN8N9589Y7FV"}
{"meta_move": "drag_end", "rt": "710.0", "trial_number": "1", "pre_actions": "1", "move": "5@19", "instance": "prb22436", "distance_to_goal": "NA", "progress": "NA", "move_number": "17", "optimal_length": "11", "subject": "A15FXHC1CVNW31:3TS1AR6UQRM7SOIBWPBN8N9589Y7FV"}
{"meta_move": "drag_end", "rt": "731.0", "trial_number": "1", "pre_actions": "1", "move": "1@6", "instance": "prb22436", "distance_to_goal": "NA", "progress": "NA", "move_number": "18", "optimal_length": "11", "subject": "A15FXHC1CVNW31:3TS1AR6UQRM7SOIBWPBN8N9589Y7FV"}
{"meta_move": "drag_end", "rt": "626.0", "trial_number": "1", "pre_actions": "1", "move": "6@4", "instance": "prb22436", "distance_to_goal": "NA", "progress": "NA", "move_number": "19", "optimal_length": "11", "subject": "A15FXHC1CVNW31:3TS1AR6UQRM7SOIBWPBN8N9589Y7FV"}
{"meta_move": "drag_end", "rt": "597.0", "trial_number": "1", "pre_actions": "1", "move": "4@5", "instance": "prb22436", "distance_to_goal": "NA", "progress": "NA", "move_number": "20", "optimal_length": "11", "subject": "A15FXHC1CVNW31:3TS1AR6UQRM7SOIBWPBN8N9589Y7FV"}
{"meta_move": "win", "rt": "776.0", "trial_number": "1", "pre_actions": "1", "move": "r@14", "instance": "prb22436", "distance_to_goal": "1", "progress": "NA", "move_number": "21", "optimal_length": "11", "subject": "A15FXHC1CVNW31:3TS1AR6UQRM7SOIBWPBN8N9589Y7FV"}
{"meta_move": "drag_end", "rt": "116.0", "trial_number": "0", "pre_actions": "0", "move": "r@16", "instance": "prb22436", "distance_to_goal": "NA", "progress": "NA", "move_number": "21", "optimal_length": "11", "subject": "A15FXHC1CVNW31:3TS1AR6UQRM7SOIBWPBN8N9589Y7FV"}
{"meta_move": "drag_end", "rt": "6179.0", "trial_number": "2", "pre_actions": "1", "move": "4@17", "instance": "prb22436", "distance_to_goal": "NA", "progress": "NA", "move_number": "0", "optimal_length": "11", "subject": "A18QU0YQB6Q8DF:3VE8AYVF8N5BS2NU6U3TMN50JMNF8V"}
{"meta_move": "drag_end", "rt": "1176.0", "trial_number": "2", "pre_actions": "1", "move": "3@27", "instance": "prb22436", "distance_to_goal": "NA", "progress": "NA", "move_number": "1", "optimal_length": "11", "subject": "A18QU0YQB6Q8DF:3VE8AYVF8N5BS2NU6U3TMN50JMNF8V"}
{"meta_move": "drag_end", "rt": "1050.0", "trial_number": "2", "pre_actions": "1", "move": "2@34", "instance": "prb22436", "distance_to_goal": "NA", "progress": "NA", "move_number": "2", "optimal_length": "11", "subject": "A18QU0YQB6Q8DF:3VE8AYVF8N5BS2NU6U3TMN50JMNF8V"}
{"meta_move": "drag_end", "rt": "995.0", "trial_number": "2", "pre_actions": "1", "move": "0@20", "instance": "prb22436", "distance_to_goal": "NA", "progress": "NA", "move_number": "3", "optimal_length": "11", "subject": "A18QU0YQB6Q8DF:3VE8AYVF8N5BS2NU6U3TMN50JMNF8V"}
{"meta_move": "drag_end", "rt": "1798.0", "trial_number": "2", "pre_actions": "1", "move": "r@14", "instance": "prb22436", "distance_to_goal": "NA", "progress": "NA", "move_number": "4", "optimal_length": "11", "subject": "A18QU0YQB6Q8DF:3VE8AYVF8N5BS2NU6U3TMN50JMNF8V"}
{"meta_move": "drag_end", "rt": "1298.0", "trial_number": "2", "pre_actions": "1", "move": "1@8", "instance": "prb22436", "distance_to_goal": "NA", "progress": "NA", "move_number": "5", "optimal_length": "11", "subject": "A18QU0YQB6Q8DF:3VE8AYVF8N5BS2NU6U3TMN50JMNF8V"}
{"meta_move": "drag_end", "rt": "1035.0", "trial_number": "2", "pre_actions": "1", "move": "4@5", "instance": "prb22436", "distance_to_goal": "NA", "progress": "NA", "move_number": "6", "optimal_length": "11", "subject": "A18QU0YQB6Q8DF:3VE8AYVF8N5BS2NU6U3TMN50JMNF8V"}
{"meta_move": "drag_end", "rt": "2093.0", "trial_number": "2", "pre_actions": "1", "move": "5@25", "instance": "prb22436", "distance_to_goal": "NA", "progress": "NA", "move_number": "7", "optimal_length": "11", "subject": "A18QU0YQB6Q8DF:3VE8AYVF8N5BS2NU6U3TMN50JMNF8V"}
{"meta_move": "drag_end", "rt": "1555.0", "trial_number": "2", "pre_actions": "1", "move": "1@6", "instance": "prb22436", "distance_to_goal": "NA", "progress": "NA", "move_number": "8", "optimal_length": "11", "subject": "A18QU0YQB6Q8DF:3VE8AYVF8N5BS2NU6U3TMN50JMNF8V"}
{"meta_move": "drag_end", "rt": "1019.0", "trial_number": "2", "pre_actions": "1", "move": "6@4", "instance": "prb22436", "distance_to_goal": "NA", "progress": "NA", "move_number": "9", "optimal_length": "11", "subject": "A18QU0YQB6Q8DF:3VE8AYVF8N5BS2NU6U3TMN50JMNF8V"}
{"meta_move": "win", "rt": "670.0", "trial_number": "2", "pre_actions": "1", "move": "r@14", "instance": "prb22436", "distance_to_goal": "1", "progress": "NA", "move_number": "10", "optimal_length": "11", "subject": "A18QU0YQB6Q8DF:3VE8AYVF8N5BS2NU6U3TMN50JMNF8V"}
{"meta_move": "drag_end", "rt": "356.0", "trial_number": "0", "pre_actions": "0", "move": "r@16", "instance": "prb22436", "distance_to_goal": "NA", "progress": "NA", "move_number": "10", "optimal_length": "11", "subject": "A18QU0YQB6Q8DF:3VE8AYVF8N5BS2NU6U3TMN50JMNF8V"}
{"meta_move": "drag_end", "rt": "4177.0", "trial_number": "1", "pre_actions": "1", "move": "4@17", "instance": "prb22436", "distance_to_goal": "NA", "progress": "NA", "move_number": "0", "optimal_length": "11", "subject": "A191V7PT3DQKDP:3PMBY0YE28B43VMUKKJ6EDF85RV9C8"}
{"meta_move": "drag_end", "rt": "641.0", "trial_number": "1", "pre_actions": "1", "move": "3@27", "instance": "prb22436", "distance_to_goal": "NA", "progress": "NA", "move_number": "1", "optimal_length": "11", "subject": "A191V7PT3DQKDP:3PMBY0YE28B43VMUKKJ6EDF85RV9C8"}
{"meta_move": "drag_end", "rt": "537.0", "trial_number": "1", "pre_actions": "1", "move": "2@34", "instance": "prb22436", "distance_to_goal": "NA", "progress": "NA", "move_number": "2", "optimal_length": "11", "subject": "A191V7PT3DQKDP:3PMBY0YE28B43VMUKKJ6EDF85RV9C8"}
{"meta_move": "drag_end", "rt": "1208.0", "trial_number": "1", "pre_actions": "1", "move": "0@20", "instance": "prb22436", "distance_to_goal": "NA", "progress": "NA", "move_number": "3", "optimal_length": "11", "subject": "A191V7PT3DQKDP:3PMBY0YE28B43VMUKKJ6EDF85RV9C8"}
{"meta_move": "drag_end", "rt": "903.0", "trial_number": "1", "pre_actions": "1", "move": "r@14", "instance": "prb22436", "distance_to_goal": "NA", "progress": "NA", "move_number": "4", "optimal_length": "11", "subject": "A191V7PT3DQKDP:3PMBY0YE28B43VMUKKJ6EDF85RV9C8"}
{"meta_move": "drag_end", "rt": "696.0", "trial_number": "1", "pre_actions": "1", "move": "5@25", "instance": "prb22436", "distance_to_goal": "NA", "progress": "NA", "move_number": "5", "optimal_length": "11", "subject": "A191V7PT3DQKDP:3PMBY0YE28B43VMUKKJ6EDF85RV9C8"}
{"meta_move": "drag_end", "rt": "624.0", "trial_number": "1", "pre_actions": "1", "move": "r@12", "instance": "prb22436", "distance_to_goal": "NA", "progress": "NA", "move_number": "6", "optimal_length": "11", "subject": "A191V7PT3DQKDP:3PMBY0YE28B43VMUKKJ6EDF85RV9C8"}
{"meta_move": "drag_end", "rt": "825.0", "trial_number": "1", "pre_actions": "1", "move": "0@2", "instance": "prb22436", "distance_to_goal": "NA", "progress": "NA", "move_number": "7", "optimal_length": "11", "subject": "A191V7PT3DQKDP:3PMBY0YE28B43VMUKKJ6EDF85RV9C8"}
{"meta_move": "drag_end", "rt": "2039.0", "trial_number": "1", "pre_actions": "1", "move": "3@27", "instance": "prb22436", "distance_to_goal": "NA", "progress": "NA", "move_number": "8", "optimal_length": "11", "subject": "A191V7PT3DQKDP:3PMBY0YE28B43VMUKKJ6EDF85RV9C8"}
{"meta_move": "drag_end", "rt": "727.0", "trial_number": "1", "pre_actions": "1", "move": "0@20", "instance": "prb22436", "distance_to_goal": "NA", "progress": "NA", "move_number": "8", "optimal_length": "11", "subject": "A191V7PT3DQKDP:3PMBY0YE28B43VMUKKJ6EDF85RV9C8"}
{"meta_move": "drag_end", "rt": "640.0", "trial_number": "1", "pre_actions": "1", "move": "1@6", "instance": "prb22436", "distance_to_goal": "NA", "progress": "NA", "move_number": "9", "optimal_length": "11", "subject": "A191V7PT3DQKDP:3PMBY0YE28B43VMUKKJ6EDF85RV9C8"}
{"meta_move": "drag_end", "rt": "625.0", "trial_number": "1", "pre_actions": "1", "move": "6@4", "instance": "prb22436", "distance_to_goal": "NA", "progress": "NA", "move_number": "10", "optimal_length": "11", "subject": "A191V7PT3DQKDP:3PMBY0YE28B43VMUKKJ6EDF85RV9C8"}
{"meta_move": "drag_end", "rt": "559.0", "trial_number": "1", "pre_actions": "1", "move": "4@5", "instance": "prb22436", "distance_to_goal": "NA", "progress": "NA", "move_number": "11", "optimal_length": "11", "subject": "A191V7PT3DQKDP:3PMBY0YE28B43VMUKKJ6EDF85RV9C8"}
{"meta_move": "win", "rt": "969.0", "trial_number": "1", "pre_actions": "1", "move": "r@12", "instance": "prb22436", "distance_to_goal": "1", "progress": "NA", "move_number": "12", "optimal_length": "11", "subject": "A191V7PT3DQKDP:3PMBY0YE28B43VMUKKJ6EDF85RV9C8"}
{"meta_move": "drag_end", "rt": "191.0", "trial_number": "0", "pre_actions": "0", "move": "r@16", "instance": "prb22436", "distance_to_goal": "NA", "progress": "NA", "move_number": "12", "optimal_length": "11", "subject": "A191V7PT3DQKDP:3PMBY0YE28B43VMUKKJ6EDF85RV9C8"}
{"meta_move": "drag_end", "rt": "3025.0", "trial_number": "1", "pre_actions": "1", "move": "0@2", "instance": "prb22436", "distance_to_goal": "NA", "progress": "NA", "move_number": "0", "optimal_length": "11", "subject": "A1F4N58CAX8IMK:3TS1AR6UQRM7SOIBWPBN8N9589Y7FV"}
{"meta_move": "drag_end", "rt": "1633.0", "trial_number": "1", "pre_actions": "1", "move": "4@17", "instance": "prb22436", "distance_to_goal": "NA", "progress": "NA", "move_number": "1", "optimal_length": "11", "subject": "A1F4N58CAX8IMK:3TS1AR6UQRM7SOIBWPBN8N9589Y7FV"}
{"meta_move": "drag_end", "rt": "767.0", "trial_number": "1", "pre_actions": "1", "move": "6@28", "instance": "prb22436", "distance_to_goal": "NA", "progress": "NA", "move_number": "2", "optimal_length": "11", "subject": "A1F4N58CAX8IMK:3TS1AR6UQRM7SOIBWPBN8N9589Y7FV"}
{"meta_move": "drag_end", "rt": "689.0", "trial_number": "1", "pre_actions": "1", "move": "2@32", "instance": "prb22436", "distance_to_goal": "NA", "progress": "NA", "move_number": "3", "optimal_length": "11", "subject": "A1F4N58CAX8IMK:3TS1AR6UQRM7SOIBWPBN8N9589Y7FV"}
{"meta_move": "drag_end", "rt": "1873.0", "trial_number": "1", "pre_actions": "1", "move": "0@2", "instance": "prb22436", "distance_to_goal": "NA", "progress": "NA", "move_number": "4", "optimal_length": "11", "subject": "A1F4N58CAX8IMK:3TS1AR6UQRM7SOIBWPBN8N9589Y7FV"}
{"meta_move": "drag_end", "rt": "951.0", "trial_number": "1", "pre_actions": "1", "move": "1@9", "instance": "prb22436", "distance_to_goal": "NA", "progress": "NA", "move_number": "4", "optimal_length": "11", "subject": "A1F4N58CAX8IMK:3TS1AR6UQRM7SOIBWPBN8N9589Y7FV"}
{"meta_move": "drag_end", "rt": "527.0", "trial_number": "1", "pre_actions": "1", "move": "4@29", "instance": "prb22436", "distance_to_goal": "NA", "progress": "NA", "move_number": "4", "optimal_length": "11", "subject": "A1F4N58CAX8IMK:3TS1AR6UQRM7SOIBWPBN8N9589Y7FV"}
{"meta_move": "drag_end", "rt": "953.0", "trial_number": "1", "pre_actions": "1", "move": "0@8", "instance": "prb22436", "distance_to_goal": "NA", "progress": "NA", "move_number": "5", "optimal_length": "11", "subject": "A1F4N58CAX8IMK:3TS1AR6UQRM7SOIBWPBN8N9589Y7FV"}
{"meta_move": "drag_end", "rt": "1079.0", "trial_number": "1", "pre_actions": "1", "move": "1@9", "instance": "prb22436", "distance_to_goal": "NA", "progress": "NA", "move_number": "6", "optimal_length": "11", "subject": "A1F4N58CAX8IMK:3TS1AR6UQRM7SOIBWPBN8N9589Y7FV"}
{"meta_move": "drag_end", "rt": "426.0", "trial_number": "1", "pre_actions": "1", "move": "1@9", "instance": "prb22436", "distance_to_goal": "NA", "progress": "NA", "move_number": "6", "optimal_length": "11", "subject": "A1F4N58CAX8IMK:3TS1AR6UQRM7SOIBWPBN8N9589Y7FV"}
{"meta_move": "drag_end", "rt": "726.0", "trial_number": "1", "pre_actions": "1", "move": "7@18", "instance": "prb22436", "distance_to_goal": "NA", "progress": "NA", "move_number": "6", "optimal_length": "11", "subject": "A1F4N58CAX8IMK:3TS1AR6UQRM7SOIBWPBN8N9589Y7FV"}
{"meta_move": "drag_end", "rt": "594.0", "trial_number": "1", "pre_actions": "1", "move": "2@30", "instance": "prb22436", "distance_to_goal": "NA", "progress": "NA", "move_number": "7", "optimal_length": "11", "subject": "A1F4N58CAX8IMK:3TS1AR6UQRM7SOIBWPBN8N9589Y7FV"}
{"meta_move": "drag_end", "rt": "838.0", "trial_number": "1", "pre_actions": "1", "move": "6@16", "instance": "prb22436", "distance_to_goal": "NA", "progress": "NA", "move_number": "8", "optimal_length": "11", "subject": "A1F4N58CAX8IMK:3TS1AR6UQRM7SOIBWPBN8N9589Y7FV"}
{"meta_move": "drag_end", "rt": "714.0", "trial_number": "1", "pre_actions": "1", "move": "4@17", "instance": "prb22436", "distance_to_goal": "NA", "progress": "NA", "move_number": "9", "optimal_length": "11", "subject": "A1F4N58CAX8IMK:3TS1AR6UQRM7SOIBWPBN8N9589Y7FV"}
{"meta_move": "drag_end", "rt": "606.0", "trial_number": "1", "pre_actions": "1", "move": "3@27", "instance": "prb22436", "distance_to_goal": "NA", "progress": "NA", "move_number": "10", "optimal_length": "11", "subject": "A1F4N58CAX8IMK:3TS1AR6UQRM7SOIBWPBN8N9589Y7FV"}
{"meta_move": "drag_end", "rt": "776.0", "trial_number": "1", "pre_actions": "1", "move": "0@20", "instance": "prb22436", "distance_to_goal": "NA", "progress": "NA", "move_number": "11", "optimal_length": "11", "subject": "A1F4N58CAX8IMK:3TS1AR6UQRM7SOIBWPBN8N9589Y7FV"}
{"meta_move": "drag_end", "rt": "792.0", "trial_number": "1", "pre_actions": "1", "move": "1@8", "instance": "prb22436", "distance_to_goal": "NA", "progress": "NA", "move_number": "12", "optimal_length": "11", "subject": "A1F4N58CAX8IMK:3TS1AR6UQRM7SOIBWPBN8N9589Y7FV"}
{"meta_move": "drag_end", "rt": "768.0", "trial_number": "1", "pre_actions": "1", "move": "4@5", "instance": "prb22436", "distance_to_goal": "NA", "progress": "NA", "move_number": "13", "optimal_length": "11", "subject": "A1F4N58CAX8IMK:3TS1AR6UQRM7SOIBWPBN8N9589Y7FV"}
{"meta_move": "drag_end", "rt": "1848.0", "trial_number": "1", "pre_actions": "1", "move": "r@14", "instance": "prb22436", "distance_to_goal": "NA", "progress": "NA", "move_number": "14", "optimal_length": "11", "subject": "A1F4N58CAX8IMK:3TS1AR6UQRM7SOIBWPBN8N9589Y7FV"}
{"meta_move": "drag_end", "rt": "864.0", "trial_number": "1", "pre_actions": "1", "move": "7@0", "instance": "prb22436", "distance_to_goal": "NA", "progress": "NA", "move_number": "15", "optimal_length": "11", "subject": "A1F4N58CAX8IMK:3TS1AR6UQRM7SOIBWPBN8N9589Y7FV"}
{"meta_move": "drag_end", "rt": "1080.0", "trial_number": "1", "pre_actions": "1", "move": "5@19", "instance": "prb22436", "distance_to_goal": "NA", "progress": "NA", "move_number": "16", "optimal_length": "11", "subject": "A1F4N58CAX8IMK:3TS1AR6UQRM7SOIBWPBN8N9589Y7FV"}
{"meta_move": "drag_end", "rt": "712.0", "trial_number": "1", "pre_actions": "1", "move": "1@7", "instance": "prb22436", "distance_to_goal": "NA", "progress": "NA", "move_number": "17", "optimal_length": "11", "subject": "A1F4N58CAX8IMK:3TS1AR6UQRM7SOIBWPBN8N9589Y7FV"}
{"meta_move": "drag_end", "rt": "785.0", "trial_number": "1", "pre_actions": "1", "move": "6@4", "instance": "prb22436", "distance_to_goal": "NA", "progress": "NA", "move_number": "18", "optimal_length": "11", "subject": "A1F4N58CAX8IMK:3TS1AR6UQRM7SOIBWPBN8N9589Y7FV"}
{"meta_move": "win", "rt": "603.0", "trial_number": "1", "pre_actions": "1", "move": "r@14", "instance": "prb22436", "distance_to_goal": "1", "progress": "NA", "move_number": "19", "optimal_length": "11", "subject": "A1F4N58CAX8IMK:3TS1AR6UQRM7SOIBWPBN8N9589Y7FV"}
{"meta_move": "drag_end", "rt": "108.0", "trial_number": "0", "pre_actions": "0", "move": "r@16", "instance": "prb22436", "distance_to_goal": "NA", "progress": "NA", "move_number": "19", "optimal_length": "11", "subject": "A1F4N58CAX8IMK:3TS1AR6UQRM7SOIBWPBN8N9589Y7FV"}
{"meta_move": "drag_end", "rt": "1587.0", "trial_number": "1", "pre_actions": "1", "move": "0@8", "instance": "prb22436", "distance_to_goal": "NA", "progress": "NA", "move_number": "0", "optimal_length": "11", "subject": "A1LR0VQIHQUJAM:3YW4XOSQKRTI0K0Z2YPDTDJVFABU1I"}
{"meta_move": "drag_end", "rt": "1857.0", "trial_number": "1", "pre_actions": "1", "move": "4@17", "instance": "prb22436", "distance_to_goal": "NA", "progress": "NA", "move_number": "0", "optimal_length": "11", "subject": "A1LR0VQIHQUJAM:3YW4XOSQKRTI0K0Z2YPDTDJVFABU1I"}
{"meta_move": "drag_end", "rt": "597.0", "trial_number": "1", "pre_actions": "1", "move": "3@27", "instance": "prb22436", "distance_to_goal": "NA", "progress": "NA", "move_number": "1", "optimal_length": "11", "subject": "A1LR0VQIHQUJAM:3YW4XOSQKRTI0K0Z2YPDTDJVFABU1I"}
{"meta_move": "drag_end", "rt": "702.0", "trial_number": "1", "pre_actions": "1", "move": "2@34", "instance": "prb22436", "distance_to_goal": "NA", "progress": "NA", "move_number": "2", "optimal_length": "11", "subject": "A1LR0VQIHQUJAM:3YW4XOSQKRTI0K0Z2YPDTDJVFABU1I"}
{"meta_move": "drag_end", "rt": "531.0", "trial_number": "1", "pre_actions": "1", "move": "0@20", "instance": "prb22436", "distance_to_goal": "NA", "progress": "NA", "move_number": "3", "optimal_length": "11", "subject": "A1LR0VQIHQUJAM:3YW4XOSQKRTI0K0Z2YPDTDJVFABU1I"}
{"meta_move": "drag_end", "rt": "2169.0", "trial_number": "1", "pre_actions": "1", "move": "r@14", "instance": "prb22436", "distance_to_goal": "NA", "progress": "NA", "move_number": "4", "optimal_length": "11", "subject": "A1LR0VQIHQUJAM:3YW4XOSQKRTI0K0Z2YPDTDJVFABU1I"}
{"meta_move": "drag_end", "rt": "1078.0", "trial_number": "1", "pre_actions": "1", "move": "5@19", "instance": "prb22436", "distance_to_goal": "NA", "progress": "NA", "move_number": "5", "optimal_length": "11", "subject": "A1LR0VQIHQUJAM:3YW4XOSQKRTI0K0Z2YPDTDJVFABU1I"}
{"meta_move": "drag_end", "rt": "1135.0", "trial_number": "1", "pre_actions": "1", "move": "1@6", "instance": "prb22436", "distance_to_goal": "NA", "progress": "NA", "move_number": "6", "optimal_length": "11", "subject": "A1LR0VQIHQUJAM:3YW4XOSQKRTI0K0Z2YPDTDJVFABU1I"}
{"meta_move": "drag_end", "rt": "728.0", "trial_number": "1", "pre_actions": "1", "move": "6@4", "instance": "prb22436", "distance_to_goal": "NA", "progress": "NA", "move_number": "7", "optimal_length": "11", "subject": "A1LR0VQIHQUJAM:3YW4XOSQKRTI0K0Z2YPDTDJVFABU1I"}
{"meta_move": "drag_end", "rt": "501.0", "trial_number": "1", "pre_actions": "1", "move": "4@5", "instance": "prb22436", "distance_to_goal": "NA", "progress": "NA", "move_number": "8", "optimal_length": "11", "subject": "A1LR0VQIHQUJAM:3YW4XOSQKRTI0K0Z2YPDTDJVFABU1I"}
{"meta_move": "win", "rt": "512.0", "trial_number": "1", "pre_actions": "1", "move": "r@14", "instance": "prb22436", "distance_to_goal": "1", "progress": "NA", "move_number": "9", "optimal_length": "11", "subject": "A1LR0VQIHQUJAM:3YW4XOSQKRTI0K0Z2YPDTDJVFABU1I"}
{"meta_move": "drag_end", "rt": "43.0", "trial_number": "0", "pre_actions": "0", "move": "r@16", "instance": "prb22436", "distance_to_goal": "NA", "progress": "NA", "move_number": "9", "optimal_length": "11", "subject": "A1LR0VQIHQUJAM:3YW4XOSQKRTI0K0Z2YPDTDJVFABU1I"}
{"meta_move": "drag_end", "rt": "4799.0", "trial_number": "2", "pre_actions": "1", "move": "0@2", "instance": "prb22436", "distance_to_goal": "NA", "progress": "NA", "move_number": "0", "optimal_length": "11", "subject": "A214HWAW1PYWO8:34BBWHLWHBJ6SUL255PK30LEGY5IWG"}
{"meta_move": "drag_end", "rt": "2810.0", "trial_number": "2", "pre_actions": "1", "move": "0@8", "instance": "prb22436", "distance_to_goal": "NA", "progress": "NA", "move_number": "1", "optimal_length": "11", "subject": "A214HWAW1PYWO8:34BBWHLWHBJ6SUL255PK30LEGY5IWG"}
{"meta_move": "drag_end", "rt": "3640.0", "trial_number": "2", "pre_actions": "1", "move": "6@16", "instance": "prb22436", "distance_to_goal": "NA", "progress": "NA", "move_number": "2", "optimal_length": "11", "subject": "A214HWAW1PYWO8:34BBWHLWHBJ6SUL255PK30LEGY5IWG"}
{"meta_move": "drag_end", "rt": "717.0", "trial_number": "2", "pre_actions": "1", "move": "4@17", "instance": "prb22436", "distance_to_goal": "NA", "progress": "NA", "move_number": "2", "optimal_length": "11", "subject": "A214HWAW1PYWO8:34BBWHLWHBJ6SUL255PK30LEGY5IWG"}
{"meta_move": "drag_end", "rt": "531.0", "trial_number": "2", "pre_actions": "1", "move": "3@27", "instance": "prb22436", "distance_to_goal": "NA", "progress": "NA", "move_number": "3", "optimal_length": "11", "subject": "A214HWAW1PYWO8:34BBWHLWHBJ6SUL255PK30LEGY5IWG"}
{"meta_move": "drag_end", "rt": "613.0", "trial_number": "2", "pre_actions": "1", "move": "2@34", "instance": "prb22436", "distance_to_goal": "NA", "progress": "NA", "move_number": "4", "optimal_length": "11", "subject": "A214HWAW1PYWO8:34BBWHLWHBJ6SUL255PK30LEGY5IWG"}
{"meta_move": "drag_end", "rt": "603.0", "trial_number": "2", "pre_actions": "1", "move": "0@20", "instance": "prb22436", "distance_to_goal": "NA", "progress": "NA", "move_number": "5", "optimal_length": "11", "subject": "A214HWAW1PYWO8:34BBWHLWHBJ6SUL255PK30LEGY5IWG"}
{"meta_move": "drag_end", "rt": "562.0", "trial_number": "2", "pre_actions": "1", "move": "1@8", "instance": "prb22436", "distance_to_goal": "NA", "progress": "NA", "move_number": "6", "optimal_length": "11", "subject": "A214HWAW1PYWO8:34BBWHLWHBJ6SUL255PK30LEGY5IWG"}
{"meta_move": "drag_end", "rt": "1297.0", "trial_number": "2", "pre_actions": "1", "move": "r@14", "instance": "prb22436", "distance_to_goal": "NA", "progress": "NA", "move_number": "7", "optimal_length": "11", "subject": "A214HWAW1PYWO8:34BBWHLWHBJ6SUL255PK30LEGY5IWG"}
{"meta_move": "drag_end", "rt": "468.0", "trial_number": "2", "pre_actions": "1", "move": "5@25", "instance": "prb22436", "distance_to_goal": "NA", "progress": "NA", "move_number": "8", "optimal_length": "11", "subject": "A214HWAW1PYWO8:34BBWHLWHBJ6SUL255PK30LEGY5IWG"}
{"meta_move": "drag_end", "rt": "404.0", "trial_number": "2", "pre_actions": "1", "move": "1@6", "instance": "prb22436", "distance_to_goal": "NA", "progress": "NA", "move_number": "9", "optimal_length": "11", "subject": "A214HWAW1PYWO8:34BBWHLWHBJ6SUL255PK30LEGY5IWG"}
{"meta_move": "drag_end", "rt": "428.0", "trial_number": "2", "pre_actions": "1", "move": "6@4", "instance": "prb22436", "distance_to_goal": "NA", "progress": "NA", "move_number": "10", "optimal_length": "11", "subject": "A214HWAW1PYWO8:34BBWHLWHBJ6SUL255PK30LEGY5IWG"}
{"meta_move": "drag_end", "rt": "365.0", "trial_number": "2", "pre_actions": "1", "move": "4@5", "instance": "prb22436", "distance_to_goal": "NA", "progress": "NA", "move_number": "11", "optimal_length": "11", "subject": "A214HWAW1PYWO8:34BBWHLWHBJ6SUL255PK30LEGY5IWG"}
{"meta_move": "win", "rt": "395.0", "trial_number": "2", "pre_actions": "1", "move": "r@14", "instance": "prb22436", "distance_to_goal": "1", "progress": "NA", "move_number": "12", "optimal_length": "11", "subject": "A214HWAW1PYWO8:34BBWHLWHBJ6SUL255PK30LEGY5IWG"}
{"meta_move": "drag_end", "rt": "58.0", "trial_number": "0", "pre_actions": "0", "move": "r@16", "instance": "prb22436", "distance_to_goal": "NA", "progress": "NA", "move_number": "12", "optimal_length": "11", "subject": "A214HWAW1PYWO8:34BBWHLWHBJ6SUL255PK30LEGY5IWG"}
{"meta_move": "drag_end", "rt": "1551.0", "trial_number": "1", "pre_actions": "1", "move": "0@2", "instance": "prb22436", "distance_to_goal": "NA", "progress": "NA", "move_number": "0", "optimal_length": "11", "subject": "A23437BMZ5T1FH:3IHR8NYAM89M0EPM8U9LH53ZJDTP4U"}
{"meta_move": "drag_end", "rt": "2393.0", "trial_number": "1", "pre_actions": "1", "move": "7@18", "instance": "prb22436", "distance_to_goal": "NA", "progress": "NA", "move_number": "1", "optimal_length": "11", "subject": "A23437BMZ5T1FH:3IHR8NYAM89M0EPM8U9LH53ZJDTP4U"}
{"meta_move": "drag_end", "rt": "728.0", "trial_number": "1", "pre_actions": "1", "move": "2@30", "instance": "prb22436", "distance_to_goal": "NA", "progress": "NA", "move_number": "2", "optimal_length": "11", "subject": "A23437BMZ5T1FH:3IHR8NYAM89M0EPM8U9LH53ZJDTP4U"}
{"meta_move": "drag_end", "rt": "1040.0", "trial_number": "1", "pre_actions": "1", "move": "3@26", "instance": "prb22436", "distance_to_goal": "NA", "progress": "NA", "move_number": "3", "optimal_length": "11", "subject": "A23437BMZ5T1FH:3IHR8NYAM89M0EPM8U9LH53ZJDTP4U"}
{"meta_move": "drag_end", "rt": "1783.0", "trial_number": "1", "pre_actions": "1", "move": "3@25", "instance": "prb22436", "distance_to_goal": "NA", "progress": "NA", "move_number": "4", "optimal_length": "11", "subject": "A23437BMZ5T1FH:3IHR8NYAM89M0EPM8U9LH53ZJDTP4U"}
{"meta_move": "drag_end", "rt": "1034.0", "trial_number": "1", "pre_actions": "1", "move": "4@17", "instance": "prb22436", "distance_to_goal": "NA", "progress": "NA", "move_number": "5", "optimal_length": "11", "subject": "A23437BMZ5T1FH:3IHR8NYAM89M0EPM8U9LH53ZJDTP4U"}
{"meta_move": "drag_end", "rt": "703.0", "trial_number": "1", "pre_actions": "1", "move": "3@27", "instance": "prb22436", "distance_to_goal": "NA", "progress": "NA", "move_number": "6", "optimal_length": "11", "subject": "A23437BMZ5T1FH:3IHR8NYAM89M0EPM8U9LH53ZJDTP4U"}
{"meta_move": "drag_end", "rt": "817.0", "trial_number": "1", "pre_actions": "1", "move": "0@20", "instance": "prb22436", "distance_to_goal": "NA", "progress": "NA", "move_number": "7", "optimal_length": "11", "subject": "A23437BMZ5T1FH:3IHR8NYAM89M0EPM8U9LH53ZJDTP4U"}
{"meta_move": "drag_end", "rt": "727.0", "trial_number": "1", "pre_actions": "1", "move": "1@8", "instance": "prb22436", "distance_to_goal": "NA", "progress": "NA", "move_number": "8", "optimal_length": "11", "subject": "A23437BMZ5T1FH:3IHR8NYAM89M0EPM8U9LH53ZJDTP4U"}
{"meta_move": "drag_end", "rt": "1304.0", "trial_number": "1", "pre_actions": "1", "move": "4@5", "instance": "prb22436", "distance_to_goal": "NA", "progress": "NA", "move_number": "9", "optimal_length": "11", "subject": "A23437BMZ5T1FH:3IHR8NYAM89M0EPM8U9LH53ZJDTP4U"}
{"meta_move": "drag_end", "rt": "2976.0", "trial_number": "1", "pre_actions": "1", "move": "0@14", "instance": "prb22436", "distance_to_goal": "NA", "progress": "NA", "move_number": "10", "optimal_length": "11", "subject": "A23437BMZ5T1FH:3IHR8NYAM89M0EPM8U9LH53ZJDTP4U"}
{"meta_move": "drag_end", "rt": "9224.0", "trial_number": "1", "pre_actions": "1", "move": "4@17", "instance": "prb22436", "distance_to_goal": "NA", "progress": "NA", "move_number": "11", "optimal_length": "11", "subject": "A23437BMZ5T1FH:3IHR8NYAM89M0EPM8U9LH53ZJDTP4U"}
{"meta_move": "drag_end", "rt": "599.0", "trial_number": "1", "pre_actions": "1", "move": "1@9", "instance": "prb22436", "distance_to_goal": "NA", "progress": "NA", "move_number": "12", "optimal_length": "11", "subject": "A23437BMZ5T1FH:3IHR8NYAM89M0EPM8U9LH53ZJDTP4U"}
{"meta_move": "drag_end", "rt": "680.0", "trial_number": "1", "pre_actions": "1", "move": "0@2", "instance": "prb22436", "distance_to_goal": "NA", "progress": "NA", "move_number": "13", "optimal_length": "11", "subject": "A23437BMZ5T1FH:3IHR8NYAM89M0EPM8U9LH53ZJDTP4U"}
{"meta_move": "drag_end", "rt": "697.0", "trial_number": "1", "pre_actions": "1", "move": "3@25", "instance": "prb22436", "distance_to_goal": "NA", "progress": "NA", "move_number": "14", "optimal_length": "11", "subject": "A23437BMZ5T1FH:3IHR8NYAM89M0EPM8U9LH53ZJDTP4U"}
{"meta_move": "drag_end", "rt": "616.0", "trial_number": "1", "pre_actions": "1", "move": "6@28", "instance": "prb22436", "distance_to_goal": "NA", "progress": "NA", "move_number": "15", "optimal_length": "11", "subject": "A23437BMZ5T1FH:3IHR8NYAM89M0EPM8U9LH53ZJDTP4U"}
{"meta_move": "drag_end", "rt": "624.0", "trial_number": "1", "pre_actions": "1", "move": "4@29", "instance": "prb22436", "distance_to_goal": "NA", "progress": "NA", "move_number": "16", "optimal_length": "11", "subject": "A23437BMZ5T1FH:3IHR8NYAM89M0EPM8U9LH53ZJDTP4U"}
{"meta_move": "drag_end", "rt": "4936.0", "trial_number": "1", "pre_actions": "1", "move": "0@8", "instance": "prb22436", "distance_to_goal": "NA", "progress": "NA", "move_number": "17", "optimal_length": "11", "subject": "A23437BMZ5T1FH:3IHR8NYAM89M0EPM8U9LH53ZJDTP4U"}
{"meta_move": "drag_end", "rt": "1848.0", "trial_number": "1", "pre_actions": "1", "move": "0@2", "instance": "prb22436", "distance_to_goal": "NA", "progress": "NA", "move_number": "18", "optimal_length": "11", "subject": "A23437BMZ5T1FH:3IHR8NYAM89M0EPM8U9LH53ZJDTP4U"}
{"meta_move": "drag_end", "rt": "1161.0", "trial_number": "1", "pre_actions": "1", "move": "6@16", "instance": "prb22436", "distance_to_goal": "NA", "progress": "NA", "move_number": "19", "optimal_length": "11", "subject": "A23437BMZ5T1FH:3IHR8NYAM89M0EPM8U9LH53ZJDTP4U"}
{"meta_move": "drag_end", "rt": "535.0", "trial_number": "1", "pre_actions": "1", "move": "3@26", "instance": "prb22436", "distance_to_goal": "NA", "progress": "NA", "move_number": "20", "optimal_length": "11", "subject": "A23437BMZ5T1FH:3IHR8NYAM89M0EPM8U9LH53ZJDTP4U"}
{"meta_move": "drag_end", "rt": "1336.0", "trial_number": "1", "pre_actions": "1", "move": "3@25", "instance": "prb22436", "distance_to_goal": "NA", "progress": "NA", "move_number": "21", "optimal_length": "11", "subject": "A23437BMZ5T1FH:3IHR8NYAM89M0EPM8U9LH53ZJDTP4U"}
{"meta_move": "drag_end", "rt": "592.0", "trial_number": "1", "pre_actions": "1", "move": "3@26", "instance": "prb22436", "distance_to_goal": "NA", "progress": "NA", "move_number": "22", "optimal_length": "11", "subject": "A23437BMZ5T1FH:3IHR8NYAM89M0EPM8U9LH53ZJDTP4U"}
{"meta_move": "drag_end", "rt": "608.0", "trial_number": "1", "pre_actions": "1", "move": "2@32", "instance": "prb22436", "distance_to_goal": "NA", "progress": "NA", "move_number": "23", "optimal_length": "11", "subject": "A23437BMZ5T1FH:3IHR8NYAM89M0EPM8U9LH53ZJDTP4U"}
{"meta_move": "drag_end", "rt": "559.0", "trial_number": "1", "pre_actions": "1", "move": "7@24", "instance": "prb22436", "distance_to_goal": "NA", "progress": "NA", "move_number": "24", "optimal_length": "11", "subject": "A23437BMZ5T1FH:3IHR8NYAM89M0EPM8U9LH53ZJDTP4U"}
{"meta_move": "drag_end", "rt": "507.0", "trial_number": "1", "pre_actions": "1", "move": "3@25", "instance": "prb22436", "distance_to_goal": "NA", "progress": "NA", "move_number": "25", "optimal_length": "11", "subject": "A23437BMZ5T1FH:3IHR8NYAM89M0EPM8U9LH53ZJDTP4U"}
{"meta_move": "drag_end", "rt": "4294.0", "trial_number": "1", "pre_actions": "1", "move": "4@17", "instance": "prb22436", "distance_to_goal": "NA", "progress": "NA", "move_number": "26", "optimal_length": "11", "subject": "A23437BMZ5T1FH:3IHR8NYAM89M0EPM8U9LH53ZJDTP4U"}
{"meta_move": "drag_end", "rt": "625.0", "trial_number": "1", "pre_actions": "1", "move": "3@27", "instance": "prb22436", "distance_to_goal": "NA", "progress": "NA", "move_number": "27", "optimal_length": "11", "subject": "A23437BMZ5T1FH:3IHR8NYAM89M0EPM8U9LH53ZJDTP4U"}
{"meta_move": "drag_end", "rt": "1686.0", "trial_number": "1", "pre_actions": "1", "move": "0@14", "instance": "prb22436", "distance_to_goal": "NA", "progress": "NA", "move_number": "28", "optimal_length": "11", "subject": "A23437BMZ5T1FH:3IHR8NYAM89M0EPM8U9LH53ZJDTP4U"}
{"meta_move": "drag_end", "rt": "801.0", "trial_number": "1", "pre_actions": "1", "move": "1@8", "instance": "prb22436", "distance_to_goal": "NA", "progress": "NA", "move_number": "29", "optimal_length": "11", "subject": "A23437BMZ5T1FH:3IHR8NYAM89M0EPM8U9LH53ZJDTP4U"}
{"meta_move": "drag_end", "rt": "986.0", "trial_number": "1", "pre_actions": "1", "move": "4@5", "instance": "prb22436", "distance_to_goal": "NA", "progress": "NA", "move_number": "30", "optimal_length": "11", "subject": "A23437BMZ5T1FH:3IHR8NYAM89M0EPM8U9LH53ZJDTP4U"}
{"meta_move": "drag_end", "rt": "1526.0", "trial_number": "1", "pre_actions": "1", "move": "2@34", "instance": "prb22436", "distance_to_goal": "NA", "progress": "NA", "move_number": "31", "optimal_length": "11", "subject": "A23437BMZ5T1FH:3IHR8NYAM89M0EPM8U9LH53ZJDTP4U"}
{"meta_move": "drag_end", "rt": "1009.0", "trial_number": "1", "pre_actions": "1", "move": "0@20", "instance": "prb22436", "distance_to_goal": "NA", "progress": "NA", "move_number": "32", "optimal_length": "11", "subject": "A23437BMZ5T1FH:3IHR8NYAM89M0EPM8U9LH53ZJDTP4U"}
{"meta_move": "drag_end", "rt": "911.0", "trial_number": "1", "pre_actions": "1", "move": "r@14", "instance": "prb22436", "distance_to_goal": "NA", "progress": "NA", "move_number": "33", "optimal_length": "11", "subject": "A23437BMZ5T1FH:3IHR8NYAM89M0EPM8U9LH53ZJDTP4U"}
{"meta_move": "drag_end", "rt": "847.0", "trial_number": "1", "pre_actions": "1", "move": "5@25", "instance": "prb22436", "distance_to_goal": "NA", "progress": "NA", "move_number": "34", "optimal_length": "11", "subject": "A23437BMZ5T1FH:3IHR8NYAM89M0EPM8U9LH53ZJDTP4U"}
{"meta_move": "drag_end", "rt": "754.0", "trial_number": "1", "pre_actions": "1", "move": "1@6", "instance": "prb22436", "distance_to_goal": "NA", "progress": "NA", "move_number": "35", "optimal_length": "11", "subject": "A23437BMZ5T1FH:3IHR8NYAM89M0EPM8U9LH53ZJDTP4U"}
{"meta_move": "drag_end", "rt": "897.0", "trial_number": "1", "pre_actions": "1", "move": "6@10", "instance": "prb22436", "distance_to_goal": "NA", "progress": "NA", "move_number": "36", "optimal_length": "11", "subject": "A23437BMZ5T1FH:3IHR8NYAM89M0EPM8U9LH53ZJDTP4U"}
{"meta_move": "drag_end", "rt": "1518.0", "trial_number": "1", "pre_actions": "1", "move": "6@4", "instance": "prb22436", "distance_to_goal": "NA", "progress": "NA", "move_number": "37", "optimal_length": "11", "subject": "A23437BMZ5T1FH:3IHR8NYAM89M0EPM8U9LH53ZJDTP4U"}
{"meta_move": "win", "rt": "497.0", "trial_number": "1", "pre_actions": "1", "move": "r@14", "instance": "prb22436", "distance_to_goal": "1", "progress": "NA", "move_number": "38", "optimal_length": "11", "subject": "A23437BMZ5T1FH:3IHR8NYAM89M0EPM8U9LH53ZJDTP4U"}
{"meta_move": "drag_end", "rt": "159.0", "trial_number": "0", "pre_actions": "0", "move": "r@16", "instance": "prb22436", "distance_to_goal": "NA", "progress": "NA", "move_number": "38", "optimal_length": "11", "subject": "A23437BMZ5T1FH:3IHR8NYAM89M0EPM8U9LH53ZJDTP4U"}
{"meta_move": "drag_end", "rt": "9624.0", "trial_number": "1", "pre_actions": "1", "move": "0@8", "instance": "prb22436", "distance_to_goal": "NA", "progress": "NA", "move_number": "0", "optimal_length": "11", "subject": "A289D98Z4GAZ28:3ZV9H2YQQEFR2R3JK2IXZUJPXAF3WW"}
{"meta_move": "drag_end", "rt": "2971.0", "trial_number": "1", "pre_actions": "1", "move": "6@16", "instance": "prb22436", "distance_to_goal": "NA", "progress": "NA", "move_number": "0", "optimal_length": "11", "subject": "A289D98Z4GAZ28:3ZV9H2YQQEFR2R3JK2IXZUJPXAF3WW"}
{"meta_move": "drag_end", "rt": "1471.0", "trial_number": "1", "pre_actions": "1", "move": "3@26", "instance": "prb22436", "distance_to_goal": "NA", "progress": "NA", "move_number": "0", "optimal_length": "11", "subject": "A289D98Z4GAZ28:3ZV9H2YQQEFR2R3JK2IXZUJPXAF3WW"}
{"meta_move": "drag_end", "rt": "1864.0", "trial_number": "1", "pre_actions": "1", "move": "2@31", "instance": "prb22436", "distance_to_goal": "NA", "progress": "NA", "move_number": "1", "optimal_length": "11", "subject": "A289D98Z4GAZ28:3ZV9H2YQQEFR2R3JK2IXZUJPXAF3WW"}
{"meta_move": "drag_end", "rt": "2341.0", "trial_number": "1", "pre_actions": "1", "move": "7@18", "instance": "prb22436", "distance_to_goal": "NA", "progress": "NA", "move_number": "1", "optimal_length": "11", "subject": "A289D98Z4GAZ28:3ZV9H2YQQEFR2R3JK2IXZUJPXAF3WW"}
{"meta_move": "drag_end", "rt": "2021.0", "trial_number": "1", "pre_actions": "1", "move": "7@24", "instance": "prb22436", "distance_to_goal": "NA", "progress": "NA", "move_number": "2", "optimal_length": "11", "subject": "A289D98Z4GAZ28:3ZV9H2YQQEFR2R3JK2IXZUJPXAF3WW"}
{"meta_move": "drag_end", "rt": "1041.0", "trial_number": "1", "pre_actions": "1", "move": "3@25", "instance": "prb22436", "distance_to_goal": "NA", "progress": "NA", "move_number": "3", "optimal_length": "11", "subject": "A289D98Z4GAZ28:3ZV9H2YQQEFR2R3JK2IXZUJPXAF3WW"}
{"meta_move": "drag_end", "rt": "1156.0", "trial_number": "1", "pre_actions": "1", "move": "6@28", "instance": "prb22436", "distance_to_goal": "NA", "progress": "NA", "move_number": "4", "optimal_length": "11", "subject": "A289D98Z4GAZ28:3ZV9H2YQQEFR2R3JK2IXZUJPXAF3WW"}
{"meta_move": "drag_end", "rt": "3457.0", "trial_number": "1", "pre_actions": "1", "move": "3@25", "instance": "prb22436", "distance_to_goal": "NA", "progress": "NA", "move_number": "5", "optimal_length": "11", "subject": "A289D98Z4GAZ28:3ZV9H2YQQEFR2R3JK2IXZUJPXAF3WW"}
{"meta_move": "drag_end", "rt": "1446.0", "trial_number": "1", "pre_actions": "1", "move": "6@16", "instance": "prb22436", "distance_to_goal": "NA", "progress": "NA", "move_number": "5", "optimal_length": "11", "subject": "A289D98Z4GAZ28:3ZV9H2YQQEFR2R3JK2IXZUJPXAF3WW"}
{"meta_move": "drag_end", "rt": "1237.0", "trial_number": "1", "pre_actions": "1", "move": "4@17", "instance": "prb22436", "distance_to_goal": "NA", "progress": "NA", "move_number": "6", "optimal_length": "11", "subject": "A289D98Z4GAZ28:3ZV9H2YQQEFR2R3JK2IXZUJPXAF3WW"}
{"meta_move": "drag_end", "rt": "1359.0", "trial_number": "1", "pre_actions": "1", "move": "3@27", "instance": "prb22436", "distance_to_goal": "NA", "progress": "NA", "move_number": "7", "optimal_length": "11", "subject": "A289D98Z4GAZ28:3ZV9H2YQQEFR2R3JK2IXZUJPXAF3WW"}
{"meta_move": "drag_end", "rt": "1160.0", "trial_number": "1", "pre_actions": "1", "move": "2@33", "instance": "prb22436", "distance_to_goal": "NA", "progress": "NA", "move_number": "8", "optimal_length": "11", "subject": "A289D98Z4GAZ28:3ZV9H2YQQEFR2R3JK2IXZUJPXAF3WW"}
{"meta_move": "drag_end", "rt": "826.0", "trial_number": "1", "pre_actions": "1", "move": "0@20", "instance": "prb22436", "distance_to_goal": "NA", "progress": "NA", "move_number": "9", "optimal_length": "11", "subject": "A289D98Z4GAZ28:3ZV9H2YQQEFR2R3JK2IXZUJPXAF3WW"}
{"meta_move": "drag_end", "rt": "869.0", "trial_number": "1", "pre_actions": "1", "move": "r@14", "instance": "prb22436", "distance_to_goal": "NA", "progress": "NA", "move_number": "10", "optimal_length": "11", "subject": "A289D98Z4GAZ28:3ZV9H2YQQEFR2R3JK2IXZUJPXAF3WW"}
{"meta_move": "drag_end", "rt": "9082.0", "trial_number": "1", "pre_actions": "1", "move": "5@25", "instance": "prb22436", "distance_to_goal": "NA", "progress": "NA", "move_number": "11", "optimal_length": "11", "subject": "A289D98Z4GAZ28:3ZV9H2YQQEFR2R3JK2IXZUJPXAF3WW"}
{"meta_move": "drag_end", "rt": "988.0", "trial_number": "1", "pre_actions": "1", "move": "1@6", "instance": "prb22436", "distance_to_goal": "NA", "progress": "NA", "move_number": "12", "optimal_length": "11", "subject": "A289D98Z4GAZ28:3ZV9H2YQQEFR2R3JK2IXZUJPXAF3WW"}
{"meta_move": "drag_end", "rt": "1026.0", "trial_number": "1", "pre_actions": "1", "move": "6@4", "instance": "prb22436", "distance_to_goal": "NA", "progress": "NA", "move_number": "13", "optimal_length": "11", "subject": "A289D98Z4GAZ28:3ZV9H2YQQEFR2R3JK2IXZUJPXAF3WW"}
{"meta_move": "drag_end", "rt": "799.0", "trial_number": "1", "pre_actions": "1", "move": "4@5", "instance": "prb22436", "distance_to_goal": "NA", "progress": "NA", "move_number": "14", "optimal_length": "11", "subject": "A289D98Z4GAZ28:3ZV9H2YQQEFR2R3JK2IXZUJPXAF3WW"}
{"meta_move": "win", "rt": "672.0", "trial_number": "1", "pre_actions": "1", "move": "r@14", "instance": "prb22436", "distance_to_goal": "1", "progress": "NA", "move_number": "15", "optimal_length": "11", "subject": "A289D98Z4GAZ28:3ZV9H2YQQEFR2R3JK2IXZUJPXAF3WW"}
{"meta_move": "drag_end", "rt": "217.0", "trial_number": "0", "pre_actions": "0", "move": "r@16", "instance": "prb22436", "distance_to_goal": "NA", "progress": "NA", "move_number": "15", "optimal_length": "11", "subject": "A289D98Z4GAZ28:3ZV9H2YQQEFR2R3JK2IXZUJPXAF3WW"}
{"meta_move": "drag_end", "rt": "5901.0", "trial_number": "1", "pre_actions": "1", "move": "0@2", "instance": "prb22436", "distance_to_goal": "NA", "progress": "NA", "move_number": "0", "optimal_length": "11", "subject": "A2EPBSY0VPI38S:37WLF8U1WQYZ4AWKEQXSIM1ELVEK6W"}
{"meta_move": "drag_end", "rt": "1627.0", "trial_number": "1", "pre_actions": "1", "move": "0@8", "instance": "prb22436", "distance_to_goal": "NA", "progress": "NA", "move_number": "1", "optimal_length": "11", "subject": "A2EPBSY0VPI38S:37WLF8U1WQYZ4AWKEQXSIM1ELVEK6W"}
{"meta_move": "drag_end", "rt": "1695.0", "trial_number": "1", "pre_actions": "1", "move": "7@18", "instance": "prb22436", "distance_to_goal": "NA", "progress": "NA", "move_number": "2", "optimal_length": "11", "subject": "A2EPBSY0VPI38S:37WLF8U1WQYZ4AWKEQXSIM1ELVEK6W"}
{"meta_move": "drag_end", "rt": "1122.0", "trial_number": "1", "pre_actions": "1", "move": "2@30", "instance": "prb22436", "distance_to_goal": "NA", "progress": "NA", "move_number": "3", "optimal_length": "11", "subject": "A2EPBSY0VPI38S:37WLF8U1WQYZ4AWKEQXSIM1ELVEK6W"}
{"meta_move": "drag_end", "rt": "1380.0", "trial_number": "1", "pre_actions": "1", "move": "3@26", "instance": "prb22436", "distance_to_goal": "NA", "progress": "NA", "move_number": "4", "optimal_length": "11", "subject": "A2EPBSY0VPI38S:37WLF8U1WQYZ4AWKEQXSIM1ELVEK6W"}
{"meta_move": "drag_end", "rt": "2561.0", "trial_number": "1", "pre_actions": "1", "move": "0@2", "instance": "prb22436", "distance_to_goal": "NA", "progress": "NA", "move_number": "5", "optimal_length": "11", "subject": "A2EPBSY0VPI38S:37WLF8U1WQYZ4AWKEQXSIM1ELVEK6W"}
{"meta_move": "drag_end", "rt": "4704.0", "trial_number": "1", "pre_actions": "1", "move": "0@8", "instance": "prb22436", "distance_to_goal": "NA", "progress": "NA", "move_number": "6", "optimal_length": "11", "subject": "A2EPBSY0VPI38S:37WLF8U1WQYZ4AWKEQXSIM1ELVEK6W"}
{"meta_move": "drag_end", "rt": "1752.0", "trial_number": "1", "pre_actions": "1", "move": "3@25", "instance": "prb22436", "distance_to_goal": "NA", "progress": "NA", "move_number": "7", "optimal_length": "11", "subject": "A2EPBSY0VPI38S:37WLF8U1WQYZ4AWKEQXSIM1ELVEK6W"}
{"meta_move": "drag_end", "rt": "2464.0", "trial_number": "1", "pre_actions": "1", "move": "6@28", "instance": "prb22436", "distance_to_goal": "NA", "progress": "NA", "move_number": "8", "optimal_length": "11", "subject": "A2EPBSY0VPI38S:37WLF8U1WQYZ4AWKEQXSIM1ELVEK6W"}
{"meta_move": "drag_end", "rt": "1607.0", "trial_number": "1", "pre_actions": "1", "move": "1@9", "instance": "prb22436", "distance_to_goal": "NA", "progress": "NA", "move_number": "9", "optimal_length": "11", "subject": "A2EPBSY0VPI38S:37WLF8U1WQYZ4AWKEQXSIM1ELVEK6W"}
{"meta_move": "drag_end", "rt": "3458.0", "trial_number": "1", "pre_actions": "1", "move": "7@18", "instance": "prb22436", "distance_to_goal": "NA", "progress": "NA", "move_number": "9", "optimal_length": "11", "subject": "A2EPBSY0VPI38S:37WLF8U1WQYZ4AWKEQXSIM1ELVEK6W"}
{"meta_move": "drag_end", "rt": "1910.0", "trial_number": "1", "pre_actions": "1", "move": "0@2", "instance": "prb22436", "distance_to_goal": "NA", "progress": "NA", "move_number": "9", "optimal_length": "11", "subject": "A2EPBSY0VPI38S:37WLF8U1WQYZ4AWKEQXSIM1ELVEK6W"}
{"meta_move": "drag_end", "rt": "3616.0", "trial_number": "1", "pre_actions": "1", "move": "6@16", "instance": "prb22436", "distance_to_goal": "NA", "progress": "NA", "move_number": "10", "optimal_length": "11", "subject": "A2EPBSY0VPI38S:37WLF8U1WQYZ4AWKEQXSIM1ELVEK6W"}
{"meta_move": "drag_end", "rt": "1240.0", "trial_number": "1", "pre_actions": "1", "move": "3@26", "instance": "prb22436", "distance_to_goal": "NA", "progress": "NA", "move_number": "11", "optimal_length": "11", "subject": "A2EPBSY0VPI38S:37WLF8U1WQYZ4AWKEQXSIM1ELVEK6W"}
{"meta_move": "drag_end", "rt": "1354.0", "trial_number": "1", "pre_actions": "1", "move": "4@17", "instance": "prb22436", "distance_to_goal": "NA", "progress": "NA", "move_number": "12", "optimal_length": "11", "subject": "A2EPBSY0VPI38S:37WLF8U1WQYZ4AWKEQXSIM1ELVEK6W"}
{"meta_move": "drag_end", "rt": "1150.0", "trial_number": "1", "pre_actions": "1", "move": "3@27", "instance": "prb22436", "distance_to_goal": "NA", "progress": "NA", "move_number": "13", "optimal_length": "11", "subject": "A2EPBSY0VPI38S:37WLF8U1WQYZ4AWKEQXSIM1ELVEK6W"}
{"meta_move": "drag_end", "rt": "2290.0", "trial_number": "1", "pre_actions": "1", "move": "2@34", "instance": "prb22436", "distance_to_goal": "NA", "progress": "NA", "move_number": "14", "optimal_length": "11", "subject": "A2EPBSY0VPI38S:37WLF8U1WQYZ4AWKEQXSIM1ELVEK6W"}
{"meta_move": "drag_end", "rt": "2558.0", "trial_number": "1", "pre_actions": "1", "move": "0@20", "instance": "prb22436", "distance_to_goal": "NA", "progress": "NA", "move_number": "15", "optimal_length": "11", "subject": "A2EPBSY0VPI38S:37WLF8U1WQYZ4AWKEQXSIM1ELVEK6W"}
{"meta_move": "drag_end", "rt": "1683.0", "trial_number": "1", "pre_actions": "1", "move": "r@14", "instance": "prb22436", "distance_to_goal": "NA", "progress": "NA", "move_number": "16", "optimal_length": "11", "subject": "A2EPBSY0VPI38S:37WLF8U1WQYZ4AWKEQXSIM1ELVEK6W"}
{"meta_move": "drag_end", "rt": "1101.0", "trial_number": "1", "pre_actions": "1", "move": "1@8", "instance": "prb22436", "distance_to_goal": "NA", "progress": "NA", "move_number": "17", "optimal_length": "11", "subject": "A2EPBSY0VPI38S:37WLF8U1WQYZ4AWKEQXSIM1ELVEK6W"}
{"meta_move": "drag_end", "rt": "1224.0", "trial_number": "1", "pre_actions": "1", "move": "4@5", "instance": "prb22436", "distance_to_goal": "NA", "progress": "NA", "move_number": "18", "optimal_length": "11", "subject": "A2EPBSY0VPI38S:37WLF8U1WQYZ4AWKEQXSIM1ELVEK6W"}
{"meta_move": "drag_end", "rt": "4912.0", "trial_number": "1", "pre_actions": "1", "move": "7@0", "instance": "prb22436", "distance_to_goal": "NA", "progress": "NA", "move_number": "19", "optimal_length": "11", "subject": "A2EPBSY0VPI38S:37WLF8U1WQYZ4AWKEQXSIM1ELVEK6W"}
{"meta_move": "drag_end", "rt": "736.0", "trial_number": "1", "pre_actions": "1", "move": "5@25", "instance": "prb22436", "distance_to_goal": "NA", "progress": "NA", "move_number": "20", "optimal_length": "11", "subject": "A2EPBSY0VPI38S:37WLF8U1WQYZ4AWKEQXSIM1ELVEK6W"}
{"meta_move": "drag_end", "rt": "1025.0", "trial_number": "1", "pre_actions": "1", "move": "1@7", "instance": "prb22436", "distance_to_goal": "NA", "progress": "NA", "move_number": "21", "optimal_length": "11", "subject": "A2EPBSY0VPI38S:37WLF8U1WQYZ4AWKEQXSIM1ELVEK6W"}
{"meta_move": "drag_end", "rt": "1520.0", "trial_number": "1", "pre_actions": "1", "move": "6@4", "instance": "prb22436", "distance_to_goal": "NA", "progress": "NA", "move_number": "22", "optimal_length": "11", "subject": "A2EPBSY0VPI38S:37WLF8U1WQYZ4AWKEQXSIM1ELVEK6W"}
{"meta_move": "win", "rt": "1281.0", "trial_number": "1", "pre_actions": "1", "move": "r@14", "instance": "prb22436", "distance_to_goal": "1", "progress": "NA", "move_number": "23", "optimal_length": "11", "subject": "A2EPBSY0VPI38S:37WLF8U1WQYZ4AWKEQXSIM1ELVEK6W"}
{"meta_move": "drag_end", "rt": "222.0", "trial_number": "0", "pre_actions": "0", "move": "r@16", "instance": "prb22436", "distance_to_goal": "NA", "progress": "NA", "move_number": "23", "optimal_length": "11", "subject": "A2EPBSY0VPI38S:37WLF8U1WQYZ4AWKEQXSIM1ELVEK6W"}
{"meta_move": "drag_end", "rt": "2511.0", "trial_number": "1", "pre_actions": "1", "move": "6@28", "instance": "prb22436", "distance_to_goal": "NA", "progress": "NA", "move_number": "0", "optimal_length": "11", "subject": "A2IBQA01NR5N76:3X4MXAO0BHWJLTOLVSJTHSM54OHWRG"}
{"meta_move": "drag_end", "rt": "929.0", "trial_number": "1", "pre_actions": "1", "move": "0@2", "instance": "prb22436", "distance_to_goal": "NA", "progress": "NA", "move_number": "1", "optimal_length": "11", "subject": "A2IBQA01NR5N76:3X4MXAO0BHWJLTOLVSJTHSM54OHWRG"}
{"meta_move": "drag_end", "rt": "1259.0", "trial_number": "1", "pre_actions": "1", "move": "7@18", "instance": "prb22436", "distance_to_goal": "NA", "progress": "NA", "move_number": "2", "optimal_length": "11", "subject": "A2IBQA01NR5N76:3X4MXAO0BHWJLTOLVSJTHSM54OHWRG"}
{"meta_move": "drag_end", "rt": "593.0", "trial_number": "1", "pre_actions": "1", "move": "2@30", "instance": "prb22436", "distance_to_goal": "NA", "progress": "NA", "move_number": "3", "optimal_length": "11", "subject": "A2IBQA01NR5N76:3X4MXAO0BHWJLTOLVSJTHSM54OHWRG"}
{"meta_move": "drag_end", "rt": "785.0", "trial_number": "1", "pre_actions": "1", "move": "6@16", "instance": "prb22436", "distance_to_goal": "NA", "progress": "NA", "move_number": "4", "optimal_length": "11", "subject": "A2IBQA01NR5N76:3X4MXAO0BHWJLTOLVSJTHSM54OHWRG"}
{"meta_move": "drag_end", "rt": "491.0", "trial_number": "1", "pre_actions": "1", "move": "4@17", "instance": "prb22436", "distance_to_goal": "NA", "progress": "NA", "move_number": "5", "optimal_length": "11", "subject": "A2IBQA01NR5N76:3X4MXAO0BHWJLTOLVSJTHSM54OHWRG"}
{"meta_move": "drag_end", "rt": "624.0", "trial_number": "1", "pre_actions": "1", "move": "3@27", "instance": "prb22436", "distance_to_goal": "NA", "progress": "NA", "move_number": "6", "optimal_length": "11", "subject": "A2IBQA01NR5N76:3X4MXAO0BHWJLTOLVSJTHSM54OHWRG"}
{"meta_move": "drag_end", "rt": "640.0", "trial_number": "1", "pre_actions": "1", "move": "0@20", "instance": "prb22436", "distance_to_goal": "NA", "progress": "NA", "move_number": "7", "optimal_length": "11", "subject": "A2IBQA01NR5N76:3X4MXAO0BHWJLTOLVSJTHSM54OHWRG"}
{"meta_move": "drag_end", "rt": "844.0", "trial_number": "1", "pre_actions": "1", "move": "1@8", "instance": "prb22436", "distance_to_goal": "NA", "progress": "NA", "move_number": "8", "optimal_length": "11", "subject": "A2IBQA01NR5N76:3X4MXAO0BHWJLTOLVSJTHSM54OHWRG"}
{"meta_move": "drag_end", "rt": "741.0", "trial_number": "1", "pre_actions": "1", "move": "4@5", "instance": "prb22436", "distance_to_goal": "NA", "progress": "NA", "move_number": "9", "optimal_length": "11", "subject": "A2IBQA01NR5N76:3X4MXAO0BHWJLTOLVSJTHSM54OHWRG"}
{"meta_move": "drag_end", "rt": "1089.0", "trial_number": "1", "pre_actions": "1", "move": "0@14", "instance": "prb22436", "distance_to_goal": "NA", "progress": "NA", "move_number": "10", "optimal_length": "11", "subject": "A2IBQA01NR5N76:3X4MXAO0BHWJLTOLVSJTHSM54OHWRG"}
{"meta_move": "drag_end", "rt": "710.0", "trial_number": "1", "pre_actions": "1", "move": "0@20", "instance": "prb22436", "distance_to_goal": "NA", "progress": "NA", "move_number": "11", "optimal_length": "11", "subject": "A2IBQA01NR5N76:3X4MXAO0BHWJLTOLVSJTHSM54OHWRG"}
{"meta_move": "drag_end", "rt": "780.0", "trial_number": "1", "pre_actions": "1", "move": "r@14", "instance": "prb22436", "distance_to_goal": "NA", "progress": "NA", "move_number": "12", "optimal_length": "11", "subject": "A2IBQA01NR5N76:3X4MXAO0BHWJLTOLVSJTHSM54OHWRG"}
{"meta_move": "drag_end", "rt": "578.0", "trial_number": "1", "pre_actions": "1", "move": "7@0", "instance": "prb22436", "distance_to_goal": "NA", "progress": "NA", "move_number": "13", "optimal_length": "11", "subject": "A2IBQA01NR5N76:3X4MXAO0BHWJLTOLVSJTHSM54OHWRG"}
{"meta_move": "drag_end", "rt": "4626.0", "trial_number": "1", "pre_actions": "1", "move": "5@19", "instance": "prb22436", "distance_to_goal": "NA", "progress": "NA", "move_number": "14", "optimal_length": "11", "subject": "A2IBQA01NR5N76:3X4MXAO0BHWJLTOLVSJTHSM54OHWRG"}
{"meta_move": "drag_end", "rt": "428.0", "trial_number": "1", "pre_actions": "1", "move": "7@18", "instance": "prb22436", "distance_to_goal": "NA", "progress": "NA", "move_number": "15", "optimal_length": "11", "subject": "A2IBQA01NR5N76:3X4MXAO0BHWJLTOLVSJTHSM54OHWRG"}
{"meta_move": "drag_end", "rt": "495.0", "trial_number": "1", "pre_actions": "1", "move": "1@6", "instance": "prb22436", "distance_to_goal": "NA", "progress": "NA", "move_number": "16", "optimal_length": "11", "subject": "A2IBQA01NR5N76:3X4MXAO0BHWJLTOLVSJTHSM54OHWRG"}
{"meta_move": "drag_end", "rt": "1346.0", "trial_number": "1", "pre_actions": "1", "move": "6@4", "instance": "prb22436", "distance_to_goal": "NA", "progress": "NA", "move_number": "17", "optimal_length": "11", "subject": "A2IBQA01NR5N76:3X4MXAO0BHWJLTOLVSJTHSM54OHWRG"}
{"meta_move": "win", "rt": "635.0", "trial_number": "1", "pre_actions": "1", "move": "r@14", "instance": "prb22436", "distance_to_goal": "1", "progress": "NA", "move_number": "18", "optimal_length": "11", "subject": "A2IBQA01NR5N76:3X4MXAO0BHWJLTOLVSJTHSM54OHWRG"}
{"meta_move": "drag_end", "rt": "2154.0", "trial_number": "0", "pre_actions": "0", "move": "r@16", "instance": "prb22436", "distance_to_goal": "NA", "progress": "NA", "move_number": "18", "optimal_length": "11", "subject": "A2IBQA01NR5N76:3X4MXAO0BHWJLTOLVSJTHSM54OHWRG"}
{"meta_move": "drag_end", "rt": "7959.0", "trial_number": "1", "pre_actions": "1", "move": "6@28", "instance": "prb22436", "distance_to_goal": "NA", "progress": "NA", "move_number": "0", "optimal_length": "11", "subject": "A2MYB6MLQW0IGN:3TYCR1GOTDRCCQYD1V64UK7OE48LZS"}
{"meta_move": "drag_end", "rt": "5066.0", "trial_number": "1", "pre_actions": "1", "move": "7@18", "instance": "prb22436", "distance_to_goal": "NA", "progress": "NA", "move_number": "1", "optimal_length": "11", "subject": "A2MYB6MLQW0IGN:3TYCR1GOTDRCCQYD1V64UK7OE48LZS"}
{"meta_move": "drag_end", "rt": "957.0", "trial_number": "1", "pre_actions": "1", "move": "2@30", "instance": "prb22436", "distance_to_goal": "NA", "progress": "NA", "move_number": "2", "optimal_length": "11", "subject": "A2MYB6MLQW0IGN:3TYCR1GOTDRCCQYD1V64UK7OE48LZS"}
{"meta_move": "drag_end", "rt": "5497.0", "trial_number": "1", "pre_actions": "1", "move": "6@22", "instance": "prb22436", "distance_to_goal": "NA", "progress": "NA", "move_number": "3", "optimal_length": "11", "subject": "A2MYB6MLQW0IGN:3TYCR1GOTDRCCQYD1V64UK7OE48LZS"}
{"meta_move": "drag_end", "rt": "1007.0", "trial_number": "1", "pre_actions": "1", "move": "6@16", "instance": "prb22436", "distance_to_goal": "NA", "progress": "NA", "move_number": "4", "optimal_length": "11", "subject": "A2MYB6MLQW0IGN:3TYCR1GOTDRCCQYD1V64UK7OE48LZS"}
{"meta_move": "drag_end", "rt": "1005.0", "trial_number": "1", "pre_actions": "1", "move": "3@26", "instance": "prb22436", "distance_to_goal": "NA", "progress": "NA", "move_number": "5", "optimal_length": "11", "subject": "A2MYB6MLQW0IGN:3TYCR1GOTDRCCQYD1V64UK7OE48LZS"}
{"meta_move": "drag_end", "rt": "2644.0", "trial_number": "1", "pre_actions": "1", "move": "7@18", "instance": "prb22436", "distance_to_goal": "NA", "progress": "NA", "move_number": "6", "optimal_length": "11", "subject": "A2MYB6MLQW0IGN:3TYCR1GOTDRCCQYD1V64UK7OE48LZS"}
{"meta_move": "drag_end", "rt": "3075.0", "trial_number": "1", "pre_actions": "1", "move": "2@33", "instance": "prb22436", "distance_to_goal": "NA", "progress": "NA", "move_number": "6", "optimal_length": "11", "subject": "A2MYB6MLQW0IGN:3TYCR1GOTDRCCQYD1V64UK7OE48LZS"}
{"meta_move": "drag_end", "rt": "1026.0", "trial_number": "1", "pre_actions": "1", "move": "7@24", "instance": "prb22436", "distance_to_goal": "NA", "progress": "NA", "move_number": "7", "optimal_length": "11", "subject": "A2MYB6MLQW0IGN:3TYCR1GOTDRCCQYD1V64UK7OE48LZS"}
{"meta_move": "drag_end", "rt": "2081.0", "trial_number": "1", "pre_actions": "1", "move": "3@25", "instance": "prb22436", "distance_to_goal": "NA", "progress": "NA", "move_number": "8", "optimal_length": "11", "subject": "A2MYB6MLQW0IGN:3TYCR1GOTDRCCQYD1V64UK7OE48LZS"}
{"meta_move": "drag_end", "rt": "1267.0", "trial_number": "1", "pre_actions": "1", "move": "6@22", "instance": "prb22436", "distance_to_goal": "NA", "progress": "NA", "move_number": "9", "optimal_length": "11", "subject": "A2MYB6MLQW0IGN:3TYCR1GOTDRCCQYD1V64UK7OE48LZS"}
{"meta_move": "drag_end", "rt": "2657.0", "trial_number": "1", "pre_actions": "1", "move": "2@31", "instance": "prb22436", "distance_to_goal": "NA", "progress": "NA", "move_number": "10", "optimal_length": "11", "subject": "A2MYB6MLQW0IGN:3TYCR1GOTDRCCQYD1V64UK7OE48LZS"}
{"meta_move": "drag_end", "rt": "1022.0", "trial_number": "1", "pre_actions": "1", "move": "6@28", "instance": "prb22436", "distance_to_goal": "NA", "progress": "NA", "move_number": "11", "optimal_length": "11", "subject": "A2MYB6MLQW0IGN:3TYCR1GOTDRCCQYD1V64UK7OE48LZS"}
{"meta_move": "drag_end", "rt": "2333.0", "trial_number": "1", "pre_actions": "1", "move": "4@17", "instance": "prb22436", "distance_to_goal": "NA", "progress": "NA", "move_number": "12", "optimal_length": "11", "subject": "A2MYB6MLQW0IGN:3TYCR1GOTDRCCQYD1V64UK7OE48LZS"}
{"meta_move": "drag_end", "rt": "986.0", "trial_number": "1", "pre_actions": "1", "move": "4@29", "instance": "prb22436", "distance_to_goal": "NA", "progress": "NA", "move_number": "13", "optimal_length": "11", "subject": "A2MYB6MLQW0IGN:3TYCR1GOTDRCCQYD1V64UK7OE48LZS"}
{"meta_move": "drag_end", "rt": "2926.0", "trial_number": "1", "pre_actions": "1", "move": "0@2", "instance": "prb22436", "distance_to_goal": "NA", "progress": "NA", "move_number": "14", "optimal_length": "11", "subject": "A2MYB6MLQW0IGN:3TYCR1GOTDRCCQYD1V64UK7OE48LZS"}
{"meta_move": "drag_end", "rt": "1145.0", "trial_number": "1", "pre_actions": "1", "move": "0@2", "instance": "prb22436", "distance_to_goal": "NA", "progress": "NA", "move_number": "15", "optimal_length": "11", "subject": "A2MYB6MLQW0IGN:3TYCR1GOTDRCCQYD1V64UK7OE48LZS"}
{"meta_move": "drag_end", "rt": "1840.0", "trial_number": "1", "pre_actions": "1", "move": "3@25", "instance": "prb22436", "distance_to_goal": "NA", "progress": "NA", "move_number": "15", "optimal_length": "11", "subject": "A2MYB6MLQW0IGN:3TYCR1GOTDRCCQYD1V64UK7OE48LZS"}
{"meta_move": "drag_end", "rt": "1891.0", "trial_number": "1", "pre_actions": "1", "move": "7@18", "instance": "prb22436", "distance_to_goal": "NA", "progress": "NA", "move_number": "15", "optimal_length": "11", "subject": "A2MYB6MLQW0IGN:3TYCR1GOTDRCCQYD1V64UK7OE48LZS"}
{"meta_move": "drag_end", "rt": "1589.0", "trial_number": "1", "pre_actions": "1", "move": "7@18", "instance": "prb22436", "distance_to_goal": "NA", "progress": "NA", "move_number": "16", "optimal_length": "11", "subject": "A2MYB6MLQW0IGN:3TYCR1GOTDRCCQYD1V64UK7OE48LZS"}
{"meta_move": "drag_end", "rt": "1498.0", "trial_number": "1", "pre_actions": "1", "move": "2@30", "instance": "prb22436", "distance_to_goal": "NA", "progress": "NA", "move_number": "16", "optimal_length": "11", "subject": "A2MYB6MLQW0IGN:3TYCR1GOTDRCCQYD1V64UK7OE48LZS"}
{"meta_move": "drag_end", "rt": "1004.0", "trial_number": "1", "pre_actions": "1", "move": "2@32", "instance": "prb22436", "distance_to_goal": "NA", "progress": "NA", "move_number": "17", "optimal_length": "11", "subject": "A2MYB6MLQW0IGN:3TYCR1GOTDRCCQYD1V64UK7OE48LZS"}
{"meta_move": "drag_end", "rt": "1007.0", "trial_number": "1", "pre_actions": "1", "move": "7@24", "instance": "prb22436", "distance_to_goal": "NA", "progress": "NA", "move_number": "18", "optimal_length": "11", "subject": "A2MYB6MLQW0IGN:3TYCR1GOTDRCCQYD1V64UK7OE48LZS"}
{"meta_move": "drag_end", "rt": "1636.0", "trial_number": "1", "pre_actions": "1", "move": "0@8", "instance": "prb22436", "distance_to_goal": "NA", "progress": "NA", "move_number": "19", "optimal_length": "11", "subject": "A2MYB6MLQW0IGN:3TYCR1GOTDRCCQYD1V64UK7OE48LZS"}
{"meta_move": "drag_end", "rt": "4123.0", "trial_number": "1", "pre_actions": "1", "move": "7@18", "instance": "prb22436", "distance_to_goal": "NA", "progress": "NA", "move_number": "20", "optimal_length": "11", "subject": "A2MYB6MLQW0IGN:3TYCR1GOTDRCCQYD1V64UK7OE48LZS"}
{"meta_move": "drag_end", "rt": "3450.0", "trial_number": "1", "pre_actions": "1", "move": "6@16", "instance": "prb22436", "distance_to_goal": "NA", "progress": "NA", "move_number": "21", "optimal_length": "11", "subject": "A2MYB6MLQW0IGN:3TYCR1GOTDRCCQYD1V64UK7OE48LZS"}
{"meta_move": "drag_end", "rt": "1678.0", "trial_number": "1", "pre_actions": "1", "move": "4@17", "instance": "prb22436", "distance_to_goal": "NA", "progress": "NA", "move_number": "22", "optimal_length": "11", "subject": "A2MYB6MLQW0IGN:3TYCR1GOTDRCCQYD1V64UK7OE48LZS"}
{"meta_move": "drag_end", "rt": "1014.0", "trial_number": "1", "pre_actions": "1", "move": "3@27", "instance": "prb22436", "distance_to_goal": "NA", "progress": "NA", "move_number": "23", "optimal_length": "11", "subject": "A2MYB6MLQW0IGN:3TYCR1GOTDRCCQYD1V64UK7OE48LZS"}
{"meta_move": "drag_end", "rt": "1047.0", "trial_number": "1", "pre_actions": "1", "move": "0@14", "instance": "prb22436", "distance_to_goal": "NA", "progress": "NA", "move_number": "24", "optimal_length": "11", "subject": "A2MYB6MLQW0IGN:3TYCR1GOTDRCCQYD1V64UK7OE48LZS"}
{"meta_move": "drag_end", "rt": "1196.0", "trial_number": "1", "pre_actions": "1", "move": "2@30", "instance": "prb22436", "distance_to_goal": "NA", "progress": "NA", "move_number": "25", "optimal_length": "11", "subject": "A2MYB6MLQW0IGN:3TYCR1GOTDRCCQYD1V64UK7OE48LZS"}
{"meta_move": "drag_end", "rt": "1625.0", "trial_number": "1", "pre_actions": "1", "move": "0@20", "instance": "prb22436", "distance_to_goal": "NA", "progress": "NA", "move_number": "26", "optimal_length": "11", "subject": "A2MYB6MLQW0IGN:3TYCR1GOTDRCCQYD1V64UK7OE48LZS"}
{"meta_move": "drag_end", "rt": "3423.0", "trial_number": "1", "pre_actions": "1", "move": "0@8", "instance": "prb22436", "distance_to_goal": "NA", "progress": "NA", "move_number": "27", "optimal_length": "11", "subject": "A2MYB6MLQW0IGN:3TYCR1GOTDRCCQYD1V64UK7OE48LZS"}
{"meta_move": "drag_end", "rt": "2000.0", "trial_number": "1", "pre_actions": "1", "move": "2@34", "instance": "prb22436", "distance_to_goal": "NA", "progress": "NA", "move_number": "28", "optimal_length": "11", "subject": "A2MYB6MLQW0IGN:3TYCR1GOTDRCCQYD1V64UK7OE48LZS"}
{"meta_move": "drag_end", "rt": "993.0", "trial_number": "1", "pre_actions": "1", "move": "7@24", "instance": "prb22436", "distance_to_goal": "NA", "progress": "NA", "move_number": "29", "optimal_length": "11", "subject": "A2MYB6MLQW0IGN:3TYCR1GOTDRCCQYD1V64UK7OE48LZS"}
{"meta_move": "drag_end", "rt": "2474.0", "trial_number": "1", "pre_actions": "1", "move": "2@31", "instance": "prb22436", "distance_to_goal": "NA", "progress": "NA", "move_number": "30", "optimal_length": "11", "subject": "A2MYB6MLQW0IGN:3TYCR1GOTDRCCQYD1V64UK7OE48LZS"}
{"meta_move": "drag_end", "rt": "2628.0", "trial_number": "1", "pre_actions": "1", "move": "0@2", "instance": "prb22436", "distance_to_goal": "NA", "progress": "NA", "move_number": "31", "optimal_length": "11", "subject": "A2MYB6MLQW0IGN:3TYCR1GOTDRCCQYD1V64UK7OE48LZS"}
{"meta_move": "drag_end", "rt": "1375.0", "trial_number": "1", "pre_actions": "1", "move": "2@34", "instance": "prb22436", "distance_to_goal": "NA", "progress": "NA", "move_number": "32", "optimal_length": "11", "subject": "A2MYB6MLQW0IGN:3TYCR1GOTDRCCQYD1V64UK7OE48LZS"}
{"meta_move": "drag_end", "rt": "4465.0", "trial_number": "1", "pre_actions": "1", "move": "0@20", "instance": "prb22436", "distance_to_goal": "NA", "progress": "NA", "move_number": "33", "optimal_length": "11", "subject": "A2MYB6MLQW0IGN:3TYCR1GOTDRCCQYD1V64UK7OE48LZS"}
{"meta_move": "drag_end", "rt": "3427.0", "trial_number": "1", "pre_actions": "1", "move": "1@8", "instance": "prb22436", "distance_to_goal": "NA", "progress": "NA", "move_number": "34", "optimal_length": "11", "subject": "A2MYB6MLQW0IGN:3TYCR1GOTDRCCQYD1V64UK7OE48LZS"}
{"meta_move": "drag_end", "rt": "1147.0", "trial_number": "1", "pre_actions": "1", "move": "4@5", "instance": "prb22436", "distance_to_goal": "NA", "progress": "NA", "move_number": "35", "optimal_length": "11", "subject": "A2MYB6MLQW0IGN:3TYCR1GOTDRCCQYD1V64UK7OE48LZS"}
{"meta_move": "drag_end", "rt": "11048.0", "trial_number": "1", "pre_actions": "1", "move": "r@14", "instance": "prb22436", "distance_to_goal": "NA", "progress": "NA", "move_number": "36", "optimal_length": "11", "subject": "A2MYB6MLQW0IGN:3TYCR1GOTDRCCQYD1V64UK7OE48LZS"}
{"meta_move": "drag_end", "rt": "1005.0", "trial_number": "1", "pre_actions": "1", "move": "5@25", "instance": "prb22436", "distance_to_goal": "NA", "progress": "NA", "move_number": "37", "optimal_length": "11", "subject": "A2MYB6MLQW0IGN:3TYCR1GOTDRCCQYD1V64UK7OE48LZS"}
{"meta_move": "drag_end", "rt": "1470.0", "trial_number": "1", "pre_actions": "1", "move": "1@6", "instance": "prb22436", "distance_to_goal": "NA", "progress": "NA", "move_number": "38", "optimal_length": "11", "subject": "A2MYB6MLQW0IGN:3TYCR1GOTDRCCQYD1V64UK7OE48LZS"}
{"meta_move": "drag_end", "rt": "1918.0", "trial_number": "1", "pre_actions": "1", "move": "6@4", "instance": "prb22436", "distance_to_goal": "NA", "progress": "NA", "move_number": "39", "optimal_length": "11", "subject": "A2MYB6MLQW0IGN:3TYCR1GOTDRCCQYD1V64UK7OE48LZS"}
{"meta_move": "win", "rt": "1027.0", "trial_number": "1", "pre_actions": "1", "move": "r@14", "instance": "prb22436", "distance_to_goal": "1", "progress": "NA", "move_number": "40", "optimal_length": "11", "subject": "A2MYB6MLQW0IGN:3TYCR1GOTDRCCQYD1V64UK7OE48LZS"}
{"meta_move": "drag_end", "rt": "170.0", "trial_number": "0", "pre_actions": "0", "move": "r@16", "instance": "prb22436", "distance_to_goal": "NA", "progress": "NA", "move_number": "40", "optimal_length": "11", "subject": "A2MYB6MLQW0IGN:3TYCR1GOTDRCCQYD1V64UK7OE48LZS"}
{"meta_move": "drag_end", "rt": "2783.0", "trial_number": "10", "pre_actions": "1", "move": "3@26", "instance": "prb22436", "distance_to_goal": "NA", "progress": "NA", "move_number": "0", "optimal_length": "11", "subject": "A2RTJ6BDY0DZVZ:3IJXV6UZ1YR1KY4G6BFEG1DXP7SRI1"}
{"meta_move": "drag_end", "rt": "1139.0", "trial_number": "10", "pre_actions": "1", "move": "4@17", "instance": "prb22436", "distance_to_goal": "NA", "progress": "NA", "move_number": "1", "optimal_length": "11", "subject": "A2RTJ6BDY0DZVZ:3IJXV6UZ1YR1KY4G6BFEG1DXP7SRI1"}
{"meta_move": "drag_end", "rt": "777.0", "trial_number": "10", "pre_actions": "1", "move": "3@27", "instance": "prb22436", "distance_to_goal": "NA", "progress": "NA", "move_number": "2", "optimal_length": "11", "subject": "A2RTJ6BDY0DZVZ:3IJXV6UZ1YR1KY4G6BFEG1DXP7SRI1"}
{"meta_move": "drag_end", "rt": "1360.0", "trial_number": "10", "pre_actions": "1", "move": "2@34", "instance": "prb22436", "distance_to_goal": "NA", "progress": "NA", "move_number": "3", "optimal_length": "11", "subject": "A2RTJ6BDY0DZVZ:3IJXV6UZ1YR1KY4G6BFEG1DXP7SRI1"}
{"meta_move": "drag_end", "rt": "1105.0", "trial_number": "10", "pre_actions": "1", "move": "0@20", "instance": "prb22436", "distance_to_goal": "NA", "progress": "NA", "move_number": "4", "optimal_length": "11", "subject": "A2RTJ6BDY0DZVZ:3IJXV6UZ1YR1KY4G6BFEG1DXP7SRI1"}
{"meta_move": "drag_end", "rt": "1385.0", "trial_number": "10", "pre_actions": "1", "move": "r@14", "instance": "prb22436", "distance_to_goal": "NA", "progress": "NA", "move_number": "5", "optimal_length": "11", "subject": "A2RTJ6BDY0DZVZ:3IJXV6UZ1YR1KY4G6BFEG1DXP7SRI1"}
{"meta_move": "drag_end", "rt": "1618.0", "trial_number": "10", "pre_actions": "1", "move": "5@25", "instance": "prb22436", "distance_to_goal": "NA", "progress": "NA", "move_number": "6", "optimal_length": "11", "subject": "A2RTJ6BDY0DZVZ:3IJXV6UZ1YR1KY4G6BFEG1DXP7SRI1"}
{"meta_move": "drag_end", "rt": "1685.0", "trial_number": "10", "pre_actions": "1", "move": "r@12", "instance": "prb22436", "distance_to_goal": "NA", "progress": "NA", "move_number": "7", "optimal_length": "11", "subject": "A2RTJ6BDY0DZVZ:3IJXV6UZ1YR1KY4G6BFEG1DXP7SRI1"}
{"meta_move": "drag_end", "rt": "895.0", "trial_number": "10", "pre_actions": "1", "move": "1@6", "instance": "prb22436", "distance_to_goal": "NA", "progress": "NA", "move_number": "8", "optimal_length": "11", "subject": "A2RTJ6BDY0DZVZ:3IJXV6UZ1YR1KY4G6BFEG1DXP7SRI1"}
{"meta_move": "drag_end", "rt": "1110.0", "trial_number": "10", "pre_actions": "1", "move": "6@4", "instance": "prb22436", "distance_to_goal": "NA", "progress": "NA", "move_number": "9", "optimal_length": "11", "subject": "A2RTJ6BDY0DZVZ:3IJXV6UZ1YR1KY4G6BFEG1DXP7SRI1"}
{"meta_move": "drag_end", "rt": "864.0", "trial_number": "10", "pre_actions": "1", "move": "4@5", "instance": "prb22436", "distance_to_goal": "NA", "progress": "NA", "move_number": "10", "optimal_length": "11", "subject": "A2RTJ6BDY0DZVZ:3IJXV6UZ1YR1KY4G6BFEG1DXP7SRI1"}
{"meta_move": "win", "rt": "835.0", "trial_number": "10", "pre_actions": "1", "move": "r@12", "instance": "prb22436", "distance_to_goal": "1", "progress": "NA", "move_number": "11", "optimal_length": "11", "subject": "A2RTJ6BDY0DZVZ:3IJXV6UZ1YR1KY4G6BFEG1DXP7SRI1"}
{"meta_move": "drag_end", "rt": "357.0", "trial_number": "0", "pre_actions": "0", "move": "r@16", "instance": "prb22436", "distance_to_goal": "NA", "progress": "NA", "move_number": "11", "optimal_length": "11", "subject": "A2RTJ6BDY0DZVZ:3IJXV6UZ1YR1KY4G6BFEG1DXP7SRI1"}
{"meta_move": "drag_end", "rt": "2375.0", "trial_number": "1", "pre_actions": "1", "move": "6@28", "instance": "prb22436", "distance_to_goal": "NA", "progress": "NA", "move_number": "0", "optimal_length": "11", "subject": "A2TQNX64349OZ9:3WSELTNVR4AZUVYAYCSWZIQW0J4ATB"}
{"meta_move": "drag_end", "rt": "2672.0", "trial_number": "1", "pre_actions": "1", "move": "6@16", "instance": "prb22436", "distance_to_goal": "NA", "progress": "NA", "move_number": "1", "optimal_length": "11", "subject": "A2TQNX64349OZ9:3WSELTNVR4AZUVYAYCSWZIQW0J4ATB"}
{"meta_move": "drag_end", "rt": "993.0", "trial_number": "1", "pre_actions": "1", "move": "3@26", "instance": "prb22436", "distance_to_goal": "NA", "progress": "NA", "move_number": "2", "optimal_length": "11", "subject": "A2TQNX64349OZ9:3WSELTNVR4AZUVYAYCSWZIQW0J4ATB"}
{"meta_move": "drag_end", "rt": "1083.0", "trial_number": "1", "pre_actions": "1", "move": "2@33", "instance": "prb22436", "distance_to_goal": "NA", "progress": "NA", "move_number": "3", "optimal_length": "11", "subject": "A2TQNX64349OZ9:3WSELTNVR4AZUVYAYCSWZIQW0J4ATB"}
{"meta_move": "drag_end", "rt": "3097.0", "trial_number": "1", "pre_actions": "1", "move": "4@17", "instance": "prb22436", "distance_to_goal": "NA", "progress": "NA", "move_number": "4", "optimal_length": "11", "subject": "A2TQNX64349OZ9:3WSELTNVR4AZUVYAYCSWZIQW0J4ATB"}
{"meta_move": "drag_end", "rt": "979.0", "trial_number": "1", "pre_actions": "1", "move": "3@27", "instance": "prb22436", "distance_to_goal": "NA", "progress": "NA", "move_number": "5", "optimal_length": "11", "subject": "A2TQNX64349OZ9:3WSELTNVR4AZUVYAYCSWZIQW0J4ATB"}
{"meta_move": "drag_end", "rt": "3906.0", "trial_number": "1", "pre_actions": "1", "move": "0@20", "instance": "prb22436", "distance_to_goal": "NA", "progress": "NA", "move_number": "6", "optimal_length": "11", "subject": "A2TQNX64349OZ9:3WSELTNVR4AZUVYAYCSWZIQW0J4ATB"}
{"meta_move": "drag_end", "rt": "2057.0", "trial_number": "1", "pre_actions": "1", "move": "1@9", "instance": "prb22436", "distance_to_goal": "NA", "progress": "NA", "move_number": "7", "optimal_length": "11", "subject": "A2TQNX64349OZ9:3WSELTNVR4AZUVYAYCSWZIQW0J4ATB"}
{"meta_move": "drag_end", "rt": "1165.0", "trial_number": "1", "pre_actions": "1", "move": "r@14", "instance": "prb22436", "distance_to_goal": "NA", "progress": "NA", "move_number": "7", "optimal_length": "11", "subject": "A2TQNX64349OZ9:3WSELTNVR4AZUVYAYCSWZIQW0J4ATB"}
{"meta_move": "drag_end", "rt": "614.0", "trial_number": "1", "pre_actions": "1", "move": "1@8", "instance": "prb22436", "distance_to_goal": "NA", "progress": "NA", "move_number": "8", "optimal_length": "11", "subject": "A2TQNX64349OZ9:3WSELTNVR4AZUVYAYCSWZIQW0J4ATB"}
{"meta_move": "drag_end", "rt": "947.0", "trial_number": "1", "pre_actions": "1", "move": "4@5", "instance": "prb22436", "distance_to_goal": "NA", "progress": "NA", "move_number": "9", "optimal_length": "11", "subject": "A2TQNX64349OZ9:3WSELTNVR4AZUVYAYCSWZIQW0J4ATB"}
{"meta_move": "drag_end", "rt": "4227.0", "trial_number": "1", "pre_actions": "1", "move": "5@25", "instance": "prb22436", "distance_to_goal": "NA", "progress": "NA", "move_number": "10", "optimal_length": "11", "subject": "A2TQNX64349OZ9:3WSELTNVR4AZUVYAYCSWZIQW0J4ATB"}
{"meta_move": "drag_end", "rt": "1141.0", "trial_number": "1", "pre_actions": "1", "move": "1@6", "instance": "prb22436", "distance_to_goal": "NA", "progress": "NA", "move_number": "11", "optimal_length": "11", "subject": "A2TQNX64349OZ9:3WSELTNVR4AZUVYAYCSWZIQW0J4ATB"}
{"meta_move": "drag_end", "rt": "1487.0", "trial_number": "1", "pre_actions": "1", "move": "6@4", "instance": "prb22436", "distance_to_goal": "NA", "progress": "NA", "move_number": "12", "optimal_length": "11", "subject": "A2TQNX64349OZ9:3WSELTNVR4AZUVYAYCSWZIQW0J4ATB"}
{"meta_move": "win", "rt": "675.0", "trial_number": "1", "pre_actions": "1", "move": "r@14", "instance": "prb22436", "distance_to_goal": "1", "progress": "NA", "move_number": "13", "optimal_length": "11", "subject": "A2TQNX64349OZ9:3WSELTNVR4AZUVYAYCSWZIQW0J4ATB"}
{"meta_move": "drag_end", "rt": "180.0", "trial_number": "0", "pre_actions": "0", "move": "r@16", "instance": "prb22436", "distance_to_goal": "NA", "progress": "NA", "move_number": "13", "optimal_length": "11", "subject": "A2TQNX64349OZ9:3WSELTNVR4AZUVYAYCSWZIQW0J4ATB"}
{"meta_move": "drag_end", "rt": "40315.0", "trial_number": "1", "pre_actions": "1", "move": "4@17", "instance": "prb22436", "distance_to_goal": "NA", "progress": "NA", "move_number": "0", "optimal_length": "11", "subject": "A39GADIK8RLMVC:36AHBNMV1SKT9O0GSS6XX0QHZV3YDN"}
{"meta_move": "drag_end", "rt": "1706.0", "trial_number": "1", "pre_actions": "1", "move": "3@27", "instance": "prb22436", "distance_to_goal": "NA", "progress": "NA", "move_number": "1", "optimal_length": "11", "subject": "A39GADIK8RLMVC:36AHBNMV1SKT9O0GSS6XX0QHZV3YDN"}
{"meta_move": "drag_end", "rt": "1741.0", "trial_number": "1", "pre_actions": "1", "move": "2@33", "instance": "prb22436", "distance_to_goal": "NA", "progress": "NA", "move_number": "2", "optimal_length": "11", "subject": "A39GADIK8RLMVC:36AHBNMV1SKT9O0GSS6XX0QHZV3YDN"}
{"meta_move": "drag_end", "rt": "2154.0", "trial_number": "1", "pre_actions": "1", "move": "0@20", "instance": "prb22436", "distance_to_goal": "NA", "progress": "NA", "move_number": "3", "optimal_length": "11", "subject": "A39GADIK8RLMVC:36AHBNMV1SKT9O0GSS6XX0QHZV3YDN"}
{"meta_move": "drag_end", "rt": "1840.0", "trial_number": "1", "pre_actions": "1", "move": "r@14", "instance": "prb22436", "distance_to_goal": "NA", "progress": "NA", "move_number": "4", "optimal_length": "11", "subject": "A39GADIK8RLMVC:36AHBNMV1SKT9O0GSS6XX0QHZV3YDN"}
{"meta_move": "drag_end", "rt": "1901.0", "trial_number": "1", "pre_actions": "1", "move": "5@13", "instance": "prb22436", "distance_to_goal": "NA", "progress": "NA", "move_number": "5", "optimal_length": "11", "subject": "A39GADIK8RLMVC:36AHBNMV1SKT9O0GSS6XX0QHZV3YDN"}
{"meta_move": "drag_end", "rt": "2056.0", "trial_number": "1", "pre_actions": "1", "move": "1@6", "instance": "prb22436", "distance_to_goal": "NA", "progress": "NA", "move_number": "6", "optimal_length": "11", "subject": "A39GADIK8RLMVC:36AHBNMV1SKT9O0GSS6XX0QHZV3YDN"}
{"meta_move": "drag_end", "rt": "2737.0", "trial_number": "1", "pre_actions": "1", "move": "6@4", "instance": "prb22436", "distance_to_goal": "NA", "progress": "NA", "move_number": "7", "optimal_length": "11", "subject": "A39GADIK8RLMVC:36AHBNMV1SKT9O0GSS6XX0QHZV3YDN"}
{"meta_move": "drag_end", "rt": "1496.0", "trial_number": "1", "pre_actions": "1", "move": "4@5", "instance": "prb22436", "distance_to_goal": "NA", "progress": "NA", "move_number": "8", "optimal_length": "11", "subject": "A39GADIK8RLMVC:36AHBNMV1SKT9O0GSS6XX0QHZV3YDN"}
{"meta_move": "win", "rt": "371.0", "trial_number": "1", "pre_actions": "1", "move": "r@14", "instance": "prb22436", "distance_to_goal": "1", "progress": "NA", "move_number": "9", "optimal_length": "11", "subject": "A39GADIK8RLMVC:36AHBNMV1SKT9O0GSS6XX0QHZV3YDN"}
{"meta_move": "drag_end", "rt": "45.0", "trial_number": "0", "pre_actions": "0", "move": "r@16", "instance": "prb22436", "distance_to_goal": "NA", "progress": "NA", "move_number": "9", "optimal_length": "11", "subject": "A39GADIK8RLMVC:36AHBNMV1SKT9O0GSS6XX0QHZV3YDN"}
{"meta_move": "drag_end", "rt": "8754.0", "trial_number": "2", "pre_actions": "1", "move": "4@17", "instance": "prb22436", "distance_to_goal": "NA", "progress": "NA", "move_number": "0", "optimal_length": "11", "subject": "A3Q0XAGQ7TD7MP:3X87C8JFV7JQ2BSCY8KSFD9F2ILSQK"}
{"meta_move": "drag_end", "rt": "1253.0", "trial_number": "2", "pre_actions": "1", "move": "3@27", "instance": "prb22436", "distance_to_goal": "NA", "progress": "NA", "move_number": "1", "optimal_length": "11", "subject": "A3Q0XAGQ7TD7MP:3X87C8JFV7JQ2BSCY8KSFD9F2ILSQK"}
{"meta_move": "drag_end", "rt": "2450.0", "trial_number": "2", "pre_actions": "1", "move": "2@34", "instance": "prb22436", "distance_to_goal": "NA", "progress": "NA", "move_number": "2", "optimal_length": "11", "subject": "A3Q0XAGQ7TD7MP:3X87C8JFV7JQ2BSCY8KSFD9F2ILSQK"}
{"meta_move": "drag_end", "rt": "1634.0", "trial_number": "2", "pre_actions": "1", "move": "0@20", "instance": "prb22436", "distance_to_goal": "NA", "progress": "NA", "move_number": "3", "optimal_length": "11", "subject": "A3Q0XAGQ7TD7MP:3X87C8JFV7JQ2BSCY8KSFD9F2ILSQK"}
{"meta_move": "drag_end", "rt": "1931.0", "trial_number": "2", "pre_actions": "1", "move": "1@8", "instance": "prb22436", "distance_to_goal": "NA", "progress": "NA", "move_number": "4", "optimal_length": "11", "subject": "A3Q0XAGQ7TD7MP:3X87C8JFV7JQ2BSCY8KSFD9F2ILSQK"}
{"meta_move": "drag_end", "rt": "1184.0", "trial_number": "2", "pre_actions": "1", "move": "4@5", "instance": "prb22436", "distance_to_goal": "NA", "progress": "NA", "move_number": "5", "optimal_length": "11", "subject": "A3Q0XAGQ7TD7MP:3X87C8JFV7JQ2BSCY8KSFD9F2ILSQK"}
{"meta_move": "drag_end", "rt": "3264.0", "trial_number": "2", "pre_actions": "1", "move": "r@14", "instance": "prb22436", "distance_to_goal": "NA", "progress": "NA", "move_number": "6", "optimal_length": "11", "subject": "A3Q0XAGQ7TD7MP:3X87C8JFV7JQ2BSCY8KSFD9F2ILSQK"}
{"meta_move": "drag_end", "rt": "1557.0", "trial_number": "2", "pre_actions": "1", "move": "5@25", "instance": "prb22436", "distance_to_goal": "NA", "progress": "NA", "move_number": "7", "optimal_length": "11", "subject": "A3Q0XAGQ7TD7MP:3X87C8JFV7JQ2BSCY8KSFD9F2ILSQK"}
{"meta_move": "drag_end", "rt": "1074.0", "trial_number": "2", "pre_actions": "1", "move": "1@6", "instance": "prb22436", "distance_to_goal": "NA", "progress": "NA", "move_number": "8", "optimal_length": "11", "subject": "A3Q0XAGQ7TD7MP:3X87C8JFV7JQ2BSCY8KSFD9F2ILSQK"}
{"meta_move": "drag_end", "rt": "1678.0", "trial_number": "2", "pre_actions": "1", "move": "6@4", "instance": "prb22436", "distance_to_goal": "NA", "progress": "NA", "move_number": "9", "optimal_length": "11", "subject": "A3Q0XAGQ7TD7MP:3X87C8JFV7JQ2BSCY8KSFD9F2ILSQK"}
{"meta_move": "win", "rt": "941.0", "trial_number": "2", "pre_actions": "1", "move": "r@14", "instance": "prb22436", "distance_to_goal": "1", "progress": "NA", "move_number": "10", "optimal_length": "11", "subject": "A3Q0XAGQ7TD7MP:3X87C8JFV7JQ2BSCY8KSFD9F2ILSQK"}
{"meta_move": "drag_end", "rt": "116.0", "trial_number": "0", "pre_actions": "0", "move": "r@16", "instance": "prb22436", "distance_to_goal": "NA", "progress": "NA", "move_number": "10", "optimal_length": "11", "subject": "A3Q0XAGQ7TD7MP:3X87C8JFV7JQ2BSCY8KSFD9F2ILSQK"}
{"meta_move": "drag_end", "rt": "2631.0", "trial_number": "1", "pre_actions": "1", "move": "6@28", "instance": "prb22436", "distance_to_goal": "NA", "progress": "NA", "move_number": "0", "optimal_length": "11", "subject": "ARWF605I7RWM7:3AZHRG4CU5SYU12YRVPCSZALW5003R"}
{"meta_move": "drag_end", "rt": "2259.0", "trial_number": "1", "pre_actions": "1", "move": "1@9", "instance": "prb22436", "distance_to_goal": "NA", "progress": "NA", "move_number": "1", "optimal_length": "11", "subject": "ARWF605I7RWM7:3AZHRG4CU5SYU12YRVPCSZALW5003R"}
{"meta_move": "drag_end", "rt": "628.0", "trial_number": "1", "pre_actions": "1", "move": "0@2", "instance": "prb22436", "distance_to_goal": "NA", "progress": "NA", "move_number": "1", "optimal_length": "11", "subject": "ARWF605I7RWM7:3AZHRG4CU5SYU12YRVPCSZALW5003R"}
{"meta_move": "drag_end", "rt": "1201.0", "trial_number": "1", "pre_actions": "1", "move": "6@16", "instance": "prb22436", "distance_to_goal": "NA", "progress": "NA", "move_number": "2", "optimal_length": "11", "subject": "ARWF605I7RWM7:3AZHRG4CU5SYU12YRVPCSZALW5003R"}
{"meta_move": "drag_end", "rt": "562.0", "trial_number": "1", "pre_actions": "1", "move": "4@17", "instance": "prb22436", "distance_to_goal": "NA", "progress": "NA", "move_number": "3", "optimal_length": "11", "subject": "ARWF605I7RWM7:3AZHRG4CU5SYU12YRVPCSZALW5003R"}
{"meta_move": "drag_end", "rt": "565.0", "trial_number": "1", "pre_actions": "1", "move": "3@27", "instance": "prb22436", "distance_to_goal": "NA", "progress": "NA", "move_number": "4", "optimal_length": "11", "subject": "ARWF605I7RWM7:3AZHRG4CU5SYU12YRVPCSZALW5003R"}
{"meta_move": "drag_end", "rt": "540.0", "trial_number": "1", "pre_actions": "1", "move": "2@34", "instance": "prb22436", "distance_to_goal": "NA", "progress": "NA", "move_number": "5", "optimal_length": "11", "subject": "ARWF605I7RWM7:3AZHRG4CU5SYU12YRVPCSZALW5003R"}
{"meta_move": "drag_end", "rt": "727.0", "trial_number": "1", "pre_actions": "1", "move": "0@20", "instance": "prb22436", "distance_to_goal": "NA", "progress": "NA", "move_number": "6", "optimal_length": "11", "subject": "ARWF605I7RWM7:3AZHRG4CU5SYU12YRVPCSZALW5003R"}
{"meta_move": "drag_end", "rt": "525.0", "trial_number": "1", "pre_actions": "1", "move": "r@14", "instance": "prb22436", "distance_to_goal": "NA", "progress": "NA", "move_number": "7", "optimal_length": "11", "subject": "ARWF605I7RWM7:3AZHRG4CU5SYU12YRVPCSZALW5003R"}
{"meta_move": "drag_end", "rt": "674.0", "trial_number": "1", "pre_actions": "1", "move": "1@8", "instance": "prb22436", "distance_to_goal": "NA", "progress": "NA", "move_number": "8", "optimal_length": "11", "subject": "ARWF605I7RWM7:3AZHRG4CU5SYU12YRVPCSZALW5003R"}
{"meta_move": "drag_end", "rt": "1009.0", "trial_number": "1", "pre_actions": "1", "move": "5@25", "instance": "prb22436", "distance_to_goal": "NA", "progress": "NA", "move_number": "9", "optimal_length": "11", "subject": "ARWF605I7RWM7:3AZHRG4CU5SYU12YRVPCSZALW5003R"}
{"meta_move": "drag_end", "rt": "553.0", "trial_number": "1", "pre_actions": "1", "move": "1@6", "instance": "prb22436", "distance_to_goal": "NA", "progress": "NA", "move_number": "10", "optimal_length": "11", "subject": "ARWF605I7RWM7:3AZHRG4CU5SYU12YRVPCSZALW5003R"}
{"meta_move": "drag_end", "rt": "597.0", "trial_number": "1", "pre_actions": "1", "move": "6@4", "instance": "prb22436", "distance_to_goal": "NA", "progress": "NA", "move_number": "11", "optimal_length": "11", "subject": "ARWF605I7RWM7:3AZHRG4CU5SYU12YRVPCSZALW5003R"}
{"meta_move": "drag_end", "rt": "499.0", "trial_number": "1", "pre_actions": "1", "move": "4@5", "instance": "prb22436", "distance_to_goal": "NA", "progress": "NA", "move_number": "12", "optimal_length": "11", "subject": "ARWF605I7RWM7:3AZHRG4CU5SYU12YRVPCSZALW5003R"}
{"meta_move": "win", "rt": "494.0", "trial_number": "1", "pre_actions": "1", "move": "r@14", "instance": "prb22436", "distance_to_goal": "1", "progress": "NA", "move_number": "13", "optimal_length": "11", "subject": "ARWF605I7RWM7:3AZHRG4CU5SYU12YRVPCSZALW5003R"}
{"meta_move": "drag_end", "rt": "134.0", "trial_number": "0", "pre_actions": "0", "move": "r@16", "instance": "prb22436", "distance_to_goal": "NA", "progress": "NA", "move_number": "13", "optimal_length": "11", "subject": "ARWF605I7RWM7:3AZHRG4CU5SYU12YRVPCSZALW5003R"}
{"meta_move": "drag_end", "rt": "4452.0", "trial_number": "3", "pre_actions": "1", "move": "0@8", "instance": "prb22436", "distance_to_goal": "NA", "progress": "NA", "move_number": "0", "optimal_length": "11", "subject": "AU4KK3OYS2UZF:3ZSY5X72NYJBGKFJ46SJ0Y9J0RLROB"}
{"meta_move": "drag_end", "rt": "5478.0", "trial_number": "3", "pre_actions": "1", "move": "4@17", "instance": "prb22436", "distance_to_goal": "NA", "progress": "NA", "move_number": "0", "optimal_length": "11", "subject": "AU4KK3OYS2UZF:3ZSY5X72NYJBGKFJ46SJ0Y9J0RLROB"}
{"meta_move": "drag_end", "rt": "1233.0", "trial_number": "3", "pre_actions": "1", "move": "4@17", "instance": "prb22436", "distance_to_goal": "NA", "progress": "NA", "move_number": "1", "optimal_length": "11", "subject": "AU4KK3OYS2UZF:3ZSY5X72NYJBGKFJ46SJ0Y9J0RLROB"}
{"meta_move": "drag_end", "rt": "3340.0", "trial_number": "4", "pre_actions": "1", "move": "4@17", "instance": "prb22436", "distance_to_goal": "NA", "progress": "NA", "move_number": "0", "optimal_length": "11", "subject": "AU4KK3OYS2UZF:3ZSY5X72NYJBGKFJ46SJ0Y9J0RLROB"}
{"meta_move": "drag_end", "rt": "1648.0", "trial_number": "4", "pre_actions": "1", "move": "3@27", "instance": "prb22436", "distance_to_goal": "NA", "progress": "NA", "move_number": "1", "optimal_length": "11", "subject": "AU4KK3OYS2UZF:3ZSY5X72NYJBGKFJ46SJ0Y9J0RLROB"}
{"meta_move": "drag_end", "rt": "979.0", "trial_number": "4", "pre_actions": "1", "move": "2@34", "instance": "prb22436", "distance_to_goal": "NA", "progress": "NA", "move_number": "2", "optimal_length": "11", "subject": "AU4KK3OYS2UZF:3ZSY5X72NYJBGKFJ46SJ0Y9J0RLROB"}
{"meta_move": "drag_end", "rt": "2805.0", "trial_number": "4", "pre_actions": "1", "move": "0@20", "instance": "prb22436", "distance_to_goal": "NA", "progress": "NA", "move_number": "3", "optimal_length": "11", "subject": "AU4KK3OYS2UZF:3ZSY5X72NYJBGKFJ46SJ0Y9J0RLROB"}
{"meta_move": "drag_end", "rt": "656.0", "trial_number": "4", "pre_actions": "1", "move": "r@14", "instance": "prb22436", "distance_to_goal": "NA", "progress": "NA", "move_number": "4", "optimal_length": "11", "subject": "AU4KK3OYS2UZF:3ZSY5X72NYJBGKFJ46SJ0Y9J0RLROB"}
{"meta_move": "drag_end", "rt": "668.0", "trial_number": "4", "pre_actions": "1", "move": "5@25", "instance": "prb22436", "distance_to_goal": "NA", "progress": "NA", "move_number": "5", "optimal_length": "11", "subject": "AU4KK3OYS2UZF:3ZSY5X72NYJBGKFJ46SJ0Y9J0RLROB"}
{"meta_move": "drag_end", "rt": "613.0", "trial_number": "4", "pre_actions": "1", "move": "1@6", "instance": "prb22436", "distance_to_goal": "NA", "progress": "NA", "move_number": "6", "optimal_length": "11", "subject": "AU4KK3OYS2UZF:3ZSY5X72NYJBGKFJ46SJ0Y9J0RLROB"}
{"meta_move": "drag_end", "rt": "711.0", "trial_number": "4", "pre_actions": "1", "move": "6@4", "instance": "prb22436", "distance_to_goal": "NA", "progress": "NA", "move_number": "7", "optimal_length": "11", "subject": "AU4KK3OYS2UZF:3ZSY5X72NYJBGKFJ46SJ0Y9J0RLROB"}
{"meta_move": "drag_end", "rt": "571.0", "trial_number": "4", "pre_actions": "1", "move": "4@5", "instance": "prb22436", "distance_to_goal": "NA", "progress": "NA", "move_number": "8", "optimal_length": "11", "subject": "AU4KK3OYS2UZF:3ZSY5X72NYJBGKFJ46SJ0Y9J0RLROB"}
{"meta_move": "win", "rt": "497.0", "trial_number": "4", "pre_actions": "1", "move": "r@14", "instance": "prb22436", "distance_to_goal": "1", "progress": "NA", "move_number": "9", "optimal_length": "11", "subject": "AU4KK3OYS2UZF:3ZSY5X72NYJBGKFJ46SJ0Y9J0RLROB"}
{"meta_move": "drag_end", "rt": "140.0", "trial_number": "0", "pre_actions": "0", "move": "r@16", "instance": "prb22436", "distance_to_goal": "NA", "progress": "NA", "move_number": "9", "optimal_length": "11", "subject": "AU4KK3OYS2UZF:3ZSY5X72NYJBGKFJ46SJ0Y9J0RLROB"}
{"meta_move": "drag_end", "rt": "1511.0", "trial_number": "1", "pre_actions": "1", "move": "5@1", "instance": "prb22436", "distance_to_goal": "NA", "progress": "NA", "move_number": "0", "optimal_length": "11", "subject": "AYPOAY43REHC8:3ON104KXQL4CKNMNKGNG9ZBVBAB4WI"}
{"meta_move": "drag_end", "rt": "1110.0", "trial_number": "1", "pre_actions": "1", "move": "0@2", "instance": "prb22436", "distance_to_goal": "NA", "progress": "NA", "move_number": "0", "optimal_length": "11", "subject": "AYPOAY43REHC8:3ON104KXQL4CKNMNKGNG9ZBVBAB4WI"}
{"meta_move": "drag_end", "rt": "1469.0", "trial_number": "1", "pre_actions": "1", "move": "6@28", "instance": "prb22436", "distance_to_goal": "NA", "progress": "NA", "move_number": "1", "optimal_length": "11", "subject": "AYPOAY43REHC8:3ON104KXQL4CKNMNKGNG9ZBVBAB4WI"}
{"meta_move": "drag_end", "rt": "5418.0", "trial_number": "1", "pre_actions": "1", "move": "6@16", "instance": "prb22436", "distance_to_goal": "NA", "progress": "NA", "move_number": "2", "optimal_length": "11", "subject": "AYPOAY43REHC8:3ON104KXQL4CKNMNKGNG9ZBVBAB4WI"}
{"meta_move": "drag_end", "rt": "734.0", "trial_number": "1", "pre_actions": "1", "move": "4@17", "instance": "prb22436", "distance_to_goal": "NA", "progress": "NA", "move_number": "3", "optimal_length": "11", "subject": "AYPOAY43REHC8:3ON104KXQL4CKNMNKGNG9ZBVBAB4WI"}
{"meta_move": "drag_end", "rt": "641.0", "trial_number": "1", "pre_actions": "1", "move": "3@27", "instance": "prb22436", "distance_to_goal": "NA", "progress": "NA", "move_number": "4", "optimal_length": "11", "subject": "AYPOAY43REHC8:3ON104KXQL4CKNMNKGNG9ZBVBAB4WI"}
{"meta_move": "drag_end", "rt": "614.0", "trial_number": "1", "pre_actions": "1", "move": "2@34", "instance": "prb22436", "distance_to_goal": "NA", "progress": "NA", "move_number": "5", "optimal_length": "11", "subject": "AYPOAY43REHC8:3ON104KXQL4CKNMNKGNG9ZBVBAB4WI"}
{"meta_move": "drag_end", "rt": "858.0", "trial_number": "1", "pre_actions": "1", "move": "7@24", "instance": "prb22436", "distance_to_goal": "NA", "progress": "NA", "move_number": "6", "optimal_length": "11", "subject": "AYPOAY43REHC8:3ON104KXQL4CKNMNKGNG9ZBVBAB4WI"}
{"meta_move": "drag_end", "rt": "829.0", "trial_number": "1", "pre_actions": "1", "move": "0@20", "instance": "prb22436", "distance_to_goal": "NA", "progress": "NA", "move_number": "6", "optimal_length": "11", "subject": "AYPOAY43REHC8:3ON104KXQL4CKNMNKGNG9ZBVBAB4WI"}
{"meta_move": "drag_end", "rt": "889.0", "trial_number": "1", "pre_actions": "1", "move": "r@14", "instance": "prb22436", "distance_to_goal": "NA", "progress": "NA", "move_number": "7", "optimal_length": "11", "subject": "AYPOAY43REHC8:3ON104KXQL4CKNMNKGNG9ZBVBAB4WI"}
{"meta_move": "drag_end", "rt": "3992.0", "trial_number": "1", "pre_actions": "1", "move": "7@0", "instance": "prb22436", "distance_to_goal": "NA", "progress": "NA", "move_number": "8", "optimal_length": "11", "subject": "AYPOAY43REHC8:3ON104KXQL4CKNMNKGNG9ZBVBAB4WI"}
{"meta_move": "drag_end", "rt": "2032.0", "trial_number": "1", "pre_actions": "1", "move": "r@12", "instance": "prb22436", "distance_to_goal": "NA", "progress": "NA", "move_number": "9", "optimal_length": "11", "subject": "AYPOAY43REHC8:3ON104KXQL4CKNMNKGNG9ZBVBAB4WI"}
{"meta_move": "drag_end", "rt": "2817.0", "trial_number": "1", "pre_actions": "1", "move": "0@20", "instance": "prb22436", "distance_to_goal": "NA", "progress": "NA", "move_number": "10", "optimal_length": "11", "subject": "AYPOAY43REHC8:3ON104KXQL4CKNMNKGNG9ZBVBAB4WI"}
{"meta_move": "drag_end", "rt": "1345.0", "trial_number": "1", "pre_actions": "1", "move": "1@8", "instance": "prb22436", "distance_to_goal": "NA", "progress": "NA", "move_number": "10", "optimal_length": "11", "subject": "AYPOAY43REHC8:3ON104KXQL4CKNMNKGNG9ZBVBAB4WI"}
{"meta_move": "drag_end", "rt": "918.0", "trial_number": "1", "pre_actions": "1", "move": "4@5", "instance": "prb22436", "distance_to_goal": "NA", "progress": "NA", "move_number": "11", "optimal_length": "11", "subject": "AYPOAY43REHC8:3ON104KXQL4CKNMNKGNG9ZBVBAB4WI"}
{"meta_move": "drag_end", "rt": "1125.0", "trial_number": "1", "pre_actions": "1", "move": "6@16", "instance": "prb22436", "distance_to_goal": "NA", "progress": "NA", "move_number": "12", "optimal_length": "11", "subject": "AYPOAY43REHC8:3ON104KXQL4CKNMNKGNG9ZBVBAB4WI"}
{"meta_move": "drag_end", "rt": "1858.0", "trial_number": "1", "pre_actions": "1", "move": "2@33", "instance": "prb22436", "distance_to_goal": "NA", "progress": "NA", "move_number": "12", "optimal_length": "11", "subject": "AYPOAY43REHC8:3ON104KXQL4CKNMNKGNG9ZBVBAB4WI"}
{"meta_move": "drag_end", "rt": "1663.0", "trial_number": "1", "pre_actions": "1", "move": "0@14", "instance": "prb22436", "distance_to_goal": "NA", "progress": "NA", "move_number": "13", "optimal_length": "11", "subject": "AYPOAY43REHC8:3ON104KXQL4CKNMNKGNG9ZBVBAB4WI"}
