{"meta_move": "drag_end", "rt": "6870.0", "trial_number": "1", "pre_actions": "1", "move": "7@25", "instance": "prb20888", "distance_to_goal": "NA", "progress": "NA", "move_number": "0", "optimal_length": "14", "subject": "A15FXHC1CVNW31:3TS1AR6UQRM7SOIBWPBN8N9589Y7FV"}
{"meta_move": "drag_end", "rt": "793.0", "trial_number": "1", "pre_actions": "1", "move": "2@21", "instance": "prb20888", "distance_to_goal": "NA", "progress": "NA", "move_number": "1", "optimal_length": "14", "subject": "A15FXHC1CVNW31:3TS1AR6UQRM7SOIBWPBN8N9589Y7FV"}
{"meta_move": "drag_end", "rt": "1215.0", "trial_number": "1", "pre_actions": "1", "move": "5@4", "instance": "prb20888", "distance_to_goal": "NA", "progress": "NA", "move_number": "2", "optimal_length": "14", "subject": "A15FXHC1CVNW31:3TS1AR6UQRM7SOIBWPBN8N9589Y7FV"}
{"meta_move": "drag_end", "rt": "955.0", "trial_number": "1", "pre_actions": "1", "move": "6@8", "instance": "prb20888", "distance_to_goal": "NA", "progress": "NA", "move_number": "3", "optimal_length": "14", "subject": "A15FXHC1CVNW31:3TS1AR6UQRM7SOIBWPBN8N9589Y7FV"}
{"meta_move": "drag_end", "rt": "718.0", "trial_number": "1", "pre_actions": "1", "move": "5@0", "instance": "prb20888", "distance_to_goal": "NA", "progress": "NA", "move_number": "4", "optimal_length": "14", "subject": "A15FXHC1CVNW31:3TS1AR6UQRM7SOIBWPBN8N9589Y7FV"}
{"meta_move": "drag_end", "rt": "1119.0", "trial_number": "1", "pre_actions": "1", "move": "0@10", "instance": "prb20888", "distance_to_goal": "NA", "progress": "NA", "move_number": "5", "optimal_length": "14", "subject": "A15FXHC1CVNW31:3TS1AR6UQRM7SOIBWPBN8N9589Y7FV"}
{"meta_move": "drag_end", "rt": "795.0", "trial_number": "1", "pre_actions": "1", "move": "6@2", "instance": "prb20888", "distance_to_goal": "NA", "progress": "NA", "move_number": "5", "optimal_length": "14", "subject": "A15FXHC1CVNW31:3TS1AR6UQRM7SOIBWPBN8N9589Y7FV"}
{"meta_move": "drag_end", "rt": "1573.0", "trial_number": "1", "pre_actions": "1", "move": "2@3", "instance": "prb20888", "distance_to_goal": "NA", "progress": "NA", "move_number": "6", "optimal_length": "14", "subject": "A15FXHC1CVNW31:3TS1AR6UQRM7SOIBWPBN8N9589Y7FV"}
{"meta_move": "drag_end", "rt": "785.0", "trial_number": "1", "pre_actions": "1", "move": "7@27", "instance": "prb20888", "distance_to_goal": "NA", "progress": "NA", "move_number": "7", "optimal_length": "14", "subject": "A15FXHC1CVNW31:3TS1AR6UQRM7SOIBWPBN8N9589Y7FV"}
{"meta_move": "drag_end", "rt": "683.0", "trial_number": "1", "pre_actions": "1", "move": "1@21", "instance": "prb20888", "distance_to_goal": "NA", "progress": "NA", "move_number": "8", "optimal_length": "14", "subject": "A15FXHC1CVNW31:3TS1AR6UQRM7SOIBWPBN8N9589Y7FV"}
{"meta_move": "drag_end", "rt": "2004.0", "trial_number": "1", "pre_actions": "1", "move": "3@18", "instance": "prb20888", "distance_to_goal": "NA", "progress": "NA", "move_number": "9", "optimal_length": "14", "subject": "A15FXHC1CVNW31:3TS1AR6UQRM7SOIBWPBN8N9589Y7FV"}
{"meta_move": "drag_end", "rt": "684.0", "trial_number": "1", "pre_actions": "1", "move": "7@25", "instance": "prb20888", "distance_to_goal": "NA", "progress": "NA", "move_number": "10", "optimal_length": "14", "subject": "A15FXHC1CVNW31:3TS1AR6UQRM7SOIBWPBN8N9589Y7FV"}
{"meta_move": "drag_end", "rt": "799.0", "trial_number": "1", "pre_actions": "1", "move": "1@19", "instance": "prb20888", "distance_to_goal": "NA", "progress": "NA", "move_number": "11", "optimal_length": "14", "subject": "A15FXHC1CVNW31:3TS1AR6UQRM7SOIBWPBN8N9589Y7FV"}
{"meta_move": "drag_end", "rt": "651.0", "trial_number": "1", "pre_actions": "1", "move": "2@21", "instance": "prb20888", "distance_to_goal": "NA", "progress": "NA", "move_number": "12", "optimal_length": "14", "subject": "A15FXHC1CVNW31:3TS1AR6UQRM7SOIBWPBN8N9589Y7FV"}
{"meta_move": "drag_end", "rt": "1435.0", "trial_number": "1", "pre_actions": "1", "move": "0@9", "instance": "prb20888", "distance_to_goal": "NA", "progress": "NA", "move_number": "13", "optimal_length": "14", "subject": "A15FXHC1CVNW31:3TS1AR6UQRM7SOIBWPBN8N9589Y7FV"}
{"meta_move": "drag_end", "rt": "651.0", "trial_number": "1", "pre_actions": "1", "move": "4@5", "instance": "prb20888", "distance_to_goal": "NA", "progress": "NA", "move_number": "14", "optimal_length": "14", "subject": "A15FXHC1CVNW31:3TS1AR6UQRM7SOIBWPBN8N9589Y7FV"}
{"meta_move": "drag_end", "rt": "2835.0", "trial_number": "1", "pre_actions": "1", "move": "2@15", "instance": "prb20888", "distance_to_goal": "NA", "progress": "NA", "move_number": "15", "optimal_length": "14", "subject": "A15FXHC1CVNW31:3TS1AR6UQRM7SOIBWPBN8N9589Y7FV"}
{"meta_move": "drag_end", "rt": "949.0", "trial_number": "1", "pre_actions": "1", "move": "3@24", "instance": "prb20888", "distance_to_goal": "NA", "progress": "NA", "move_number": "16", "optimal_length": "14", "subject": "A15FXHC1CVNW31:3TS1AR6UQRM7SOIBWPBN8N9589Y7FV"}
{"meta_move": "drag_end", "rt": "617.0", "trial_number": "1", "pre_actions": "1", "move": "1@18", "instance": "prb20888", "distance_to_goal": "NA", "progress": "NA", "move_number": "17", "optimal_length": "14", "subject": "A15FXHC1CVNW31:3TS1AR6UQRM7SOIBWPBN8N9589Y7FV"}
{"meta_move": "drag_end", "rt": "670.0", "trial_number": "1", "pre_actions": "1", "move": "7@25", "instance": "prb20888", "distance_to_goal": "NA", "progress": "NA", "move_number": "18", "optimal_length": "14", "subject": "A15FXHC1CVNW31:3TS1AR6UQRM7SOIBWPBN8N9589Y7FV"}
{"meta_move": "drag_end", "rt": "922.0", "trial_number": "1", "pre_actions": "1", "move": "2@21", "instance": "prb20888", "distance_to_goal": "NA", "progress": "NA", "move_number": "18", "optimal_length": "14", "subject": "A15FXHC1CVNW31:3TS1AR6UQRM7SOIBWPBN8N9589Y7FV"}
{"meta_move": "drag_end", "rt": "1297.0", "trial_number": "1", "pre_actions": "1", "move": "4@17", "instance": "prb20888", "distance_to_goal": "NA", "progress": "NA", "move_number": "19", "optimal_length": "14", "subject": "A15FXHC1CVNW31:3TS1AR6UQRM7SOIBWPBN8N9589Y7FV"}
{"meta_move": "drag_end", "rt": "517.0", "trial_number": "1", "pre_actions": "1", "move": "0@10", "instance": "prb20888", "distance_to_goal": "NA", "progress": "NA", "move_number": "20", "optimal_length": "14", "subject": "A15FXHC1CVNW31:3TS1AR6UQRM7SOIBWPBN8N9589Y7FV"}
{"meta_move": "drag_end", "rt": "686.0", "trial_number": "1", "pre_actions": "1", "move": "2@3", "instance": "prb20888", "distance_to_goal": "NA", "progress": "NA", "move_number": "21", "optimal_length": "14", "subject": "A15FXHC1CVNW31:3TS1AR6UQRM7SOIBWPBN8N9589Y7FV"}
{"meta_move": "drag_end", "rt": "1066.0", "trial_number": "1", "pre_actions": "1", "move": "7@27", "instance": "prb20888", "distance_to_goal": "NA", "progress": "NA", "move_number": "22", "optimal_length": "14", "subject": "A15FXHC1CVNW31:3TS1AR6UQRM7SOIBWPBN8N9589Y7FV"}
{"meta_move": "drag_end", "rt": "944.0", "trial_number": "1", "pre_actions": "1", "move": "6@20", "instance": "prb20888", "distance_to_goal": "NA", "progress": "NA", "move_number": "23", "optimal_length": "14", "subject": "A15FXHC1CVNW31:3TS1AR6UQRM7SOIBWPBN8N9589Y7FV"}
{"meta_move": "drag_end", "rt": "3461.0", "trial_number": "1", "pre_actions": "1", "move": "4@23", "instance": "prb20888", "distance_to_goal": "NA", "progress": "NA", "move_number": "24", "optimal_length": "14", "subject": "A15FXHC1CVNW31:3TS1AR6UQRM7SOIBWPBN8N9589Y7FV"}
{"meta_move": "drag_end", "rt": "1757.0", "trial_number": "1", "pre_actions": "1", "move": "2@9", "instance": "prb20888", "distance_to_goal": "NA", "progress": "NA", "move_number": "25", "optimal_length": "14", "subject": "A15FXHC1CVNW31:3TS1AR6UQRM7SOIBWPBN8N9589Y7FV"}
{"meta_move": "drag_end", "rt": "1104.0", "trial_number": "1", "pre_actions": "1", "move": "2@3", "instance": "prb20888", "distance_to_goal": "NA", "progress": "NA", "move_number": "26", "optimal_length": "14", "subject": "A15FXHC1CVNW31:3TS1AR6UQRM7SOIBWPBN8N9589Y7FV"}
{"meta_move": "drag_end", "rt": "693.0", "trial_number": "1", "pre_actions": "1", "move": "4@17", "instance": "prb20888", "distance_to_goal": "NA", "progress": "NA", "move_number": "27", "optimal_length": "14", "subject": "A15FXHC1CVNW31:3TS1AR6UQRM7SOIBWPBN8N9589Y7FV"}
{"meta_move": "drag_end", "rt": "1169.0", "trial_number": "1", "pre_actions": "1", "move": "2@9", "instance": "prb20888", "distance_to_goal": "NA", "progress": "NA", "move_number": "28", "optimal_length": "14", "subject": "A15FXHC1CVNW31:3TS1AR6UQRM7SOIBWPBN8N9589Y7FV"}
{"meta_move": "drag_end", "rt": "3252.0", "trial_number": "1", "pre_actions": "1", "move": "6@2", "instance": "prb20888", "distance_to_goal": "NA", "progress": "NA", "move_number": "29", "optimal_length": "14", "subject": "A15FXHC1CVNW31:3TS1AR6UQRM7SOIBWPBN8N9589Y7FV"}
{"meta_move": "drag_end", "rt": "933.0", "trial_number": "1", "pre_actions": "1", "move": "7@25", "instance": "prb20888", "distance_to_goal": "NA", "progress": "NA", "move_number": "30", "optimal_length": "14", "subject": "A15FXHC1CVNW31:3TS1AR6UQRM7SOIBWPBN8N9589Y7FV"}
{"meta_move": "drag_end", "rt": "1355.0", "trial_number": "1", "pre_actions": "1", "move": "2@21", "instance": "prb20888", "distance_to_goal": "NA", "progress": "NA", "move_number": "31", "optimal_length": "14", "subject": "A15FXHC1CVNW31:3TS1AR6UQRM7SOIBWPBN8N9589Y7FV"}
{"meta_move": "drag_end", "rt": "64548.0", "trial_number": "1", "pre_actions": "1", "move": "0@9", "instance": "prb20888", "distance_to_goal": "NA", "progress": "NA", "move_number": "32", "optimal_length": "14", "subject": "A15FXHC1CVNW31:3TS1AR6UQRM7SOIBWPBN8N9589Y7FV"}
{"meta_move": "drag_end", "rt": "661.0", "trial_number": "1", "pre_actions": "1", "move": "4@5", "instance": "prb20888", "distance_to_goal": "NA", "progress": "NA", "move_number": "33", "optimal_length": "14", "subject": "A15FXHC1CVNW31:3TS1AR6UQRM7SOIBWPBN8N9589Y7FV"}
{"meta_move": "drag_end", "rt": "945.0", "trial_number": "1", "pre_actions": "1", "move": "2@21", "instance": "prb20888", "distance_to_goal": "NA", "progress": "NA", "move_number": "34", "optimal_length": "14", "subject": "A15FXHC1CVNW31:3TS1AR6UQRM7SOIBWPBN8N9589Y7FV"}
{"meta_move": "drag_end", "rt": "1375.0", "trial_number": "1", "pre_actions": "1", "move": "6@8", "instance": "prb20888", "distance_to_goal": "NA", "progress": "NA", "move_number": "34", "optimal_length": "14", "subject": "A15FXHC1CVNW31:3TS1AR6UQRM7SOIBWPBN8N9589Y7FV"}
{"meta_move": "drag_end", "rt": "684.0", "trial_number": "1", "pre_actions": "1", "move": "5@3", "instance": "prb20888", "distance_to_goal": "NA", "progress": "NA", "move_number": "35", "optimal_length": "14", "subject": "A15FXHC1CVNW31:3TS1AR6UQRM7SOIBWPBN8N9589Y7FV"}
{"meta_move": "drag_end", "rt": "874.0", "trial_number": "1", "pre_actions": "1", "move": "6@2", "instance": "prb20888", "distance_to_goal": "NA", "progress": "NA", "move_number": "36", "optimal_length": "14", "subject": "A15FXHC1CVNW31:3TS1AR6UQRM7SOIBWPBN8N9589Y7FV"}
{"meta_move": "drag_end", "rt": "748.0", "trial_number": "1", "pre_actions": "1", "move": "1@19", "instance": "prb20888", "distance_to_goal": "NA", "progress": "NA", "move_number": "37", "optimal_length": "14", "subject": "A15FXHC1CVNW31:3TS1AR6UQRM7SOIBWPBN8N9589Y7FV"}
{"meta_move": "drag_end", "rt": "507.0", "trial_number": "1", "pre_actions": "1", "move": "2@15", "instance": "prb20888", "distance_to_goal": "NA", "progress": "NA", "move_number": "38", "optimal_length": "14", "subject": "A15FXHC1CVNW31:3TS1AR6UQRM7SOIBWPBN8N9589Y7FV"}
{"meta_move": "drag_end", "rt": "983.0", "trial_number": "1", "pre_actions": "1", "move": "3@18", "instance": "prb20888", "distance_to_goal": "NA", "progress": "NA", "move_number": "39", "optimal_length": "14", "subject": "A15FXHC1CVNW31:3TS1AR6UQRM7SOIBWPBN8N9589Y7FV"}
{"meta_move": "drag_end", "rt": "853.0", "trial_number": "1", "pre_actions": "1", "move": "2@21", "instance": "prb20888", "distance_to_goal": "NA", "progress": "NA", "move_number": "40", "optimal_length": "14", "subject": "A15FXHC1CVNW31:3TS1AR6UQRM7SOIBWPBN8N9589Y7FV"}
{"meta_move": "drag_end", "rt": "898.0", "trial_number": "1", "pre_actions": "1", "move": "4@23", "instance": "prb20888", "distance_to_goal": "NA", "progress": "NA", "move_number": "41", "optimal_length": "14", "subject": "A15FXHC1CVNW31:3TS1AR6UQRM7SOIBWPBN8N9589Y7FV"}
{"meta_move": "drag_end", "rt": "535.0", "trial_number": "1", "pre_actions": "1", "move": "0@10", "instance": "prb20888", "distance_to_goal": "NA", "progress": "NA", "move_number": "42", "optimal_length": "14", "subject": "A15FXHC1CVNW31:3TS1AR6UQRM7SOIBWPBN8N9589Y7FV"}
{"meta_move": "drag_end", "rt": "514.0", "trial_number": "1", "pre_actions": "1", "move": "5@4", "instance": "prb20888", "distance_to_goal": "NA", "progress": "NA", "move_number": "43", "optimal_length": "14", "subject": "A15FXHC1CVNW31:3TS1AR6UQRM7SOIBWPBN8N9589Y7FV"}
{"meta_move": "drag_end", "rt": "661.0", "trial_number": "1", "pre_actions": "1", "move": "2@3", "instance": "prb20888", "distance_to_goal": "NA", "progress": "NA", "move_number": "44", "optimal_length": "14", "subject": "A15FXHC1CVNW31:3TS1AR6UQRM7SOIBWPBN8N9589Y7FV"}
{"meta_move": "drag_end", "rt": "1088.0", "trial_number": "1", "pre_actions": "1", "move": "1@21", "instance": "prb20888", "distance_to_goal": "NA", "progress": "NA", "move_number": "45", "optimal_length": "14", "subject": "A15FXHC1CVNW31:3TS1AR6UQRM7SOIBWPBN8N9589Y7FV"}
{"meta_move": "drag_end", "rt": "601.0", "trial_number": "1", "pre_actions": "1", "move": "7@27", "instance": "prb20888", "distance_to_goal": "NA", "progress": "NA", "move_number": "46", "optimal_length": "14", "subject": "A15FXHC1CVNW31:3TS1AR6UQRM7SOIBWPBN8N9589Y7FV"}
{"meta_move": "drag_end", "rt": "1114.0", "trial_number": "1", "pre_actions": "1", "move": "6@20", "instance": "prb20888", "distance_to_goal": "NA", "progress": "NA", "move_number": "47", "optimal_length": "14", "subject": "A15FXHC1CVNW31:3TS1AR6UQRM7SOIBWPBN8N9589Y7FV"}
{"meta_move": "drag_end", "rt": "793.0", "trial_number": "1", "pre_actions": "1", "move": "r@13", "instance": "prb20888", "distance_to_goal": "NA", "progress": "NA", "move_number": "48", "optimal_length": "14", "subject": "A15FXHC1CVNW31:3TS1AR6UQRM7SOIBWPBN8N9589Y7FV"}
{"meta_move": "drag_end", "rt": "1772.0", "trial_number": "1", "pre_actions": "1", "move": "3@0", "instance": "prb20888", "distance_to_goal": "NA", "progress": "NA", "move_number": "49", "optimal_length": "14", "subject": "A15FXHC1CVNW31:3TS1AR6UQRM7SOIBWPBN8N9589Y7FV"}
{"meta_move": "drag_end", "rt": "620.0", "trial_number": "1", "pre_actions": "1", "move": "r@12", "instance": "prb20888", "distance_to_goal": "NA", "progress": "NA", "move_number": "50", "optimal_length": "14", "subject": "A15FXHC1CVNW31:3TS1AR6UQRM7SOIBWPBN8N9589Y7FV"}
{"meta_move": "drag_end", "rt": "835.0", "trial_number": "1", "pre_actions": "1", "move": "6@2", "instance": "prb20888", "distance_to_goal": "NA", "progress": "NA", "move_number": "51", "optimal_length": "14", "subject": "A15FXHC1CVNW31:3TS1AR6UQRM7SOIBWPBN8N9589Y7FV"}
{"meta_move": "drag_end", "rt": "1178.0", "trial_number": "1", "pre_actions": "1", "move": "1@18", "instance": "prb20888", "distance_to_goal": "NA", "progress": "NA", "move_number": "52", "optimal_length": "14", "subject": "A15FXHC1CVNW31:3TS1AR6UQRM7SOIBWPBN8N9589Y7FV"}
{"meta_move": "drag_end", "rt": "871.0", "trial_number": "1", "pre_actions": "1", "move": "7@24", "instance": "prb20888", "distance_to_goal": "NA", "progress": "NA", "move_number": "53", "optimal_length": "14", "subject": "A15FXHC1CVNW31:3TS1AR6UQRM7SOIBWPBN8N9589Y7FV"}
{"meta_move": "drag_end", "rt": "1171.0", "trial_number": "1", "pre_actions": "1", "move": "6@20", "instance": "prb20888", "distance_to_goal": "NA", "progress": "NA", "move_number": "54", "optimal_length": "14", "subject": "A15FXHC1CVNW31:3TS1AR6UQRM7SOIBWPBN8N9589Y7FV"}
{"meta_move": "drag_end", "rt": "528.0", "trial_number": "1", "pre_actions": "1", "move": "2@21", "instance": "prb20888", "distance_to_goal": "NA", "progress": "NA", "move_number": "55", "optimal_length": "14", "subject": "A15FXHC1CVNW31:3TS1AR6UQRM7SOIBWPBN8N9589Y7FV"}
{"meta_move": "win", "rt": "838.0", "trial_number": "1", "pre_actions": "1", "move": "r@12", "instance": "prb20888", "distance_to_goal": "1", "progress": "NA", "move_number": "56", "optimal_length": "14", "subject": "A15FXHC1CVNW31:3TS1AR6UQRM7SOIBWPBN8N9589Y7FV"}
{"meta_move": "drag_end", "rt": "210.0", "trial_number": "0", "pre_actions": "0", "move": "r@16", "instance": "prb20888", "distance_to_goal": "NA", "progress": "NA", "move_number": "56", "optimal_length": "14", "subject": "A15FXHC1CVNW31:3TS1AR6UQRM7SOIBWPBN8N9589Y7FV"}
{"meta_move": "drag_end", "rt": "12157.0", "trial_number": "1", "pre_actions": "1", "move": "6@20", "instance": "prb20888", "distance_to_goal": "NA", "progress": "NA", "move_number": "0", "optimal_length": "14", "subject": "A18QU0YQB6Q8DF:3VE8AYVF8N5BS2NU6U3TMN50JMNF8V"}
{"meta_move": "drag_end", "rt": "5818.0", "trial_number": "1", "pre_actions": "1", "move": "5@0", "instance": "prb20888", "distance_to_goal": "NA", "progress": "NA", "move_number": "1", "optimal_length": "14", "subject": "A18QU0YQB6Q8DF:3VE8AYVF8N5BS2NU6U3TMN50JMNF8V"}
{"meta_move": "drag_end", "rt": "3601.0", "trial_number": "1", "pre_actions": "1", "move": "6@2", "instance": "prb20888", "distance_to_goal": "NA", "progress": "NA", "move_number": "2", "optimal_length": "14", "subject": "A18QU0YQB6Q8DF:3VE8AYVF8N5BS2NU6U3TMN50JMNF8V"}
{"meta_move": "drag_end", "rt": "1058.0", "trial_number": "1", "pre_actions": "1", "move": "7@25", "instance": "prb20888", "distance_to_goal": "NA", "progress": "NA", "move_number": "3", "optimal_length": "14", "subject": "A18QU0YQB6Q8DF:3VE8AYVF8N5BS2NU6U3TMN50JMNF8V"}
{"meta_move": "drag_end", "rt": "950.0", "trial_number": "1", "pre_actions": "1", "move": "2@21", "instance": "prb20888", "distance_to_goal": "NA", "progress": "NA", "move_number": "4", "optimal_length": "14", "subject": "A18QU0YQB6Q8DF:3VE8AYVF8N5BS2NU6U3TMN50JMNF8V"}
{"meta_move": "drag_end", "rt": "3338.0", "trial_number": "1", "pre_actions": "1", "move": "0@9", "instance": "prb20888", "distance_to_goal": "NA", "progress": "NA", "move_number": "5", "optimal_length": "14", "subject": "A18QU0YQB6Q8DF:3VE8AYVF8N5BS2NU6U3TMN50JMNF8V"}
{"meta_move": "drag_end", "rt": "1198.0", "trial_number": "1", "pre_actions": "1", "move": "4@5", "instance": "prb20888", "distance_to_goal": "NA", "progress": "NA", "move_number": "6", "optimal_length": "14", "subject": "A18QU0YQB6Q8DF:3VE8AYVF8N5BS2NU6U3TMN50JMNF8V"}
{"meta_move": "drag_end", "rt": "1899.0", "trial_number": "1", "pre_actions": "1", "move": "1@19", "instance": "prb20888", "distance_to_goal": "NA", "progress": "NA", "move_number": "7", "optimal_length": "14", "subject": "A18QU0YQB6Q8DF:3VE8AYVF8N5BS2NU6U3TMN50JMNF8V"}
{"meta_move": "drag_end", "rt": "1104.0", "trial_number": "1", "pre_actions": "1", "move": "3@18", "instance": "prb20888", "distance_to_goal": "NA", "progress": "NA", "move_number": "8", "optimal_length": "14", "subject": "A18QU0YQB6Q8DF:3VE8AYVF8N5BS2NU6U3TMN50JMNF8V"}
{"meta_move": "drag_end", "rt": "4842.0", "trial_number": "2", "pre_actions": "1", "move": "1@19", "instance": "prb20888", "distance_to_goal": "NA", "progress": "NA", "move_number": "0", "optimal_length": "14", "subject": "A18QU0YQB6Q8DF:3VE8AYVF8N5BS2NU6U3TMN50JMNF8V"}
{"meta_move": "drag_end", "rt": "1042.0", "trial_number": "2", "pre_actions": "1", "move": "3@18", "instance": "prb20888", "distance_to_goal": "NA", "progress": "NA", "move_number": "1", "optimal_length": "14", "subject": "A18QU0YQB6Q8DF:3VE8AYVF8N5BS2NU6U3TMN50JMNF8V"}
{"meta_move": "drag_end", "rt": "1727.0", "trial_number": "2", "pre_actions": "1", "move": "7@25", "instance": "prb20888", "distance_to_goal": "NA", "progress": "NA", "move_number": "2", "optimal_length": "14", "subject": "A18QU0YQB6Q8DF:3VE8AYVF8N5BS2NU6U3TMN50JMNF8V"}
{"meta_move": "drag_end", "rt": "2591.0", "trial_number": "2", "pre_actions": "1", "move": "2@21", "instance": "prb20888", "distance_to_goal": "NA", "progress": "NA", "move_number": "3", "optimal_length": "14", "subject": "A18QU0YQB6Q8DF:3VE8AYVF8N5BS2NU6U3TMN50JMNF8V"}
{"meta_move": "drag_end", "rt": "1337.0", "trial_number": "2", "pre_actions": "1", "move": "5@4", "instance": "prb20888", "distance_to_goal": "NA", "progress": "NA", "move_number": "4", "optimal_length": "14", "subject": "A18QU0YQB6Q8DF:3VE8AYVF8N5BS2NU6U3TMN50JMNF8V"}
{"meta_move": "drag_end", "rt": "1534.0", "trial_number": "2", "pre_actions": "1", "move": "2@3", "instance": "prb20888", "distance_to_goal": "NA", "progress": "NA", "move_number": "5", "optimal_length": "14", "subject": "A18QU0YQB6Q8DF:3VE8AYVF8N5BS2NU6U3TMN50JMNF8V"}
{"meta_move": "drag_end", "rt": "1417.0", "trial_number": "2", "pre_actions": "1", "move": "1@21", "instance": "prb20888", "distance_to_goal": "NA", "progress": "NA", "move_number": "6", "optimal_length": "14", "subject": "A18QU0YQB6Q8DF:3VE8AYVF8N5BS2NU6U3TMN50JMNF8V"}
{"meta_move": "drag_end", "rt": "1150.0", "trial_number": "2", "pre_actions": "1", "move": "7@27", "instance": "prb20888", "distance_to_goal": "NA", "progress": "NA", "move_number": "7", "optimal_length": "14", "subject": "A18QU0YQB6Q8DF:3VE8AYVF8N5BS2NU6U3TMN50JMNF8V"}
{"meta_move": "drag_end", "rt": "4114.0", "trial_number": "2", "pre_actions": "1", "move": "6@20", "instance": "prb20888", "distance_to_goal": "NA", "progress": "NA", "move_number": "8", "optimal_length": "14", "subject": "A18QU0YQB6Q8DF:3VE8AYVF8N5BS2NU6U3TMN50JMNF8V"}
{"meta_move": "drag_end", "rt": "1136.0", "trial_number": "2", "pre_actions": "1", "move": "r@13", "instance": "prb20888", "distance_to_goal": "NA", "progress": "NA", "move_number": "9", "optimal_length": "14", "subject": "A18QU0YQB6Q8DF:3VE8AYVF8N5BS2NU6U3TMN50JMNF8V"}
{"meta_move": "drag_end", "rt": "1534.0", "trial_number": "2", "pre_actions": "1", "move": "3@0", "instance": "prb20888", "distance_to_goal": "NA", "progress": "NA", "move_number": "10", "optimal_length": "14", "subject": "A18QU0YQB6Q8DF:3VE8AYVF8N5BS2NU6U3TMN50JMNF8V"}
{"meta_move": "drag_end", "rt": "1267.0", "trial_number": "2", "pre_actions": "1", "move": "r@12", "instance": "prb20888", "distance_to_goal": "NA", "progress": "NA", "move_number": "11", "optimal_length": "14", "subject": "A18QU0YQB6Q8DF:3VE8AYVF8N5BS2NU6U3TMN50JMNF8V"}
{"meta_move": "drag_end", "rt": "1137.0", "trial_number": "2", "pre_actions": "1", "move": "6@2", "instance": "prb20888", "distance_to_goal": "NA", "progress": "NA", "move_number": "12", "optimal_length": "14", "subject": "A18QU0YQB6Q8DF:3VE8AYVF8N5BS2NU6U3TMN50JMNF8V"}
{"meta_move": "drag_end", "rt": "1321.0", "trial_number": "2", "pre_actions": "1", "move": "1@18", "instance": "prb20888", "distance_to_goal": "NA", "progress": "NA", "move_number": "13", "optimal_length": "14", "subject": "A18QU0YQB6Q8DF:3VE8AYVF8N5BS2NU6U3TMN50JMNF8V"}
{"meta_move": "drag_end", "rt": "1462.0", "trial_number": "2", "pre_actions": "1", "move": "7@24", "instance": "prb20888", "distance_to_goal": "NA", "progress": "NA", "move_number": "14", "optimal_length": "14", "subject": "A18QU0YQB6Q8DF:3VE8AYVF8N5BS2NU6U3TMN50JMNF8V"}
{"meta_move": "drag_end", "rt": "3315.0", "trial_number": "2", "pre_actions": "1", "move": "2@21", "instance": "prb20888", "distance_to_goal": "NA", "progress": "NA", "move_number": "15", "optimal_length": "14", "subject": "A18QU0YQB6Q8DF:3VE8AYVF8N5BS2NU6U3TMN50JMNF8V"}
{"meta_move": "drag_end", "rt": "1261.0", "trial_number": "2", "pre_actions": "1", "move": "6@20", "instance": "prb20888", "distance_to_goal": "NA", "progress": "NA", "move_number": "16", "optimal_length": "14", "subject": "A18QU0YQB6Q8DF:3VE8AYVF8N5BS2NU6U3TMN50JMNF8V"}
{"meta_move": "win", "rt": "1034.0", "trial_number": "2", "pre_actions": "1", "move": "r@12", "instance": "prb20888", "distance_to_goal": "1", "progress": "NA", "move_number": "17", "optimal_length": "14", "subject": "A18QU0YQB6Q8DF:3VE8AYVF8N5BS2NU6U3TMN50JMNF8V"}
{"meta_move": "drag_end", "rt": "335.0", "trial_number": "0", "pre_actions": "0", "move": "r@16", "instance": "prb20888", "distance_to_goal": "NA", "progress": "NA", "move_number": "17", "optimal_length": "14", "subject": "A18QU0YQB6Q8DF:3VE8AYVF8N5BS2NU6U3TMN50JMNF8V"}
{"meta_move": "drag_end", "rt": "1806.0", "trial_number": "1", "pre_actions": "1", "move": "6@2", "instance": "prb20888", "distance_to_goal": "NA", "progress": "NA", "move_number": "0", "optimal_length": "14", "subject": "A191V7PT3DQKDP:3PMBY0YE28B43VMUKKJ6EDF85RV9C8"}
{"meta_move": "drag_end", "rt": "1576.0", "trial_number": "1", "pre_actions": "1", "move": "7@27", "instance": "prb20888", "distance_to_goal": "NA", "progress": "NA", "move_number": "0", "optimal_length": "14", "subject": "A191V7PT3DQKDP:3PMBY0YE28B43VMUKKJ6EDF85RV9C8"}
{"meta_move": "drag_end", "rt": "793.0", "trial_number": "1", "pre_actions": "1", "move": "6@20", "instance": "prb20888", "distance_to_goal": "NA", "progress": "NA", "move_number": "0", "optimal_length": "14", "subject": "A191V7PT3DQKDP:3PMBY0YE28B43VMUKKJ6EDF85RV9C8"}
{"meta_move": "drag_end", "rt": "616.0", "trial_number": "1", "pre_actions": "1", "move": "r@13", "instance": "prb20888", "distance_to_goal": "NA", "progress": "NA", "move_number": "1", "optimal_length": "14", "subject": "A191V7PT3DQKDP:3PMBY0YE28B43VMUKKJ6EDF85RV9C8"}
{"meta_move": "drag_end", "rt": "807.0", "trial_number": "1", "pre_actions": "1", "move": "r@12", "instance": "prb20888", "distance_to_goal": "NA", "progress": "NA", "move_number": "2", "optimal_length": "14", "subject": "A191V7PT3DQKDP:3PMBY0YE28B43VMUKKJ6EDF85RV9C8"}
{"meta_move": "drag_end", "rt": "809.0", "trial_number": "1", "pre_actions": "1", "move": "5@0", "instance": "prb20888", "distance_to_goal": "NA", "progress": "NA", "move_number": "3", "optimal_length": "14", "subject": "A191V7PT3DQKDP:3PMBY0YE28B43VMUKKJ6EDF85RV9C8"}
{"meta_move": "drag_end", "rt": "807.0", "trial_number": "1", "pre_actions": "1", "move": "2@3", "instance": "prb20888", "distance_to_goal": "NA", "progress": "NA", "move_number": "4", "optimal_length": "14", "subject": "A191V7PT3DQKDP:3PMBY0YE28B43VMUKKJ6EDF85RV9C8"}
{"meta_move": "drag_end", "rt": "2968.0", "trial_number": "1", "pre_actions": "1", "move": "2@3", "instance": "prb20888", "distance_to_goal": "NA", "progress": "NA", "move_number": "5", "optimal_length": "14", "subject": "A191V7PT3DQKDP:3PMBY0YE28B43VMUKKJ6EDF85RV9C8"}
{"meta_move": "drag_end", "rt": "1744.0", "trial_number": "1", "pre_actions": "1", "move": "r@12", "instance": "prb20888", "distance_to_goal": "NA", "progress": "NA", "move_number": "5", "optimal_length": "14", "subject": "A191V7PT3DQKDP:3PMBY0YE28B43VMUKKJ6EDF85RV9C8"}
{"meta_move": "drag_end", "rt": "679.0", "trial_number": "1", "pre_actions": "1", "move": "6@2", "instance": "prb20888", "distance_to_goal": "NA", "progress": "NA", "move_number": "5", "optimal_length": "14", "subject": "A191V7PT3DQKDP:3PMBY0YE28B43VMUKKJ6EDF85RV9C8"}
{"meta_move": "drag_end", "rt": "1274.0", "trial_number": "1", "pre_actions": "1", "move": "7@25", "instance": "prb20888", "distance_to_goal": "NA", "progress": "NA", "move_number": "6", "optimal_length": "14", "subject": "A191V7PT3DQKDP:3PMBY0YE28B43VMUKKJ6EDF85RV9C8"}
{"meta_move": "drag_end", "rt": "967.0", "trial_number": "1", "pre_actions": "1", "move": "2@21", "instance": "prb20888", "distance_to_goal": "NA", "progress": "NA", "move_number": "7", "optimal_length": "14", "subject": "A191V7PT3DQKDP:3PMBY0YE28B43VMUKKJ6EDF85RV9C8"}
{"meta_move": "drag_end", "rt": "975.0", "trial_number": "1", "pre_actions": "1", "move": "0@9", "instance": "prb20888", "distance_to_goal": "NA", "progress": "NA", "move_number": "8", "optimal_length": "14", "subject": "A191V7PT3DQKDP:3PMBY0YE28B43VMUKKJ6EDF85RV9C8"}
{"meta_move": "drag_end", "rt": "1913.0", "trial_number": "1", "pre_actions": "1", "move": "4@23", "instance": "prb20888", "distance_to_goal": "NA", "progress": "NA", "move_number": "9", "optimal_length": "14", "subject": "A191V7PT3DQKDP:3PMBY0YE28B43VMUKKJ6EDF85RV9C8"}
{"meta_move": "drag_end", "rt": "557.0", "trial_number": "1", "pre_actions": "1", "move": "0@10", "instance": "prb20888", "distance_to_goal": "NA", "progress": "NA", "move_number": "9", "optimal_length": "14", "subject": "A191V7PT3DQKDP:3PMBY0YE28B43VMUKKJ6EDF85RV9C8"}
{"meta_move": "drag_end", "rt": "1081.0", "trial_number": "1", "pre_actions": "1", "move": "6@8", "instance": "prb20888", "distance_to_goal": "NA", "progress": "NA", "move_number": "10", "optimal_length": "14", "subject": "A191V7PT3DQKDP:3PMBY0YE28B43VMUKKJ6EDF85RV9C8"}
{"meta_move": "drag_end", "rt": "775.0", "trial_number": "1", "pre_actions": "1", "move": "5@4", "instance": "prb20888", "distance_to_goal": "NA", "progress": "NA", "move_number": "11", "optimal_length": "14", "subject": "A191V7PT3DQKDP:3PMBY0YE28B43VMUKKJ6EDF85RV9C8"}
{"meta_move": "drag_end", "rt": "800.0", "trial_number": "1", "pre_actions": "1", "move": "6@2", "instance": "prb20888", "distance_to_goal": "NA", "progress": "NA", "move_number": "12", "optimal_length": "14", "subject": "A191V7PT3DQKDP:3PMBY0YE28B43VMUKKJ6EDF85RV9C8"}
{"meta_move": "drag_end", "rt": "824.0", "trial_number": "1", "pre_actions": "1", "move": "2@3", "instance": "prb20888", "distance_to_goal": "NA", "progress": "NA", "move_number": "13", "optimal_length": "14", "subject": "A191V7PT3DQKDP:3PMBY0YE28B43VMUKKJ6EDF85RV9C8"}
{"meta_move": "drag_end", "rt": "967.0", "trial_number": "1", "pre_actions": "1", "move": "1@21", "instance": "prb20888", "distance_to_goal": "NA", "progress": "NA", "move_number": "14", "optimal_length": "14", "subject": "A191V7PT3DQKDP:3PMBY0YE28B43VMUKKJ6EDF85RV9C8"}
{"meta_move": "drag_end", "rt": "1594.0", "trial_number": "1", "pre_actions": "1", "move": "3@18", "instance": "prb20888", "distance_to_goal": "NA", "progress": "NA", "move_number": "15", "optimal_length": "14", "subject": "A191V7PT3DQKDP:3PMBY0YE28B43VMUKKJ6EDF85RV9C8"}
{"meta_move": "drag_end", "rt": "799.0", "trial_number": "1", "pre_actions": "1", "move": "7@27", "instance": "prb20888", "distance_to_goal": "NA", "progress": "NA", "move_number": "16", "optimal_length": "14", "subject": "A191V7PT3DQKDP:3PMBY0YE28B43VMUKKJ6EDF85RV9C8"}
{"meta_move": "drag_end", "rt": "705.0", "trial_number": "1", "pre_actions": "1", "move": "6@20", "instance": "prb20888", "distance_to_goal": "NA", "progress": "NA", "move_number": "17", "optimal_length": "14", "subject": "A191V7PT3DQKDP:3PMBY0YE28B43VMUKKJ6EDF85RV9C8"}
{"meta_move": "drag_end", "rt": "510.0", "trial_number": "1", "pre_actions": "1", "move": "r@13", "instance": "prb20888", "distance_to_goal": "NA", "progress": "NA", "move_number": "18", "optimal_length": "14", "subject": "A191V7PT3DQKDP:3PMBY0YE28B43VMUKKJ6EDF85RV9C8"}
{"meta_move": "drag_end", "rt": "720.0", "trial_number": "1", "pre_actions": "1", "move": "3@0", "instance": "prb20888", "distance_to_goal": "NA", "progress": "NA", "move_number": "19", "optimal_length": "14", "subject": "A191V7PT3DQKDP:3PMBY0YE28B43VMUKKJ6EDF85RV9C8"}
{"meta_move": "drag_end", "rt": "576.0", "trial_number": "1", "pre_actions": "1", "move": "r@12", "instance": "prb20888", "distance_to_goal": "NA", "progress": "NA", "move_number": "20", "optimal_length": "14", "subject": "A191V7PT3DQKDP:3PMBY0YE28B43VMUKKJ6EDF85RV9C8"}
{"meta_move": "drag_end", "rt": "1544.0", "trial_number": "1", "pre_actions": "1", "move": "6@2", "instance": "prb20888", "distance_to_goal": "NA", "progress": "NA", "move_number": "21", "optimal_length": "14", "subject": "A191V7PT3DQKDP:3PMBY0YE28B43VMUKKJ6EDF85RV9C8"}
{"meta_move": "drag_end", "rt": "568.0", "trial_number": "1", "pre_actions": "1", "move": "1@18", "instance": "prb20888", "distance_to_goal": "NA", "progress": "NA", "move_number": "22", "optimal_length": "14", "subject": "A191V7PT3DQKDP:3PMBY0YE28B43VMUKKJ6EDF85RV9C8"}
{"meta_move": "drag_end", "rt": "577.0", "trial_number": "1", "pre_actions": "1", "move": "7@24", "instance": "prb20888", "distance_to_goal": "NA", "progress": "NA", "move_number": "23", "optimal_length": "14", "subject": "A191V7PT3DQKDP:3PMBY0YE28B43VMUKKJ6EDF85RV9C8"}
{"meta_move": "drag_end", "rt": "640.0", "trial_number": "1", "pre_actions": "1", "move": "6@20", "instance": "prb20888", "distance_to_goal": "NA", "progress": "NA", "move_number": "24", "optimal_length": "14", "subject": "A191V7PT3DQKDP:3PMBY0YE28B43VMUKKJ6EDF85RV9C8"}
{"meta_move": "drag_end", "rt": "632.0", "trial_number": "1", "pre_actions": "1", "move": "2@21", "instance": "prb20888", "distance_to_goal": "NA", "progress": "NA", "move_number": "25", "optimal_length": "14", "subject": "A191V7PT3DQKDP:3PMBY0YE28B43VMUKKJ6EDF85RV9C8"}
{"meta_move": "win", "rt": "593.0", "trial_number": "1", "pre_actions": "1", "move": "r@12", "instance": "prb20888", "distance_to_goal": "1", "progress": "NA", "move_number": "26", "optimal_length": "14", "subject": "A191V7PT3DQKDP:3PMBY0YE28B43VMUKKJ6EDF85RV9C8"}
{"meta_move": "drag_end", "rt": "206.0", "trial_number": "0", "pre_actions": "0", "move": "r@16", "instance": "prb20888", "distance_to_goal": "NA", "progress": "NA", "move_number": "26", "optimal_length": "14", "subject": "A191V7PT3DQKDP:3PMBY0YE28B43VMUKKJ6EDF85RV9C8"}
{"meta_move": "drag_end", "rt": "4108.0", "trial_number": "1", "pre_actions": "1", "move": "6@20", "instance": "prb20888", "distance_to_goal": "NA", "progress": "NA", "move_number": "0", "optimal_length": "14", "subject": "A1F4N58CAX8IMK:3TS1AR6UQRM7SOIBWPBN8N9589Y7FV"}
{"meta_move": "drag_end", "rt": "1631.0", "trial_number": "1", "pre_actions": "1", "move": "5@0", "instance": "prb20888", "distance_to_goal": "NA", "progress": "NA", "move_number": "1", "optimal_length": "14", "subject": "A1F4N58CAX8IMK:3TS1AR6UQRM7SOIBWPBN8N9589Y7FV"}
{"meta_move": "drag_end", "rt": "1528.0", "trial_number": "1", "pre_actions": "1", "move": "2@3", "instance": "prb20888", "distance_to_goal": "NA", "progress": "NA", "move_number": "2", "optimal_length": "14", "subject": "A1F4N58CAX8IMK:3TS1AR6UQRM7SOIBWPBN8N9589Y7FV"}
{"meta_move": "drag_end", "rt": "1216.0", "trial_number": "1", "pre_actions": "1", "move": "4@17", "instance": "prb20888", "distance_to_goal": "NA", "progress": "NA", "move_number": "3", "optimal_length": "14", "subject": "A1F4N58CAX8IMK:3TS1AR6UQRM7SOIBWPBN8N9589Y7FV"}
{"meta_move": "drag_end", "rt": "1912.0", "trial_number": "1", "pre_actions": "1", "move": "6@2", "instance": "prb20888", "distance_to_goal": "NA", "progress": "NA", "move_number": "4", "optimal_length": "14", "subject": "A1F4N58CAX8IMK:3TS1AR6UQRM7SOIBWPBN8N9589Y7FV"}
{"meta_move": "drag_end", "rt": "1361.0", "trial_number": "1", "pre_actions": "1", "move": "7@25", "instance": "prb20888", "distance_to_goal": "NA", "progress": "NA", "move_number": "5", "optimal_length": "14", "subject": "A1F4N58CAX8IMK:3TS1AR6UQRM7SOIBWPBN8N9589Y7FV"}
{"meta_move": "drag_end", "rt": "879.0", "trial_number": "1", "pre_actions": "1", "move": "4@23", "instance": "prb20888", "distance_to_goal": "NA", "progress": "NA", "move_number": "6", "optimal_length": "14", "subject": "A1F4N58CAX8IMK:3TS1AR6UQRM7SOIBWPBN8N9589Y7FV"}
{"meta_move": "drag_end", "rt": "960.0", "trial_number": "1", "pre_actions": "1", "move": "2@21", "instance": "prb20888", "distance_to_goal": "NA", "progress": "NA", "move_number": "7", "optimal_length": "14", "subject": "A1F4N58CAX8IMK:3TS1AR6UQRM7SOIBWPBN8N9589Y7FV"}
{"meta_move": "drag_end", "rt": "1568.0", "trial_number": "1", "pre_actions": "1", "move": "1@19", "instance": "prb20888", "distance_to_goal": "NA", "progress": "NA", "move_number": "8", "optimal_length": "14", "subject": "A1F4N58CAX8IMK:3TS1AR6UQRM7SOIBWPBN8N9589Y7FV"}
{"meta_move": "drag_end", "rt": "864.0", "trial_number": "1", "pre_actions": "1", "move": "3@18", "instance": "prb20888", "distance_to_goal": "NA", "progress": "NA", "move_number": "9", "optimal_length": "14", "subject": "A1F4N58CAX8IMK:3TS1AR6UQRM7SOIBWPBN8N9589Y7FV"}
{"meta_move": "drag_end", "rt": "968.0", "trial_number": "1", "pre_actions": "1", "move": "2@3", "instance": "prb20888", "distance_to_goal": "NA", "progress": "NA", "move_number": "10", "optimal_length": "14", "subject": "A1F4N58CAX8IMK:3TS1AR6UQRM7SOIBWPBN8N9589Y7FV"}
{"meta_move": "drag_end", "rt": "1689.0", "trial_number": "1", "pre_actions": "1", "move": "7@27", "instance": "prb20888", "distance_to_goal": "NA", "progress": "NA", "move_number": "11", "optimal_length": "14", "subject": "A1F4N58CAX8IMK:3TS1AR6UQRM7SOIBWPBN8N9589Y7FV"}
{"meta_move": "drag_end", "rt": "1655.0", "trial_number": "1", "pre_actions": "1", "move": "7@26", "instance": "prb20888", "distance_to_goal": "NA", "progress": "NA", "move_number": "12", "optimal_length": "14", "subject": "A1F4N58CAX8IMK:3TS1AR6UQRM7SOIBWPBN8N9589Y7FV"}
{"meta_move": "drag_end", "rt": "1080.0", "trial_number": "1", "pre_actions": "1", "move": "7@27", "instance": "prb20888", "distance_to_goal": "NA", "progress": "NA", "move_number": "13", "optimal_length": "14", "subject": "A1F4N58CAX8IMK:3TS1AR6UQRM7SOIBWPBN8N9589Y7FV"}
{"meta_move": "drag_end", "rt": "1208.0", "trial_number": "1", "pre_actions": "1", "move": "1@19", "instance": "prb20888", "distance_to_goal": "NA", "progress": "NA", "move_number": "14", "optimal_length": "14", "subject": "A1F4N58CAX8IMK:3TS1AR6UQRM7SOIBWPBN8N9589Y7FV"}
{"meta_move": "drag_end", "rt": "712.0", "trial_number": "1", "pre_actions": "1", "move": "7@25", "instance": "prb20888", "distance_to_goal": "NA", "progress": "NA", "move_number": "14", "optimal_length": "14", "subject": "A1F4N58CAX8IMK:3TS1AR6UQRM7SOIBWPBN8N9589Y7FV"}
{"meta_move": "drag_end", "rt": "1296.0", "trial_number": "1", "pre_actions": "1", "move": "4@23", "instance": "prb20888", "distance_to_goal": "NA", "progress": "NA", "move_number": "15", "optimal_length": "14", "subject": "A1F4N58CAX8IMK:3TS1AR6UQRM7SOIBWPBN8N9589Y7FV"}
{"meta_move": "drag_end", "rt": "680.0", "trial_number": "1", "pre_actions": "1", "move": "2@21", "instance": "prb20888", "distance_to_goal": "NA", "progress": "NA", "move_number": "15", "optimal_length": "14", "subject": "A1F4N58CAX8IMK:3TS1AR6UQRM7SOIBWPBN8N9589Y7FV"}
{"meta_move": "drag_end", "rt": "1848.0", "trial_number": "1", "pre_actions": "1", "move": "3@18", "instance": "prb20888", "distance_to_goal": "NA", "progress": "NA", "move_number": "16", "optimal_length": "14", "subject": "A1F4N58CAX8IMK:3TS1AR6UQRM7SOIBWPBN8N9589Y7FV"}
{"meta_move": "drag_end", "rt": "816.0", "trial_number": "1", "pre_actions": "1", "move": "3@24", "instance": "prb20888", "distance_to_goal": "NA", "progress": "NA", "move_number": "16", "optimal_length": "14", "subject": "A1F4N58CAX8IMK:3TS1AR6UQRM7SOIBWPBN8N9589Y7FV"}
{"meta_move": "drag_end", "rt": "712.0", "trial_number": "1", "pre_actions": "1", "move": "1@18", "instance": "prb20888", "distance_to_goal": "NA", "progress": "NA", "move_number": "17", "optimal_length": "14", "subject": "A1F4N58CAX8IMK:3TS1AR6UQRM7SOIBWPBN8N9589Y7FV"}
{"meta_move": "drag_end", "rt": "952.0", "trial_number": "1", "pre_actions": "1", "move": "6@8", "instance": "prb20888", "distance_to_goal": "NA", "progress": "NA", "move_number": "18", "optimal_length": "14", "subject": "A1F4N58CAX8IMK:3TS1AR6UQRM7SOIBWPBN8N9589Y7FV"}
{"meta_move": "drag_end", "rt": "760.0", "trial_number": "1", "pre_actions": "1", "move": "2@3", "instance": "prb20888", "distance_to_goal": "NA", "progress": "NA", "move_number": "19", "optimal_length": "14", "subject": "A1F4N58CAX8IMK:3TS1AR6UQRM7SOIBWPBN8N9589Y7FV"}
{"meta_move": "drag_end", "rt": "640.0", "trial_number": "1", "pre_actions": "1", "move": "7@27", "instance": "prb20888", "distance_to_goal": "NA", "progress": "NA", "move_number": "20", "optimal_length": "14", "subject": "A1F4N58CAX8IMK:3TS1AR6UQRM7SOIBWPBN8N9589Y7FV"}
{"meta_move": "drag_end", "rt": "728.0", "trial_number": "1", "pre_actions": "1", "move": "6@20", "instance": "prb20888", "distance_to_goal": "NA", "progress": "NA", "move_number": "21", "optimal_length": "14", "subject": "A1F4N58CAX8IMK:3TS1AR6UQRM7SOIBWPBN8N9589Y7FV"}
{"meta_move": "drag_end", "rt": "928.0", "trial_number": "1", "pre_actions": "1", "move": "2@3", "instance": "prb20888", "distance_to_goal": "NA", "progress": "NA", "move_number": "22", "optimal_length": "14", "subject": "A1F4N58CAX8IMK:3TS1AR6UQRM7SOIBWPBN8N9589Y7FV"}
{"meta_move": "drag_end", "rt": "1561.0", "trial_number": "1", "pre_actions": "1", "move": "2@9", "instance": "prb20888", "distance_to_goal": "NA", "progress": "NA", "move_number": "22", "optimal_length": "14", "subject": "A1F4N58CAX8IMK:3TS1AR6UQRM7SOIBWPBN8N9589Y7FV"}
{"meta_move": "drag_end", "rt": "1367.0", "trial_number": "1", "pre_actions": "1", "move": "2@3", "instance": "prb20888", "distance_to_goal": "NA", "progress": "NA", "move_number": "23", "optimal_length": "14", "subject": "A1F4N58CAX8IMK:3TS1AR6UQRM7SOIBWPBN8N9589Y7FV"}
{"meta_move": "drag_end", "rt": "2672.0", "trial_number": "1", "pre_actions": "1", "move": "2@9", "instance": "prb20888", "distance_to_goal": "NA", "progress": "NA", "move_number": "24", "optimal_length": "14", "subject": "A1F4N58CAX8IMK:3TS1AR6UQRM7SOIBWPBN8N9589Y7FV"}
{"meta_move": "drag_end", "rt": "1408.0", "trial_number": "1", "pre_actions": "1", "move": "4@17", "instance": "prb20888", "distance_to_goal": "NA", "progress": "NA", "move_number": "25", "optimal_length": "14", "subject": "A1F4N58CAX8IMK:3TS1AR6UQRM7SOIBWPBN8N9589Y7FV"}
{"meta_move": "drag_end", "rt": "752.0", "trial_number": "1", "pre_actions": "1", "move": "7@27", "instance": "prb20888", "distance_to_goal": "NA", "progress": "NA", "move_number": "26", "optimal_length": "14", "subject": "A1F4N58CAX8IMK:3TS1AR6UQRM7SOIBWPBN8N9589Y7FV"}
{"meta_move": "drag_end", "rt": "641.0", "trial_number": "1", "pre_actions": "1", "move": "6@2", "instance": "prb20888", "distance_to_goal": "NA", "progress": "NA", "move_number": "26", "optimal_length": "14", "subject": "A1F4N58CAX8IMK:3TS1AR6UQRM7SOIBWPBN8N9589Y7FV"}
{"meta_move": "drag_end", "rt": "1967.0", "trial_number": "1", "pre_actions": "1", "move": "2@3", "instance": "prb20888", "distance_to_goal": "NA", "progress": "NA", "move_number": "27", "optimal_length": "14", "subject": "A1F4N58CAX8IMK:3TS1AR6UQRM7SOIBWPBN8N9589Y7FV"}
{"meta_move": "drag_end", "rt": "2168.0", "trial_number": "1", "pre_actions": "1", "move": "7@25", "instance": "prb20888", "distance_to_goal": "NA", "progress": "NA", "move_number": "28", "optimal_length": "14", "subject": "A1F4N58CAX8IMK:3TS1AR6UQRM7SOIBWPBN8N9589Y7FV"}
{"meta_move": "drag_end", "rt": "2048.0", "trial_number": "1", "pre_actions": "1", "move": "4@23", "instance": "prb20888", "distance_to_goal": "NA", "progress": "NA", "move_number": "29", "optimal_length": "14", "subject": "A1F4N58CAX8IMK:3TS1AR6UQRM7SOIBWPBN8N9589Y7FV"}
{"meta_move": "drag_end", "rt": "1208.0", "trial_number": "1", "pre_actions": "1", "move": "2@21", "instance": "prb20888", "distance_to_goal": "NA", "progress": "NA", "move_number": "30", "optimal_length": "14", "subject": "A1F4N58CAX8IMK:3TS1AR6UQRM7SOIBWPBN8N9589Y7FV"}
{"meta_move": "drag_end", "rt": "1544.0", "trial_number": "1", "pre_actions": "1", "move": "6@8", "instance": "prb20888", "distance_to_goal": "NA", "progress": "NA", "move_number": "31", "optimal_length": "14", "subject": "A1F4N58CAX8IMK:3TS1AR6UQRM7SOIBWPBN8N9589Y7FV"}
{"meta_move": "drag_end", "rt": "648.0", "trial_number": "1", "pre_actions": "1", "move": "2@3", "instance": "prb20888", "distance_to_goal": "NA", "progress": "NA", "move_number": "32", "optimal_length": "14", "subject": "A1F4N58CAX8IMK:3TS1AR6UQRM7SOIBWPBN8N9589Y7FV"}
{"meta_move": "drag_end", "rt": "768.0", "trial_number": "1", "pre_actions": "1", "move": "7@27", "instance": "prb20888", "distance_to_goal": "NA", "progress": "NA", "move_number": "33", "optimal_length": "14", "subject": "A1F4N58CAX8IMK:3TS1AR6UQRM7SOIBWPBN8N9589Y7FV"}
{"meta_move": "drag_end", "rt": "737.0", "trial_number": "1", "pre_actions": "1", "move": "6@20", "instance": "prb20888", "distance_to_goal": "NA", "progress": "NA", "move_number": "34", "optimal_length": "14", "subject": "A1F4N58CAX8IMK:3TS1AR6UQRM7SOIBWPBN8N9589Y7FV"}
{"meta_move": "drag_end", "rt": "702.0", "trial_number": "1", "pre_actions": "1", "move": "r@13", "instance": "prb20888", "distance_to_goal": "NA", "progress": "NA", "move_number": "35", "optimal_length": "14", "subject": "A1F4N58CAX8IMK:3TS1AR6UQRM7SOIBWPBN8N9589Y7FV"}
{"meta_move": "drag_end", "rt": "760.0", "trial_number": "1", "pre_actions": "1", "move": "2@9", "instance": "prb20888", "distance_to_goal": "NA", "progress": "NA", "move_number": "36", "optimal_length": "14", "subject": "A1F4N58CAX8IMK:3TS1AR6UQRM7SOIBWPBN8N9589Y7FV"}
{"meta_move": "drag_end", "rt": "1937.0", "trial_number": "1", "pre_actions": "1", "move": "3@24", "instance": "prb20888", "distance_to_goal": "NA", "progress": "NA", "move_number": "37", "optimal_length": "14", "subject": "A1F4N58CAX8IMK:3TS1AR6UQRM7SOIBWPBN8N9589Y7FV"}
{"meta_move": "drag_end", "rt": "663.0", "trial_number": "1", "pre_actions": "1", "move": "4@17", "instance": "prb20888", "distance_to_goal": "NA", "progress": "NA", "move_number": "37", "optimal_length": "14", "subject": "A1F4N58CAX8IMK:3TS1AR6UQRM7SOIBWPBN8N9589Y7FV"}
{"meta_move": "drag_end", "rt": "720.0", "trial_number": "1", "pre_actions": "1", "move": "7@27", "instance": "prb20888", "distance_to_goal": "NA", "progress": "NA", "move_number": "38", "optimal_length": "14", "subject": "A1F4N58CAX8IMK:3TS1AR6UQRM7SOIBWPBN8N9589Y7FV"}
{"meta_move": "drag_end", "rt": "928.0", "trial_number": "1", "pre_actions": "1", "move": "6@20", "instance": "prb20888", "distance_to_goal": "NA", "progress": "NA", "move_number": "38", "optimal_length": "14", "subject": "A1F4N58CAX8IMK:3TS1AR6UQRM7SOIBWPBN8N9589Y7FV"}
{"meta_move": "drag_end", "rt": "1896.0", "trial_number": "1", "pre_actions": "1", "move": "2@3", "instance": "prb20888", "distance_to_goal": "NA", "progress": "NA", "move_number": "38", "optimal_length": "14", "subject": "A1F4N58CAX8IMK:3TS1AR6UQRM7SOIBWPBN8N9589Y7FV"}
{"meta_move": "drag_end", "rt": "1248.0", "trial_number": "1", "pre_actions": "1", "move": "6@20", "instance": "prb20888", "distance_to_goal": "NA", "progress": "NA", "move_number": "39", "optimal_length": "14", "subject": "A1F4N58CAX8IMK:3TS1AR6UQRM7SOIBWPBN8N9589Y7FV"}
{"meta_move": "drag_end", "rt": "1288.0", "trial_number": "1", "pre_actions": "1", "move": "4@23", "instance": "prb20888", "distance_to_goal": "NA", "progress": "NA", "move_number": "39", "optimal_length": "14", "subject": "A1F4N58CAX8IMK:3TS1AR6UQRM7SOIBWPBN8N9589Y7FV"}
{"meta_move": "drag_end", "rt": "1456.0", "trial_number": "1", "pre_actions": "1", "move": "1@18", "instance": "prb20888", "distance_to_goal": "NA", "progress": "NA", "move_number": "40", "optimal_length": "14", "subject": "A1F4N58CAX8IMK:3TS1AR6UQRM7SOIBWPBN8N9589Y7FV"}
{"meta_move": "drag_end", "rt": "880.0", "trial_number": "1", "pre_actions": "1", "move": "5@0", "instance": "prb20888", "distance_to_goal": "NA", "progress": "NA", "move_number": "40", "optimal_length": "14", "subject": "A1F4N58CAX8IMK:3TS1AR6UQRM7SOIBWPBN8N9589Y7FV"}
{"meta_move": "drag_end", "rt": "600.0", "trial_number": "1", "pre_actions": "1", "move": "r@12", "instance": "prb20888", "distance_to_goal": "NA", "progress": "NA", "move_number": "40", "optimal_length": "14", "subject": "A1F4N58CAX8IMK:3TS1AR6UQRM7SOIBWPBN8N9589Y7FV"}
{"meta_move": "drag_end", "rt": "800.0", "trial_number": "1", "pre_actions": "1", "move": "6@2", "instance": "prb20888", "distance_to_goal": "NA", "progress": "NA", "move_number": "41", "optimal_length": "14", "subject": "A1F4N58CAX8IMK:3TS1AR6UQRM7SOIBWPBN8N9589Y7FV"}
{"meta_move": "drag_end", "rt": "920.0", "trial_number": "1", "pre_actions": "1", "move": "1@21", "instance": "prb20888", "distance_to_goal": "NA", "progress": "NA", "move_number": "42", "optimal_length": "14", "subject": "A1F4N58CAX8IMK:3TS1AR6UQRM7SOIBWPBN8N9589Y7FV"}
{"meta_move": "drag_end", "rt": "1536.0", "trial_number": "1", "pre_actions": "1", "move": "3@18", "instance": "prb20888", "distance_to_goal": "NA", "progress": "NA", "move_number": "43", "optimal_length": "14", "subject": "A1F4N58CAX8IMK:3TS1AR6UQRM7SOIBWPBN8N9589Y7FV"}
{"meta_move": "drag_end", "rt": "672.0", "trial_number": "1", "pre_actions": "1", "move": "7@25", "instance": "prb20888", "distance_to_goal": "NA", "progress": "NA", "move_number": "44", "optimal_length": "14", "subject": "A1F4N58CAX8IMK:3TS1AR6UQRM7SOIBWPBN8N9589Y7FV"}
{"meta_move": "drag_end", "rt": "920.0", "trial_number": "1", "pre_actions": "1", "move": "7@27", "instance": "prb20888", "distance_to_goal": "NA", "progress": "NA", "move_number": "45", "optimal_length": "14", "subject": "A1F4N58CAX8IMK:3TS1AR6UQRM7SOIBWPBN8N9589Y7FV"}
{"meta_move": "drag_end", "rt": "1176.0", "trial_number": "1", "pre_actions": "1", "move": "6@20", "instance": "prb20888", "distance_to_goal": "NA", "progress": "NA", "move_number": "46", "optimal_length": "14", "subject": "A1F4N58CAX8IMK:3TS1AR6UQRM7SOIBWPBN8N9589Y7FV"}
{"meta_move": "drag_end", "rt": "1560.0", "trial_number": "1", "pre_actions": "1", "move": "6@8", "instance": "prb20888", "distance_to_goal": "NA", "progress": "NA", "move_number": "47", "optimal_length": "14", "subject": "A1F4N58CAX8IMK:3TS1AR6UQRM7SOIBWPBN8N9589Y7FV"}
{"meta_move": "drag_end", "rt": "824.0", "trial_number": "1", "pre_actions": "1", "move": "7@25", "instance": "prb20888", "distance_to_goal": "NA", "progress": "NA", "move_number": "48", "optimal_length": "14", "subject": "A1F4N58CAX8IMK:3TS1AR6UQRM7SOIBWPBN8N9589Y7FV"}
{"meta_move": "drag_end", "rt": "1264.0", "trial_number": "1", "pre_actions": "1", "move": "4@17", "instance": "prb20888", "distance_to_goal": "NA", "progress": "NA", "move_number": "49", "optimal_length": "14", "subject": "A1F4N58CAX8IMK:3TS1AR6UQRM7SOIBWPBN8N9589Y7FV"}
{"meta_move": "drag_end", "rt": "1272.0", "trial_number": "1", "pre_actions": "1", "move": "2@3", "instance": "prb20888", "distance_to_goal": "NA", "progress": "NA", "move_number": "50", "optimal_length": "14", "subject": "A1F4N58CAX8IMK:3TS1AR6UQRM7SOIBWPBN8N9589Y7FV"}
{"meta_move": "drag_end", "rt": "616.0", "trial_number": "1", "pre_actions": "1", "move": "0@10", "instance": "prb20888", "distance_to_goal": "NA", "progress": "NA", "move_number": "50", "optimal_length": "14", "subject": "A1F4N58CAX8IMK:3TS1AR6UQRM7SOIBWPBN8N9589Y7FV"}
{"meta_move": "drag_end", "rt": "705.0", "trial_number": "1", "pre_actions": "1", "move": "7@27", "instance": "prb20888", "distance_to_goal": "NA", "progress": "NA", "move_number": "50", "optimal_length": "14", "subject": "A1F4N58CAX8IMK:3TS1AR6UQRM7SOIBWPBN8N9589Y7FV"}
{"meta_move": "drag_end", "rt": "631.0", "trial_number": "1", "pre_actions": "1", "move": "6@20", "instance": "prb20888", "distance_to_goal": "NA", "progress": "NA", "move_number": "51", "optimal_length": "14", "subject": "A1F4N58CAX8IMK:3TS1AR6UQRM7SOIBWPBN8N9589Y7FV"}
{"meta_move": "drag_end", "rt": "1208.0", "trial_number": "1", "pre_actions": "1", "move": "3@24", "instance": "prb20888", "distance_to_goal": "NA", "progress": "NA", "move_number": "52", "optimal_length": "14", "subject": "A1F4N58CAX8IMK:3TS1AR6UQRM7SOIBWPBN8N9589Y7FV"}
{"meta_move": "drag_end", "rt": "696.0", "trial_number": "1", "pre_actions": "1", "move": "r@13", "instance": "prb20888", "distance_to_goal": "NA", "progress": "NA", "move_number": "53", "optimal_length": "14", "subject": "A1F4N58CAX8IMK:3TS1AR6UQRM7SOIBWPBN8N9589Y7FV"}
{"meta_move": "drag_end", "rt": "832.0", "trial_number": "1", "pre_actions": "1", "move": "3@6", "instance": "prb20888", "distance_to_goal": "NA", "progress": "NA", "move_number": "54", "optimal_length": "14", "subject": "A1F4N58CAX8IMK:3TS1AR6UQRM7SOIBWPBN8N9589Y7FV"}
{"meta_move": "drag_end", "rt": "800.0", "trial_number": "1", "pre_actions": "1", "move": "6@20", "instance": "prb20888", "distance_to_goal": "NA", "progress": "NA", "move_number": "55", "optimal_length": "14", "subject": "A1F4N58CAX8IMK:3TS1AR6UQRM7SOIBWPBN8N9589Y7FV"}
{"meta_move": "drag_end", "rt": "1009.0", "trial_number": "1", "pre_actions": "1", "move": "2@3", "instance": "prb20888", "distance_to_goal": "NA", "progress": "NA", "move_number": "55", "optimal_length": "14", "subject": "A1F4N58CAX8IMK:3TS1AR6UQRM7SOIBWPBN8N9589Y7FV"}
{"meta_move": "drag_end", "rt": "464.0", "trial_number": "1", "pre_actions": "1", "move": "0@10", "instance": "prb20888", "distance_to_goal": "NA", "progress": "NA", "move_number": "55", "optimal_length": "14", "subject": "A1F4N58CAX8IMK:3TS1AR6UQRM7SOIBWPBN8N9589Y7FV"}
{"meta_move": "drag_end", "rt": "599.0", "trial_number": "1", "pre_actions": "1", "move": "4@23", "instance": "prb20888", "distance_to_goal": "NA", "progress": "NA", "move_number": "55", "optimal_length": "14", "subject": "A1F4N58CAX8IMK:3TS1AR6UQRM7SOIBWPBN8N9589Y7FV"}
{"meta_move": "drag_end", "rt": "896.0", "trial_number": "1", "pre_actions": "1", "move": "6@20", "instance": "prb20888", "distance_to_goal": "NA", "progress": "NA", "move_number": "56", "optimal_length": "14", "subject": "A1F4N58CAX8IMK:3TS1AR6UQRM7SOIBWPBN8N9589Y7FV"}
{"meta_move": "drag_end", "rt": "3414.0", "trial_number": "1", "pre_actions": "1", "move": "1@19", "instance": "prb20888", "distance_to_goal": "NA", "progress": "NA", "move_number": "0", "optimal_length": "14", "subject": "A1LR0VQIHQUJAM:3YW4XOSQKRTI0K0Z2YPDTDJVFABU1I"}
{"meta_move": "drag_end", "rt": "536.0", "trial_number": "1", "pre_actions": "1", "move": "3@18", "instance": "prb20888", "distance_to_goal": "NA", "progress": "NA", "move_number": "1", "optimal_length": "14", "subject": "A1LR0VQIHQUJAM:3YW4XOSQKRTI0K0Z2YPDTDJVFABU1I"}
{"meta_move": "drag_end", "rt": "2410.0", "trial_number": "1", "pre_actions": "1", "move": "3@24", "instance": "prb20888", "distance_to_goal": "NA", "progress": "NA", "move_number": "2", "optimal_length": "14", "subject": "A1LR0VQIHQUJAM:3YW4XOSQKRTI0K0Z2YPDTDJVFABU1I"}
{"meta_move": "drag_end", "rt": "379.0", "trial_number": "1", "pre_actions": "1", "move": "1@18", "instance": "prb20888", "distance_to_goal": "NA", "progress": "NA", "move_number": "3", "optimal_length": "14", "subject": "A1LR0VQIHQUJAM:3YW4XOSQKRTI0K0Z2YPDTDJVFABU1I"}
{"meta_move": "drag_end", "rt": "588.0", "trial_number": "1", "pre_actions": "1", "move": "6@20", "instance": "prb20888", "distance_to_goal": "NA", "progress": "NA", "move_number": "4", "optimal_length": "14", "subject": "A1LR0VQIHQUJAM:3YW4XOSQKRTI0K0Z2YPDTDJVFABU1I"}
{"meta_move": "drag_end", "rt": "1932.0", "trial_number": "1", "pre_actions": "1", "move": "5@0", "instance": "prb20888", "distance_to_goal": "NA", "progress": "NA", "move_number": "5", "optimal_length": "14", "subject": "A1LR0VQIHQUJAM:3YW4XOSQKRTI0K0Z2YPDTDJVFABU1I"}
{"meta_move": "drag_end", "rt": "517.0", "trial_number": "1", "pre_actions": "1", "move": "2@3", "instance": "prb20888", "distance_to_goal": "NA", "progress": "NA", "move_number": "6", "optimal_length": "14", "subject": "A1LR0VQIHQUJAM:3YW4XOSQKRTI0K0Z2YPDTDJVFABU1I"}
{"meta_move": "drag_end", "rt": "1509.0", "trial_number": "1", "pre_actions": "1", "move": "6@2", "instance": "prb20888", "distance_to_goal": "NA", "progress": "NA", "move_number": "7", "optimal_length": "14", "subject": "A1LR0VQIHQUJAM:3YW4XOSQKRTI0K0Z2YPDTDJVFABU1I"}
{"meta_move": "drag_end", "rt": "922.0", "trial_number": "1", "pre_actions": "1", "move": "1@21", "instance": "prb20888", "distance_to_goal": "NA", "progress": "NA", "move_number": "8", "optimal_length": "14", "subject": "A1LR0VQIHQUJAM:3YW4XOSQKRTI0K0Z2YPDTDJVFABU1I"}
{"meta_move": "drag_end", "rt": "784.0", "trial_number": "1", "pre_actions": "1", "move": "6@20", "instance": "prb20888", "distance_to_goal": "NA", "progress": "NA", "move_number": "9", "optimal_length": "14", "subject": "A1LR0VQIHQUJAM:3YW4XOSQKRTI0K0Z2YPDTDJVFABU1I"}
{"meta_move": "drag_end", "rt": "1070.0", "trial_number": "1", "pre_actions": "1", "move": "r@13", "instance": "prb20888", "distance_to_goal": "NA", "progress": "NA", "move_number": "10", "optimal_length": "14", "subject": "A1LR0VQIHQUJAM:3YW4XOSQKRTI0K0Z2YPDTDJVFABU1I"}
{"meta_move": "drag_end", "rt": "1363.0", "trial_number": "1", "pre_actions": "1", "move": "5@1", "instance": "prb20888", "distance_to_goal": "NA", "progress": "NA", "move_number": "11", "optimal_length": "14", "subject": "A1LR0VQIHQUJAM:3YW4XOSQKRTI0K0Z2YPDTDJVFABU1I"}
{"meta_move": "drag_end", "rt": "748.0", "trial_number": "1", "pre_actions": "1", "move": "3@0", "instance": "prb20888", "distance_to_goal": "NA", "progress": "NA", "move_number": "12", "optimal_length": "14", "subject": "A1LR0VQIHQUJAM:3YW4XOSQKRTI0K0Z2YPDTDJVFABU1I"}
{"meta_move": "drag_end", "rt": "517.0", "trial_number": "1", "pre_actions": "1", "move": "r@12", "instance": "prb20888", "distance_to_goal": "NA", "progress": "NA", "move_number": "13", "optimal_length": "14", "subject": "A1LR0VQIHQUJAM:3YW4XOSQKRTI0K0Z2YPDTDJVFABU1I"}
{"meta_move": "drag_end", "rt": "692.0", "trial_number": "1", "pre_actions": "1", "move": "6@8", "instance": "prb20888", "distance_to_goal": "NA", "progress": "NA", "move_number": "14", "optimal_length": "14", "subject": "A1LR0VQIHQUJAM:3YW4XOSQKRTI0K0Z2YPDTDJVFABU1I"}
{"meta_move": "drag_end", "rt": "844.0", "trial_number": "1", "pre_actions": "1", "move": "7@24", "instance": "prb20888", "distance_to_goal": "NA", "progress": "NA", "move_number": "15", "optimal_length": "14", "subject": "A1LR0VQIHQUJAM:3YW4XOSQKRTI0K0Z2YPDTDJVFABU1I"}
{"meta_move": "drag_end", "rt": "1001.0", "trial_number": "1", "pre_actions": "1", "move": "6@20", "instance": "prb20888", "distance_to_goal": "NA", "progress": "NA", "move_number": "16", "optimal_length": "14", "subject": "A1LR0VQIHQUJAM:3YW4XOSQKRTI0K0Z2YPDTDJVFABU1I"}
{"meta_move": "drag_end", "rt": "2564.0", "trial_number": "1", "pre_actions": "1", "move": "6@20", "instance": "prb20888", "distance_to_goal": "NA", "progress": "NA", "move_number": "17", "optimal_length": "14", "subject": "A1LR0VQIHQUJAM:3YW4XOSQKRTI0K0Z2YPDTDJVFABU1I"}
{"meta_move": "drag_end", "rt": "2140.0", "trial_number": "1", "pre_actions": "1", "move": "6@8", "instance": "prb20888", "distance_to_goal": "NA", "progress": "NA", "move_number": "17", "optimal_length": "14", "subject": "A1LR0VQIHQUJAM:3YW4XOSQKRTI0K0Z2YPDTDJVFABU1I"}
{"meta_move": "drag_end", "rt": "4561.0", "trial_number": "1", "pre_actions": "1", "move": "6@20", "instance": "prb20888", "distance_to_goal": "NA", "progress": "NA", "move_number": "18", "optimal_length": "14", "subject": "A1LR0VQIHQUJAM:3YW4XOSQKRTI0K0Z2YPDTDJVFABU1I"}
{"meta_move": "drag_end", "rt": "5524.0", "trial_number": "1", "pre_actions": "1", "move": "6@8", "instance": "prb20888", "distance_to_goal": "NA", "progress": "NA", "move_number": "19", "optimal_length": "14", "subject": "A1LR0VQIHQUJAM:3YW4XOSQKRTI0K0Z2YPDTDJVFABU1I"}
{"meta_move": "drag_end", "rt": "1358.0", "trial_number": "1", "pre_actions": "1", "move": "7@26", "instance": "prb20888", "distance_to_goal": "NA", "progress": "NA", "move_number": "20", "optimal_length": "14", "subject": "A1LR0VQIHQUJAM:3YW4XOSQKRTI0K0Z2YPDTDJVFABU1I"}
{"meta_move": "drag_end", "rt": "774.0", "trial_number": "1", "pre_actions": "1", "move": "r@12", "instance": "prb20888", "distance_to_goal": "NA", "progress": "NA", "move_number": "21", "optimal_length": "14", "subject": "A1LR0VQIHQUJAM:3YW4XOSQKRTI0K0Z2YPDTDJVFABU1I"}
{"meta_move": "drag_end", "rt": "515.0", "trial_number": "1", "pre_actions": "1", "move": "r@12", "instance": "prb20888", "distance_to_goal": "NA", "progress": "NA", "move_number": "21", "optimal_length": "14", "subject": "A1LR0VQIHQUJAM:3YW4XOSQKRTI0K0Z2YPDTDJVFABU1I"}
{"meta_move": "drag_end", "rt": "1597.0", "trial_number": "1", "pre_actions": "1", "move": "7@24", "instance": "prb20888", "distance_to_goal": "NA", "progress": "NA", "move_number": "21", "optimal_length": "14", "subject": "A1LR0VQIHQUJAM:3YW4XOSQKRTI0K0Z2YPDTDJVFABU1I"}
{"meta_move": "drag_end", "rt": "544.0", "trial_number": "1", "pre_actions": "1", "move": "6@20", "instance": "prb20888", "distance_to_goal": "NA", "progress": "NA", "move_number": "22", "optimal_length": "14", "subject": "A1LR0VQIHQUJAM:3YW4XOSQKRTI0K0Z2YPDTDJVFABU1I"}
{"meta_move": "drag_end", "rt": "500.0", "trial_number": "1", "pre_actions": "1", "move": "r@13", "instance": "prb20888", "distance_to_goal": "NA", "progress": "NA", "move_number": "23", "optimal_length": "14", "subject": "A1LR0VQIHQUJAM:3YW4XOSQKRTI0K0Z2YPDTDJVFABU1I"}
{"meta_move": "drag_end", "rt": "558.0", "trial_number": "1", "pre_actions": "1", "move": "3@12", "instance": "prb20888", "distance_to_goal": "NA", "progress": "NA", "move_number": "24", "optimal_length": "14", "subject": "A1LR0VQIHQUJAM:3YW4XOSQKRTI0K0Z2YPDTDJVFABU1I"}
{"meta_move": "drag_end", "rt": "2706.0", "trial_number": "1", "pre_actions": "1", "move": "5@0", "instance": "prb20888", "distance_to_goal": "NA", "progress": "NA", "move_number": "25", "optimal_length": "14", "subject": "A1LR0VQIHQUJAM:3YW4XOSQKRTI0K0Z2YPDTDJVFABU1I"}
{"meta_move": "drag_end", "rt": "1409.0", "trial_number": "1", "pre_actions": "1", "move": "3@6", "instance": "prb20888", "distance_to_goal": "NA", "progress": "NA", "move_number": "26", "optimal_length": "14", "subject": "A1LR0VQIHQUJAM:3YW4XOSQKRTI0K0Z2YPDTDJVFABU1I"}
{"meta_move": "drag_end", "rt": "2161.0", "trial_number": "2", "pre_actions": "1", "move": "6@20", "instance": "prb20888", "distance_to_goal": "NA", "progress": "NA", "move_number": "0", "optimal_length": "14", "subject": "A214HWAW1PYWO8:34BBWHLWHBJ6SUL255PK30LEGY5IWG"}
{"meta_move": "drag_end", "rt": "1034.0", "trial_number": "2", "pre_actions": "1", "move": "6@2", "instance": "prb20888", "distance_to_goal": "NA", "progress": "NA", "move_number": "1", "optimal_length": "14", "subject": "A214HWAW1PYWO8:34BBWHLWHBJ6SUL255PK30LEGY5IWG"}
{"meta_move": "drag_end", "rt": "844.0", "trial_number": "2", "pre_actions": "1", "move": "7@25", "instance": "prb20888", "distance_to_goal": "NA", "progress": "NA", "move_number": "2", "optimal_length": "14", "subject": "A214HWAW1PYWO8:34BBWHLWHBJ6SUL255PK30LEGY5IWG"}
{"meta_move": "drag_end", "rt": "705.0", "trial_number": "2", "pre_actions": "1", "move": "2@21", "instance": "prb20888", "distance_to_goal": "NA", "progress": "NA", "move_number": "3", "optimal_length": "14", "subject": "A214HWAW1PYWO8:34BBWHLWHBJ6SUL255PK30LEGY5IWG"}
{"meta_move": "drag_end", "rt": "2709.0", "trial_number": "2", "pre_actions": "1", "move": "0@9", "instance": "prb20888", "distance_to_goal": "NA", "progress": "NA", "move_number": "4", "optimal_length": "14", "subject": "A214HWAW1PYWO8:34BBWHLWHBJ6SUL255PK30LEGY5IWG"}
{"meta_move": "drag_end", "rt": "525.0", "trial_number": "2", "pre_actions": "1", "move": "4@5", "instance": "prb20888", "distance_to_goal": "NA", "progress": "NA", "move_number": "5", "optimal_length": "14", "subject": "A214HWAW1PYWO8:34BBWHLWHBJ6SUL255PK30LEGY5IWG"}
{"meta_move": "drag_end", "rt": "755.0", "trial_number": "2", "pre_actions": "1", "move": "2@21", "instance": "prb20888", "distance_to_goal": "NA", "progress": "NA", "move_number": "6", "optimal_length": "14", "subject": "A214HWAW1PYWO8:34BBWHLWHBJ6SUL255PK30LEGY5IWG"}
{"meta_move": "drag_end", "rt": "2235.0", "trial_number": "2", "pre_actions": "1", "move": "2@15", "instance": "prb20888", "distance_to_goal": "NA", "progress": "NA", "move_number": "6", "optimal_length": "14", "subject": "A214HWAW1PYWO8:34BBWHLWHBJ6SUL255PK30LEGY5IWG"}
{"meta_move": "drag_end", "rt": "825.0", "trial_number": "2", "pre_actions": "1", "move": "2@21", "instance": "prb20888", "distance_to_goal": "NA", "progress": "NA", "move_number": "7", "optimal_length": "14", "subject": "A214HWAW1PYWO8:34BBWHLWHBJ6SUL255PK30LEGY5IWG"}
{"meta_move": "drag_end", "rt": "573.0", "trial_number": "2", "pre_actions": "1", "move": "6@8", "instance": "prb20888", "distance_to_goal": "NA", "progress": "NA", "move_number": "8", "optimal_length": "14", "subject": "A214HWAW1PYWO8:34BBWHLWHBJ6SUL255PK30LEGY5IWG"}
{"meta_move": "drag_end", "rt": "677.0", "trial_number": "2", "pre_actions": "1", "move": "5@0", "instance": "prb20888", "distance_to_goal": "NA", "progress": "NA", "move_number": "9", "optimal_length": "14", "subject": "A214HWAW1PYWO8:34BBWHLWHBJ6SUL255PK30LEGY5IWG"}
{"meta_move": "drag_end", "rt": "1043.0", "trial_number": "2", "pre_actions": "1", "move": "6@2", "instance": "prb20888", "distance_to_goal": "NA", "progress": "NA", "move_number": "10", "optimal_length": "14", "subject": "A214HWAW1PYWO8:34BBWHLWHBJ6SUL255PK30LEGY5IWG"}
{"meta_move": "drag_end", "rt": "1201.0", "trial_number": "2", "pre_actions": "1", "move": "2@15", "instance": "prb20888", "distance_to_goal": "NA", "progress": "NA", "move_number": "11", "optimal_length": "14", "subject": "A214HWAW1PYWO8:34BBWHLWHBJ6SUL255PK30LEGY5IWG"}
{"meta_move": "drag_end", "rt": "915.0", "trial_number": "2", "pre_actions": "1", "move": "4@23", "instance": "prb20888", "distance_to_goal": "NA", "progress": "NA", "move_number": "12", "optimal_length": "14", "subject": "A214HWAW1PYWO8:34BBWHLWHBJ6SUL255PK30LEGY5IWG"}
{"meta_move": "drag_end", "rt": "508.0", "trial_number": "2", "pre_actions": "1", "move": "0@10", "instance": "prb20888", "distance_to_goal": "NA", "progress": "NA", "move_number": "13", "optimal_length": "14", "subject": "A214HWAW1PYWO8:34BBWHLWHBJ6SUL255PK30LEGY5IWG"}
{"meta_move": "drag_end", "rt": "523.0", "trial_number": "2", "pre_actions": "1", "move": "2@3", "instance": "prb20888", "distance_to_goal": "NA", "progress": "NA", "move_number": "14", "optimal_length": "14", "subject": "A214HWAW1PYWO8:34BBWHLWHBJ6SUL255PK30LEGY5IWG"}
{"meta_move": "drag_end", "rt": "1207.0", "trial_number": "2", "pre_actions": "1", "move": "7@27", "instance": "prb20888", "distance_to_goal": "NA", "progress": "NA", "move_number": "15", "optimal_length": "14", "subject": "A214HWAW1PYWO8:34BBWHLWHBJ6SUL255PK30LEGY5IWG"}
{"meta_move": "drag_end", "rt": "1045.0", "trial_number": "2", "pre_actions": "1", "move": "6@20", "instance": "prb20888", "distance_to_goal": "NA", "progress": "NA", "move_number": "16", "optimal_length": "14", "subject": "A214HWAW1PYWO8:34BBWHLWHBJ6SUL255PK30LEGY5IWG"}
{"meta_move": "drag_end", "rt": "1923.0", "trial_number": "2", "pre_actions": "1", "move": "6@2", "instance": "prb20888", "distance_to_goal": "NA", "progress": "NA", "move_number": "17", "optimal_length": "14", "subject": "A214HWAW1PYWO8:34BBWHLWHBJ6SUL255PK30LEGY5IWG"}
{"meta_move": "drag_end", "rt": "957.0", "trial_number": "2", "pre_actions": "1", "move": "1@21", "instance": "prb20888", "distance_to_goal": "NA", "progress": "NA", "move_number": "18", "optimal_length": "14", "subject": "A214HWAW1PYWO8:34BBWHLWHBJ6SUL255PK30LEGY5IWG"}
{"meta_move": "drag_end", "rt": "1828.0", "trial_number": "2", "pre_actions": "1", "move": "3@18", "instance": "prb20888", "distance_to_goal": "NA", "progress": "NA", "move_number": "19", "optimal_length": "14", "subject": "A214HWAW1PYWO8:34BBWHLWHBJ6SUL255PK30LEGY5IWG"}
{"meta_move": "drag_end", "rt": "2259.0", "trial_number": "2", "pre_actions": "1", "move": "6@20", "instance": "prb20888", "distance_to_goal": "NA", "progress": "NA", "move_number": "20", "optimal_length": "14", "subject": "A214HWAW1PYWO8:34BBWHLWHBJ6SUL255PK30LEGY5IWG"}
{"meta_move": "drag_end", "rt": "711.0", "trial_number": "2", "pre_actions": "1", "move": "r@13", "instance": "prb20888", "distance_to_goal": "NA", "progress": "NA", "move_number": "21", "optimal_length": "14", "subject": "A214HWAW1PYWO8:34BBWHLWHBJ6SUL255PK30LEGY5IWG"}
{"meta_move": "drag_end", "rt": "1034.0", "trial_number": "2", "pre_actions": "1", "move": "3@6", "instance": "prb20888", "distance_to_goal": "NA", "progress": "NA", "move_number": "22", "optimal_length": "14", "subject": "A214HWAW1PYWO8:34BBWHLWHBJ6SUL255PK30LEGY5IWG"}
{"meta_move": "drag_end", "rt": "23.0", "trial_number": "2", "pre_actions": "1", "move": "3@6", "instance": "prb20888", "distance_to_goal": "NA", "progress": "NA", "move_number": "23", "optimal_length": "14", "subject": "A214HWAW1PYWO8:34BBWHLWHBJ6SUL255PK30LEGY5IWG"}
{"meta_move": "drag_end", "rt": "1097.0", "trial_number": "2", "pre_actions": "1", "move": "5@1", "instance": "prb20888", "distance_to_goal": "NA", "progress": "NA", "move_number": "23", "optimal_length": "14", "subject": "A214HWAW1PYWO8:34BBWHLWHBJ6SUL255PK30LEGY5IWG"}
{"meta_move": "drag_end", "rt": "469.0", "trial_number": "2", "pre_actions": "1", "move": "3@0", "instance": "prb20888", "distance_to_goal": "NA", "progress": "NA", "move_number": "24", "optimal_length": "14", "subject": "A214HWAW1PYWO8:34BBWHLWHBJ6SUL255PK30LEGY5IWG"}
{"meta_move": "drag_end", "rt": "502.0", "trial_number": "2", "pre_actions": "1", "move": "r@12", "instance": "prb20888", "distance_to_goal": "NA", "progress": "NA", "move_number": "25", "optimal_length": "14", "subject": "A214HWAW1PYWO8:34BBWHLWHBJ6SUL255PK30LEGY5IWG"}
{"meta_move": "drag_end", "rt": "1189.0", "trial_number": "2", "pre_actions": "1", "move": "6@8", "instance": "prb20888", "distance_to_goal": "NA", "progress": "NA", "move_number": "26", "optimal_length": "14", "subject": "A214HWAW1PYWO8:34BBWHLWHBJ6SUL255PK30LEGY5IWG"}
{"meta_move": "drag_end", "rt": "753.0", "trial_number": "2", "pre_actions": "1", "move": "7@24", "instance": "prb20888", "distance_to_goal": "NA", "progress": "NA", "move_number": "27", "optimal_length": "14", "subject": "A214HWAW1PYWO8:34BBWHLWHBJ6SUL255PK30LEGY5IWG"}
{"meta_move": "drag_end", "rt": "1098.0", "trial_number": "2", "pre_actions": "1", "move": "6@20", "instance": "prb20888", "distance_to_goal": "NA", "progress": "NA", "move_number": "28", "optimal_length": "14", "subject": "A214HWAW1PYWO8:34BBWHLWHBJ6SUL255PK30LEGY5IWG"}
{"meta_move": "drag_end", "rt": "1088.0", "trial_number": "2", "pre_actions": "1", "move": "6@8", "instance": "prb20888", "distance_to_goal": "NA", "progress": "NA", "move_number": "29", "optimal_length": "14", "subject": "A214HWAW1PYWO8:34BBWHLWHBJ6SUL255PK30LEGY5IWG"}
{"meta_move": "drag_end", "rt": "844.0", "trial_number": "2", "pre_actions": "1", "move": "6@20", "instance": "prb20888", "distance_to_goal": "NA", "progress": "NA", "move_number": "30", "optimal_length": "14", "subject": "A214HWAW1PYWO8:34BBWHLWHBJ6SUL255PK30LEGY5IWG"}
{"meta_move": "drag_end", "rt": "1209.0", "trial_number": "2", "pre_actions": "1", "move": "6@8", "instance": "prb20888", "distance_to_goal": "NA", "progress": "NA", "move_number": "31", "optimal_length": "14", "subject": "A214HWAW1PYWO8:34BBWHLWHBJ6SUL255PK30LEGY5IWG"}
{"meta_move": "drag_end", "rt": "1656.0", "trial_number": "2", "pre_actions": "1", "move": "4@17", "instance": "prb20888", "distance_to_goal": "NA", "progress": "NA", "move_number": "32", "optimal_length": "14", "subject": "A214HWAW1PYWO8:34BBWHLWHBJ6SUL255PK30LEGY5IWG"}
{"meta_move": "drag_end", "rt": "96438.0", "trial_number": "3", "pre_actions": "1", "move": "6@20", "instance": "prb20888", "distance_to_goal": "NA", "progress": "NA", "move_number": "0", "optimal_length": "14", "subject": "A214HWAW1PYWO8:34BBWHLWHBJ6SUL255PK30LEGY5IWG"}
{"meta_move": "drag_end", "rt": "4739.0", "trial_number": "3", "pre_actions": "1", "move": "5@0", "instance": "prb20888", "distance_to_goal": "NA", "progress": "NA", "move_number": "1", "optimal_length": "14", "subject": "A214HWAW1PYWO8:34BBWHLWHBJ6SUL255PK30LEGY5IWG"}
{"meta_move": "drag_end", "rt": "777.0", "trial_number": "3", "pre_actions": "1", "move": "2@3", "instance": "prb20888", "distance_to_goal": "NA", "progress": "NA", "move_number": "2", "optimal_length": "14", "subject": "A214HWAW1PYWO8:34BBWHLWHBJ6SUL255PK30LEGY5IWG"}
{"meta_move": "drag_end", "rt": "2698.0", "trial_number": "3", "pre_actions": "1", "move": "2@9", "instance": "prb20888", "distance_to_goal": "NA", "progress": "NA", "move_number": "3", "optimal_length": "14", "subject": "A214HWAW1PYWO8:34BBWHLWHBJ6SUL255PK30LEGY5IWG"}
{"meta_move": "drag_end", "rt": "865.0", "trial_number": "3", "pre_actions": "1", "move": "5@4", "instance": "prb20888", "distance_to_goal": "NA", "progress": "NA", "move_number": "4", "optimal_length": "14", "subject": "A214HWAW1PYWO8:34BBWHLWHBJ6SUL255PK30LEGY5IWG"}
{"meta_move": "drag_end", "rt": "2505.0", "trial_number": "3", "pre_actions": "1", "move": "6@2", "instance": "prb20888", "distance_to_goal": "NA", "progress": "NA", "move_number": "5", "optimal_length": "14", "subject": "A214HWAW1PYWO8:34BBWHLWHBJ6SUL255PK30LEGY5IWG"}
{"meta_move": "drag_end", "rt": "1010.0", "trial_number": "3", "pre_actions": "1", "move": "2@3", "instance": "prb20888", "distance_to_goal": "NA", "progress": "NA", "move_number": "6", "optimal_length": "14", "subject": "A214HWAW1PYWO8:34BBWHLWHBJ6SUL255PK30LEGY5IWG"}
{"meta_move": "drag_end", "rt": "1570.0", "trial_number": "3", "pre_actions": "1", "move": "1@21", "instance": "prb20888", "distance_to_goal": "NA", "progress": "NA", "move_number": "7", "optimal_length": "14", "subject": "A214HWAW1PYWO8:34BBWHLWHBJ6SUL255PK30LEGY5IWG"}
{"meta_move": "drag_end", "rt": "1300.0", "trial_number": "3", "pre_actions": "1", "move": "1@18", "instance": "prb20888", "distance_to_goal": "NA", "progress": "NA", "move_number": "8", "optimal_length": "14", "subject": "A214HWAW1PYWO8:34BBWHLWHBJ6SUL255PK30LEGY5IWG"}
{"meta_move": "drag_end", "rt": "1684.0", "trial_number": "3", "pre_actions": "1", "move": "6@2", "instance": "prb20888", "distance_to_goal": "NA", "progress": "NA", "move_number": "9", "optimal_length": "14", "subject": "A214HWAW1PYWO8:34BBWHLWHBJ6SUL255PK30LEGY5IWG"}
{"meta_move": "drag_end", "rt": "1091.0", "trial_number": "3", "pre_actions": "1", "move": "6@20", "instance": "prb20888", "distance_to_goal": "NA", "progress": "NA", "move_number": "9", "optimal_length": "14", "subject": "A214HWAW1PYWO8:34BBWHLWHBJ6SUL255PK30LEGY5IWG"}
{"meta_move": "drag_end", "rt": "773.0", "trial_number": "3", "pre_actions": "1", "move": "r@13", "instance": "prb20888", "distance_to_goal": "NA", "progress": "NA", "move_number": "10", "optimal_length": "14", "subject": "A214HWAW1PYWO8:34BBWHLWHBJ6SUL255PK30LEGY5IWG"}
{"meta_move": "drag_end", "rt": "350.0", "trial_number": "3", "pre_actions": "1", "move": "r@12", "instance": "prb20888", "distance_to_goal": "NA", "progress": "NA", "move_number": "11", "optimal_length": "14", "subject": "A214HWAW1PYWO8:34BBWHLWHBJ6SUL255PK30LEGY5IWG"}
{"meta_move": "drag_end", "rt": "1027.0", "trial_number": "3", "pre_actions": "1", "move": "6@2", "instance": "prb20888", "distance_to_goal": "NA", "progress": "NA", "move_number": "12", "optimal_length": "14", "subject": "A214HWAW1PYWO8:34BBWHLWHBJ6SUL255PK30LEGY5IWG"}
{"meta_move": "drag_end", "rt": "811.0", "trial_number": "3", "pre_actions": "1", "move": "1@21", "instance": "prb20888", "distance_to_goal": "NA", "progress": "NA", "move_number": "13", "optimal_length": "14", "subject": "A214HWAW1PYWO8:34BBWHLWHBJ6SUL255PK30LEGY5IWG"}
{"meta_move": "drag_end", "rt": "1764.0", "trial_number": "3", "pre_actions": "1", "move": "3@18", "instance": "prb20888", "distance_to_goal": "NA", "progress": "NA", "move_number": "14", "optimal_length": "14", "subject": "A214HWAW1PYWO8:34BBWHLWHBJ6SUL255PK30LEGY5IWG"}
{"meta_move": "drag_end", "rt": "1603.0", "trial_number": "3", "pre_actions": "1", "move": "6@20", "instance": "prb20888", "distance_to_goal": "NA", "progress": "NA", "move_number": "15", "optimal_length": "14", "subject": "A214HWAW1PYWO8:34BBWHLWHBJ6SUL255PK30LEGY5IWG"}
{"meta_move": "drag_end", "rt": "1328.0", "trial_number": "3", "pre_actions": "1", "move": "6@2", "instance": "prb20888", "distance_to_goal": "NA", "progress": "NA", "move_number": "16", "optimal_length": "14", "subject": "A214HWAW1PYWO8:34BBWHLWHBJ6SUL255PK30LEGY5IWG"}
{"meta_move": "drag_end", "rt": "1359.0", "trial_number": "3", "pre_actions": "1", "move": "6@20", "instance": "prb20888", "distance_to_goal": "NA", "progress": "NA", "move_number": "17", "optimal_length": "14", "subject": "A214HWAW1PYWO8:34BBWHLWHBJ6SUL255PK30LEGY5IWG"}
{"meta_move": "drag_end", "rt": "518.0", "trial_number": "3", "pre_actions": "1", "move": "r@13", "instance": "prb20888", "distance_to_goal": "NA", "progress": "NA", "move_number": "18", "optimal_length": "14", "subject": "A214HWAW1PYWO8:34BBWHLWHBJ6SUL255PK30LEGY5IWG"}
{"meta_move": "drag_end", "rt": "738.0", "trial_number": "3", "pre_actions": "1", "move": "3@0", "instance": "prb20888", "distance_to_goal": "NA", "progress": "NA", "move_number": "19", "optimal_length": "14", "subject": "A214HWAW1PYWO8:34BBWHLWHBJ6SUL255PK30LEGY5IWG"}
{"meta_move": "drag_end", "rt": "598.0", "trial_number": "3", "pre_actions": "1", "move": "r@12", "instance": "prb20888", "distance_to_goal": "NA", "progress": "NA", "move_number": "20", "optimal_length": "14", "subject": "A214HWAW1PYWO8:34BBWHLWHBJ6SUL255PK30LEGY5IWG"}
{"meta_move": "drag_end", "rt": "554.0", "trial_number": "3", "pre_actions": "1", "move": "6@2", "instance": "prb20888", "distance_to_goal": "NA", "progress": "NA", "move_number": "21", "optimal_length": "14", "subject": "A214HWAW1PYWO8:34BBWHLWHBJ6SUL255PK30LEGY5IWG"}
{"meta_move": "drag_end", "rt": "607.0", "trial_number": "3", "pre_actions": "1", "move": "7@24", "instance": "prb20888", "distance_to_goal": "NA", "progress": "NA", "move_number": "22", "optimal_length": "14", "subject": "A214HWAW1PYWO8:34BBWHLWHBJ6SUL255PK30LEGY5IWG"}
{"meta_move": "drag_end", "rt": "528.0", "trial_number": "3", "pre_actions": "1", "move": "1@18", "instance": "prb20888", "distance_to_goal": "NA", "progress": "NA", "move_number": "23", "optimal_length": "14", "subject": "A214HWAW1PYWO8:34BBWHLWHBJ6SUL255PK30LEGY5IWG"}
{"meta_move": "drag_end", "rt": "624.0", "trial_number": "3", "pre_actions": "1", "move": "2@21", "instance": "prb20888", "distance_to_goal": "NA", "progress": "NA", "move_number": "24", "optimal_length": "14", "subject": "A214HWAW1PYWO8:34BBWHLWHBJ6SUL255PK30LEGY5IWG"}
{"meta_move": "drag_end", "rt": "445.0", "trial_number": "3", "pre_actions": "1", "move": "6@20", "instance": "prb20888", "distance_to_goal": "NA", "progress": "NA", "move_number": "25", "optimal_length": "14", "subject": "A214HWAW1PYWO8:34BBWHLWHBJ6SUL255PK30LEGY5IWG"}
{"meta_move": "win", "rt": "443.0", "trial_number": "3", "pre_actions": "1", "move": "r@12", "instance": "prb20888", "distance_to_goal": "1", "progress": "NA", "move_number": "26", "optimal_length": "14", "subject": "A214HWAW1PYWO8:34BBWHLWHBJ6SUL255PK30LEGY5IWG"}
{"meta_move": "drag_end", "rt": "44.0", "trial_number": "0", "pre_actions": "0", "move": "r@16", "instance": "prb20888", "distance_to_goal": "NA", "progress": "NA", "move_number": "26", "optimal_length": "14", "subject": "A214HWAW1PYWO8:34BBWHLWHBJ6SUL255PK30LEGY5IWG"}
{"meta_move": "drag_end", "rt": "18064.0", "trial_number": "1", "pre_actions": "1", "move": "6@20", "instance": "prb20888", "distance_to_goal": "NA", "progress": "NA", "move_number": "0", "optimal_length": "14", "subject": "A21S7MA9DCW95E:3X87C8JFV7JQ2BSCY8KSFD9F2ILSQK"}
{"meta_move": "drag_end", "rt": "1220.0", "trial_number": "1", "pre_actions": "1", "move": "5@0", "instance": "prb20888", "distance_to_goal": "NA", "progress": "NA", "move_number": "1", "optimal_length": "14", "subject": "A21S7MA9DCW95E:3X87C8JFV7JQ2BSCY8KSFD9F2ILSQK"}
{"meta_move": "drag_end", "rt": "1123.0", "trial_number": "1", "pre_actions": "1", "move": "2@3", "instance": "prb20888", "distance_to_goal": "NA", "progress": "NA", "move_number": "2", "optimal_length": "14", "subject": "A21S7MA9DCW95E:3X87C8JFV7JQ2BSCY8KSFD9F2ILSQK"}
{"meta_move": "drag_end", "rt": "3089.0", "trial_number": "1", "pre_actions": "1", "move": "r@13", "instance": "prb20888", "distance_to_goal": "NA", "progress": "NA", "move_number": "3", "optimal_length": "14", "subject": "A21S7MA9DCW95E:3X87C8JFV7JQ2BSCY8KSFD9F2ILSQK"}
{"meta_move": "drag_end", "rt": "3394.0", "trial_number": "1", "pre_actions": "1", "move": "2@9", "instance": "prb20888", "distance_to_goal": "NA", "progress": "NA", "move_number": "4", "optimal_length": "14", "subject": "A21S7MA9DCW95E:3X87C8JFV7JQ2BSCY8KSFD9F2ILSQK"}
{"meta_move": "drag_end", "rt": "1889.0", "trial_number": "1", "pre_actions": "1", "move": "4@17", "instance": "prb20888", "distance_to_goal": "NA", "progress": "NA", "move_number": "5", "optimal_length": "14", "subject": "A21S7MA9DCW95E:3X87C8JFV7JQ2BSCY8KSFD9F2ILSQK"}
{"meta_move": "drag_end", "rt": "3558.0", "trial_number": "1", "pre_actions": "1", "move": "2@3", "instance": "prb20888", "distance_to_goal": "NA", "progress": "NA", "move_number": "6", "optimal_length": "14", "subject": "A21S7MA9DCW95E:3X87C8JFV7JQ2BSCY8KSFD9F2ILSQK"}
{"meta_move": "drag_end", "rt": "1038.0", "trial_number": "1", "pre_actions": "1", "move": "1@18", "instance": "prb20888", "distance_to_goal": "NA", "progress": "NA", "move_number": "7", "optimal_length": "14", "subject": "A21S7MA9DCW95E:3X87C8JFV7JQ2BSCY8KSFD9F2ILSQK"}
{"meta_move": "drag_end", "rt": "2969.0", "trial_number": "2", "pre_actions": "1", "move": "7@25", "instance": "prb20888", "distance_to_goal": "NA", "progress": "NA", "move_number": "0", "optimal_length": "14", "subject": "A21S7MA9DCW95E:3X87C8JFV7JQ2BSCY8KSFD9F2ILSQK"}
{"meta_move": "drag_end", "rt": "4584.0", "trial_number": "2", "pre_actions": "1", "move": "7@27", "instance": "prb20888", "distance_to_goal": "NA", "progress": "NA", "move_number": "1", "optimal_length": "14", "subject": "A21S7MA9DCW95E:3X87C8JFV7JQ2BSCY8KSFD9F2ILSQK"}
{"meta_move": "drag_end", "rt": "2265.0", "trial_number": "2", "pre_actions": "1", "move": "6@20", "instance": "prb20888", "distance_to_goal": "NA", "progress": "NA", "move_number": "2", "optimal_length": "14", "subject": "A21S7MA9DCW95E:3X87C8JFV7JQ2BSCY8KSFD9F2ILSQK"}
{"meta_move": "drag_end", "rt": "2818.0", "trial_number": "2", "pre_actions": "1", "move": "6@2", "instance": "prb20888", "distance_to_goal": "NA", "progress": "NA", "move_number": "3", "optimal_length": "14", "subject": "A21S7MA9DCW95E:3X87C8JFV7JQ2BSCY8KSFD9F2ILSQK"}
{"meta_move": "drag_end", "rt": "1255.0", "trial_number": "2", "pre_actions": "1", "move": "1@19", "instance": "prb20888", "distance_to_goal": "NA", "progress": "NA", "move_number": "4", "optimal_length": "14", "subject": "A21S7MA9DCW95E:3X87C8JFV7JQ2BSCY8KSFD9F2ILSQK"}
{"meta_move": "drag_end", "rt": "2935.0", "trial_number": "2", "pre_actions": "1", "move": "4@17", "instance": "prb20888", "distance_to_goal": "NA", "progress": "NA", "move_number": "5", "optimal_length": "14", "subject": "A21S7MA9DCW95E:3X87C8JFV7JQ2BSCY8KSFD9F2ILSQK"}
{"meta_move": "drag_end", "rt": "3425.0", "trial_number": "3", "pre_actions": "1", "move": "6@20", "instance": "prb20888", "distance_to_goal": "NA", "progress": "NA", "move_number": "0", "optimal_length": "14", "subject": "A21S7MA9DCW95E:3X87C8JFV7JQ2BSCY8KSFD9F2ILSQK"}
{"meta_move": "drag_end", "rt": "1448.0", "trial_number": "3", "pre_actions": "1", "move": "r@13", "instance": "prb20888", "distance_to_goal": "NA", "progress": "NA", "move_number": "1", "optimal_length": "14", "subject": "A21S7MA9DCW95E:3X87C8JFV7JQ2BSCY8KSFD9F2ILSQK"}
{"meta_move": "drag_end", "rt": "1398.0", "trial_number": "3", "pre_actions": "1", "move": "5@0", "instance": "prb20888", "distance_to_goal": "NA", "progress": "NA", "move_number": "2", "optimal_length": "14", "subject": "A21S7MA9DCW95E:3X87C8JFV7JQ2BSCY8KSFD9F2ILSQK"}
{"meta_move": "drag_end", "rt": "1318.0", "trial_number": "3", "pre_actions": "1", "move": "2@3", "instance": "prb20888", "distance_to_goal": "NA", "progress": "NA", "move_number": "3", "optimal_length": "14", "subject": "A21S7MA9DCW95E:3X87C8JFV7JQ2BSCY8KSFD9F2ILSQK"}
{"meta_move": "drag_end", "rt": "2514.0", "trial_number": "3", "pre_actions": "1", "move": "4@23", "instance": "prb20888", "distance_to_goal": "NA", "progress": "NA", "move_number": "4", "optimal_length": "14", "subject": "A21S7MA9DCW95E:3X87C8JFV7JQ2BSCY8KSFD9F2ILSQK"}
{"meta_move": "drag_end", "rt": "2506.0", "trial_number": "4", "pre_actions": "1", "move": "6@20", "instance": "prb20888", "distance_to_goal": "NA", "progress": "NA", "move_number": "0", "optimal_length": "14", "subject": "A21S7MA9DCW95E:3X87C8JFV7JQ2BSCY8KSFD9F2ILSQK"}
{"meta_move": "drag_end", "rt": "3070.0", "trial_number": "4", "pre_actions": "1", "move": "5@0", "instance": "prb20888", "distance_to_goal": "NA", "progress": "NA", "move_number": "1", "optimal_length": "14", "subject": "A21S7MA9DCW95E:3X87C8JFV7JQ2BSCY8KSFD9F2ILSQK"}
{"meta_move": "drag_end", "rt": "3282.0", "trial_number": "4", "pre_actions": "1", "move": "r@12", "instance": "prb20888", "distance_to_goal": "NA", "progress": "NA", "move_number": "2", "optimal_length": "14", "subject": "A21S7MA9DCW95E:3X87C8JFV7JQ2BSCY8KSFD9F2ILSQK"}
{"meta_move": "drag_end", "rt": "1791.0", "trial_number": "4", "pre_actions": "1", "move": "6@2", "instance": "prb20888", "distance_to_goal": "NA", "progress": "NA", "move_number": "2", "optimal_length": "14", "subject": "A21S7MA9DCW95E:3X87C8JFV7JQ2BSCY8KSFD9F2ILSQK"}
{"meta_move": "drag_end", "rt": "1628.0", "trial_number": "4", "pre_actions": "1", "move": "1@19", "instance": "prb20888", "distance_to_goal": "NA", "progress": "NA", "move_number": "3", "optimal_length": "14", "subject": "A21S7MA9DCW95E:3X87C8JFV7JQ2BSCY8KSFD9F2ILSQK"}
{"meta_move": "drag_end", "rt": "1450.0", "trial_number": "4", "pre_actions": "1", "move": "3@18", "instance": "prb20888", "distance_to_goal": "NA", "progress": "NA", "move_number": "4", "optimal_length": "14", "subject": "A21S7MA9DCW95E:3X87C8JFV7JQ2BSCY8KSFD9F2ILSQK"}
{"meta_move": "drag_end", "rt": "2958.0", "trial_number": "4", "pre_actions": "1", "move": "2@3", "instance": "prb20888", "distance_to_goal": "NA", "progress": "NA", "move_number": "5", "optimal_length": "14", "subject": "A21S7MA9DCW95E:3X87C8JFV7JQ2BSCY8KSFD9F2ILSQK"}
{"meta_move": "drag_end", "rt": "1153.0", "trial_number": "4", "pre_actions": "1", "move": "7@25", "instance": "prb20888", "distance_to_goal": "NA", "progress": "NA", "move_number": "6", "optimal_length": "14", "subject": "A21S7MA9DCW95E:3X87C8JFV7JQ2BSCY8KSFD9F2ILSQK"}
{"meta_move": "drag_end", "rt": "1257.0", "trial_number": "4", "pre_actions": "1", "move": "2@21", "instance": "prb20888", "distance_to_goal": "NA", "progress": "NA", "move_number": "7", "optimal_length": "14", "subject": "A21S7MA9DCW95E:3X87C8JFV7JQ2BSCY8KSFD9F2ILSQK"}
{"meta_move": "drag_end", "rt": "2810.0", "trial_number": "4", "pre_actions": "1", "move": "2@3", "instance": "prb20888", "distance_to_goal": "NA", "progress": "NA", "move_number": "8", "optimal_length": "14", "subject": "A21S7MA9DCW95E:3X87C8JFV7JQ2BSCY8KSFD9F2ILSQK"}
{"meta_move": "drag_end", "rt": "1199.0", "trial_number": "4", "pre_actions": "1", "move": "1@21", "instance": "prb20888", "distance_to_goal": "NA", "progress": "NA", "move_number": "9", "optimal_length": "14", "subject": "A21S7MA9DCW95E:3X87C8JFV7JQ2BSCY8KSFD9F2ILSQK"}
{"meta_move": "drag_end", "rt": "796.0", "trial_number": "4", "pre_actions": "1", "move": "7@27", "instance": "prb20888", "distance_to_goal": "NA", "progress": "NA", "move_number": "10", "optimal_length": "14", "subject": "A21S7MA9DCW95E:3X87C8JFV7JQ2BSCY8KSFD9F2ILSQK"}
{"meta_move": "drag_end", "rt": "1236.0", "trial_number": "4", "pre_actions": "1", "move": "6@20", "instance": "prb20888", "distance_to_goal": "NA", "progress": "NA", "move_number": "11", "optimal_length": "14", "subject": "A21S7MA9DCW95E:3X87C8JFV7JQ2BSCY8KSFD9F2ILSQK"}
{"meta_move": "drag_end", "rt": "1341.0", "trial_number": "4", "pre_actions": "1", "move": "r@13", "instance": "prb20888", "distance_to_goal": "NA", "progress": "NA", "move_number": "12", "optimal_length": "14", "subject": "A21S7MA9DCW95E:3X87C8JFV7JQ2BSCY8KSFD9F2ILSQK"}
{"meta_move": "drag_end", "rt": "3292.0", "trial_number": "5", "pre_actions": "1", "move": "6@2", "instance": "prb20888", "distance_to_goal": "NA", "progress": "NA", "move_number": "0", "optimal_length": "14", "subject": "A21S7MA9DCW95E:3X87C8JFV7JQ2BSCY8KSFD9F2ILSQK"}
{"meta_move": "drag_end", "rt": "1673.0", "trial_number": "5", "pre_actions": "1", "move": "7@25", "instance": "prb20888", "distance_to_goal": "NA", "progress": "NA", "move_number": "0", "optimal_length": "14", "subject": "A21S7MA9DCW95E:3X87C8JFV7JQ2BSCY8KSFD9F2ILSQK"}
{"meta_move": "drag_end", "rt": "1273.0", "trial_number": "5", "pre_actions": "1", "move": "6@8", "instance": "prb20888", "distance_to_goal": "NA", "progress": "NA", "move_number": "1", "optimal_length": "14", "subject": "A21S7MA9DCW95E:3X87C8JFV7JQ2BSCY8KSFD9F2ILSQK"}
{"meta_move": "drag_end", "rt": "3676.0", "trial_number": "5", "pre_actions": "1", "move": "2@9", "instance": "prb20888", "distance_to_goal": "NA", "progress": "NA", "move_number": "2", "optimal_length": "14", "subject": "A21S7MA9DCW95E:3X87C8JFV7JQ2BSCY8KSFD9F2ILSQK"}
{"meta_move": "drag_end", "rt": "2422.0", "trial_number": "5", "pre_actions": "1", "move": "7@26", "instance": "prb20888", "distance_to_goal": "NA", "progress": "NA", "move_number": "2", "optimal_length": "14", "subject": "A21S7MA9DCW95E:3X87C8JFV7JQ2BSCY8KSFD9F2ILSQK"}
{"meta_move": "drag_end", "rt": "1326.0", "trial_number": "5", "pre_actions": "1", "move": "4@17", "instance": "prb20888", "distance_to_goal": "NA", "progress": "NA", "move_number": "3", "optimal_length": "14", "subject": "A21S7MA9DCW95E:3X87C8JFV7JQ2BSCY8KSFD9F2ILSQK"}
{"meta_move": "drag_end", "rt": "1073.0", "trial_number": "5", "pre_actions": "1", "move": "7@27", "instance": "prb20888", "distance_to_goal": "NA", "progress": "NA", "move_number": "4", "optimal_length": "14", "subject": "A21S7MA9DCW95E:3X87C8JFV7JQ2BSCY8KSFD9F2ILSQK"}
{"meta_move": "drag_end", "rt": "1241.0", "trial_number": "5", "pre_actions": "1", "move": "6@8", "instance": "prb20888", "distance_to_goal": "NA", "progress": "NA", "move_number": "5", "optimal_length": "14", "subject": "A21S7MA9DCW95E:3X87C8JFV7JQ2BSCY8KSFD9F2ILSQK"}
{"meta_move": "drag_end", "rt": "793.0", "trial_number": "5", "pre_actions": "1", "move": "2@9", "instance": "prb20888", "distance_to_goal": "NA", "progress": "NA", "move_number": "5", "optimal_length": "14", "subject": "A21S7MA9DCW95E:3X87C8JFV7JQ2BSCY8KSFD9F2ILSQK"}
{"meta_move": "drag_end", "rt": "611.0", "trial_number": "5", "pre_actions": "1", "move": "7@25", "instance": "prb20888", "distance_to_goal": "NA", "progress": "NA", "move_number": "5", "optimal_length": "14", "subject": "A21S7MA9DCW95E:3X87C8JFV7JQ2BSCY8KSFD9F2ILSQK"}
{"meta_move": "drag_end", "rt": "831.0", "trial_number": "5", "pre_actions": "1", "move": "2@21", "instance": "prb20888", "distance_to_goal": "NA", "progress": "NA", "move_number": "6", "optimal_length": "14", "subject": "A21S7MA9DCW95E:3X87C8JFV7JQ2BSCY8KSFD9F2ILSQK"}
{"meta_move": "drag_end", "rt": "1016.0", "trial_number": "5", "pre_actions": "1", "move": "0@9", "instance": "prb20888", "distance_to_goal": "NA", "progress": "NA", "move_number": "7", "optimal_length": "14", "subject": "A21S7MA9DCW95E:3X87C8JFV7JQ2BSCY8KSFD9F2ILSQK"}
{"meta_move": "drag_end", "rt": "1098.0", "trial_number": "5", "pre_actions": "1", "move": "4@5", "instance": "prb20888", "distance_to_goal": "NA", "progress": "NA", "move_number": "8", "optimal_length": "14", "subject": "A21S7MA9DCW95E:3X87C8JFV7JQ2BSCY8KSFD9F2ILSQK"}
{"meta_move": "drag_end", "rt": "1646.0", "trial_number": "5", "pre_actions": "1", "move": "2@21", "instance": "prb20888", "distance_to_goal": "NA", "progress": "NA", "move_number": "9", "optimal_length": "14", "subject": "A21S7MA9DCW95E:3X87C8JFV7JQ2BSCY8KSFD9F2ILSQK"}
{"meta_move": "drag_end", "rt": "2152.0", "trial_number": "5", "pre_actions": "1", "move": "5@0", "instance": "prb20888", "distance_to_goal": "NA", "progress": "NA", "move_number": "9", "optimal_length": "14", "subject": "A21S7MA9DCW95E:3X87C8JFV7JQ2BSCY8KSFD9F2ILSQK"}
{"meta_move": "drag_end", "rt": "2024.0", "trial_number": "5", "pre_actions": "1", "move": "6@2", "instance": "prb20888", "distance_to_goal": "NA", "progress": "NA", "move_number": "10", "optimal_length": "14", "subject": "A21S7MA9DCW95E:3X87C8JFV7JQ2BSCY8KSFD9F2ILSQK"}
{"meta_move": "drag_end", "rt": "892.0", "trial_number": "5", "pre_actions": "1", "move": "2@15", "instance": "prb20888", "distance_to_goal": "NA", "progress": "NA", "move_number": "11", "optimal_length": "14", "subject": "A21S7MA9DCW95E:3X87C8JFV7JQ2BSCY8KSFD9F2ILSQK"}
{"meta_move": "drag_end", "rt": "2654.0", "trial_number": "5", "pre_actions": "1", "move": "1@19", "instance": "prb20888", "distance_to_goal": "NA", "progress": "NA", "move_number": "12", "optimal_length": "14", "subject": "A21S7MA9DCW95E:3X87C8JFV7JQ2BSCY8KSFD9F2ILSQK"}
{"meta_move": "drag_end", "rt": "970.0", "trial_number": "5", "pre_actions": "1", "move": "3@18", "instance": "prb20888", "distance_to_goal": "NA", "progress": "NA", "move_number": "13", "optimal_length": "14", "subject": "A21S7MA9DCW95E:3X87C8JFV7JQ2BSCY8KSFD9F2ILSQK"}
{"meta_move": "drag_end", "rt": "1470.0", "trial_number": "5", "pre_actions": "1", "move": "2@21", "instance": "prb20888", "distance_to_goal": "NA", "progress": "NA", "move_number": "14", "optimal_length": "14", "subject": "A21S7MA9DCW95E:3X87C8JFV7JQ2BSCY8KSFD9F2ILSQK"}
{"meta_move": "drag_end", "rt": "2079.0", "trial_number": "5", "pre_actions": "1", "move": "4@23", "instance": "prb20888", "distance_to_goal": "NA", "progress": "NA", "move_number": "15", "optimal_length": "14", "subject": "A21S7MA9DCW95E:3X87C8JFV7JQ2BSCY8KSFD9F2ILSQK"}
{"meta_move": "drag_end", "rt": "1488.0", "trial_number": "5", "pre_actions": "1", "move": "0@10", "instance": "prb20888", "distance_to_goal": "NA", "progress": "NA", "move_number": "16", "optimal_length": "14", "subject": "A21S7MA9DCW95E:3X87C8JFV7JQ2BSCY8KSFD9F2ILSQK"}
{"meta_move": "drag_end", "rt": "1089.0", "trial_number": "5", "pre_actions": "1", "move": "2@3", "instance": "prb20888", "distance_to_goal": "NA", "progress": "NA", "move_number": "17", "optimal_length": "14", "subject": "A21S7MA9DCW95E:3X87C8JFV7JQ2BSCY8KSFD9F2ILSQK"}
{"meta_move": "drag_end", "rt": "996.0", "trial_number": "5", "pre_actions": "1", "move": "1@21", "instance": "prb20888", "distance_to_goal": "NA", "progress": "NA", "move_number": "18", "optimal_length": "14", "subject": "A21S7MA9DCW95E:3X87C8JFV7JQ2BSCY8KSFD9F2ILSQK"}
{"meta_move": "drag_end", "rt": "899.0", "trial_number": "5", "pre_actions": "1", "move": "7@27", "instance": "prb20888", "distance_to_goal": "NA", "progress": "NA", "move_number": "19", "optimal_length": "14", "subject": "A21S7MA9DCW95E:3X87C8JFV7JQ2BSCY8KSFD9F2ILSQK"}
{"meta_move": "drag_end", "rt": "1884.0", "trial_number": "5", "pre_actions": "1", "move": "6@20", "instance": "prb20888", "distance_to_goal": "NA", "progress": "NA", "move_number": "20", "optimal_length": "14", "subject": "A21S7MA9DCW95E:3X87C8JFV7JQ2BSCY8KSFD9F2ILSQK"}
{"meta_move": "drag_end", "rt": "1569.0", "trial_number": "5", "pre_actions": "1", "move": "r@13", "instance": "prb20888", "distance_to_goal": "NA", "progress": "NA", "move_number": "21", "optimal_length": "14", "subject": "A21S7MA9DCW95E:3X87C8JFV7JQ2BSCY8KSFD9F2ILSQK"}
{"meta_move": "drag_end", "rt": "5012.0", "trial_number": "3", "pre_actions": "1", "move": "6@20", "instance": "prb20888", "distance_to_goal": "NA", "progress": "NA", "move_number": "0", "optimal_length": "14", "subject": "A23437BMZ5T1FH:3IHR8NYAM89M0EPM8U9LH53ZJDTP4U"}
{"meta_move": "drag_end", "rt": "584.0", "trial_number": "3", "pre_actions": "1", "move": "r@13", "instance": "prb20888", "distance_to_goal": "NA", "progress": "NA", "move_number": "1", "optimal_length": "14", "subject": "A23437BMZ5T1FH:3IHR8NYAM89M0EPM8U9LH53ZJDTP4U"}
{"meta_move": "drag_end", "rt": "574.0", "trial_number": "3", "pre_actions": "1", "move": "5@0", "instance": "prb20888", "distance_to_goal": "NA", "progress": "NA", "move_number": "2", "optimal_length": "14", "subject": "A23437BMZ5T1FH:3IHR8NYAM89M0EPM8U9LH53ZJDTP4U"}
{"meta_move": "drag_end", "rt": "895.0", "trial_number": "3", "pre_actions": "1", "move": "2@3", "instance": "prb20888", "distance_to_goal": "NA", "progress": "NA", "move_number": "3", "optimal_length": "14", "subject": "A23437BMZ5T1FH:3IHR8NYAM89M0EPM8U9LH53ZJDTP4U"}
{"meta_move": "drag_end", "rt": "1122.0", "trial_number": "3", "pre_actions": "1", "move": "4@17", "instance": "prb20888", "distance_to_goal": "NA", "progress": "NA", "move_number": "4", "optimal_length": "14", "subject": "A23437BMZ5T1FH:3IHR8NYAM89M0EPM8U9LH53ZJDTP4U"}
{"meta_move": "drag_end", "rt": "1173.0", "trial_number": "3", "pre_actions": "1", "move": "r@12", "instance": "prb20888", "distance_to_goal": "NA", "progress": "NA", "move_number": "5", "optimal_length": "14", "subject": "A23437BMZ5T1FH:3IHR8NYAM89M0EPM8U9LH53ZJDTP4U"}
{"meta_move": "drag_end", "rt": "674.0", "trial_number": "3", "pre_actions": "1", "move": "2@9", "instance": "prb20888", "distance_to_goal": "NA", "progress": "NA", "move_number": "6", "optimal_length": "14", "subject": "A23437BMZ5T1FH:3IHR8NYAM89M0EPM8U9LH53ZJDTP4U"}
{"meta_move": "drag_end", "rt": "2289.0", "trial_number": "3", "pre_actions": "1", "move": "5@0", "instance": "prb20888", "distance_to_goal": "NA", "progress": "NA", "move_number": "7", "optimal_length": "14", "subject": "A23437BMZ5T1FH:3IHR8NYAM89M0EPM8U9LH53ZJDTP4U"}
{"meta_move": "drag_end", "rt": "1088.0", "trial_number": "3", "pre_actions": "1", "move": "5@3", "instance": "prb20888", "distance_to_goal": "NA", "progress": "NA", "move_number": "7", "optimal_length": "14", "subject": "A23437BMZ5T1FH:3IHR8NYAM89M0EPM8U9LH53ZJDTP4U"}
{"meta_move": "drag_end", "rt": "1390.0", "trial_number": "3", "pre_actions": "1", "move": "6@2", "instance": "prb20888", "distance_to_goal": "NA", "progress": "NA", "move_number": "8", "optimal_length": "14", "subject": "A23437BMZ5T1FH:3IHR8NYAM89M0EPM8U9LH53ZJDTP4U"}
{"meta_move": "drag_end", "rt": "714.0", "trial_number": "3", "pre_actions": "1", "move": "1@19", "instance": "prb20888", "distance_to_goal": "NA", "progress": "NA", "move_number": "9", "optimal_length": "14", "subject": "A23437BMZ5T1FH:3IHR8NYAM89M0EPM8U9LH53ZJDTP4U"}
{"meta_move": "drag_end", "rt": "1335.0", "trial_number": "3", "pre_actions": "1", "move": "7@25", "instance": "prb20888", "distance_to_goal": "NA", "progress": "NA", "move_number": "10", "optimal_length": "14", "subject": "A23437BMZ5T1FH:3IHR8NYAM89M0EPM8U9LH53ZJDTP4U"}
{"meta_move": "drag_end", "rt": "792.0", "trial_number": "3", "pre_actions": "1", "move": "2@21", "instance": "prb20888", "distance_to_goal": "NA", "progress": "NA", "move_number": "11", "optimal_length": "14", "subject": "A23437BMZ5T1FH:3IHR8NYAM89M0EPM8U9LH53ZJDTP4U"}
{"meta_move": "drag_end", "rt": "1640.0", "trial_number": "3", "pre_actions": "1", "move": "4@23", "instance": "prb20888", "distance_to_goal": "NA", "progress": "NA", "move_number": "12", "optimal_length": "14", "subject": "A23437BMZ5T1FH:3IHR8NYAM89M0EPM8U9LH53ZJDTP4U"}
{"meta_move": "drag_end", "rt": "730.0", "trial_number": "3", "pre_actions": "1", "move": "5@4", "instance": "prb20888", "distance_to_goal": "NA", "progress": "NA", "move_number": "13", "optimal_length": "14", "subject": "A23437BMZ5T1FH:3IHR8NYAM89M0EPM8U9LH53ZJDTP4U"}
{"meta_move": "drag_end", "rt": "1006.0", "trial_number": "3", "pre_actions": "1", "move": "2@3", "instance": "prb20888", "distance_to_goal": "NA", "progress": "NA", "move_number": "14", "optimal_length": "14", "subject": "A23437BMZ5T1FH:3IHR8NYAM89M0EPM8U9LH53ZJDTP4U"}
{"meta_move": "drag_end", "rt": "728.0", "trial_number": "3", "pre_actions": "1", "move": "1@21", "instance": "prb20888", "distance_to_goal": "NA", "progress": "NA", "move_number": "15", "optimal_length": "14", "subject": "A23437BMZ5T1FH:3IHR8NYAM89M0EPM8U9LH53ZJDTP4U"}
{"meta_move": "drag_end", "rt": "816.0", "trial_number": "3", "pre_actions": "1", "move": "7@27", "instance": "prb20888", "distance_to_goal": "NA", "progress": "NA", "move_number": "16", "optimal_length": "14", "subject": "A23437BMZ5T1FH:3IHR8NYAM89M0EPM8U9LH53ZJDTP4U"}
{"meta_move": "drag_end", "rt": "816.0", "trial_number": "3", "pre_actions": "1", "move": "6@20", "instance": "prb20888", "distance_to_goal": "NA", "progress": "NA", "move_number": "17", "optimal_length": "14", "subject": "A23437BMZ5T1FH:3IHR8NYAM89M0EPM8U9LH53ZJDTP4U"}
{"meta_move": "drag_end", "rt": "2640.0", "trial_number": "3", "pre_actions": "1", "move": "r@13", "instance": "prb20888", "distance_to_goal": "NA", "progress": "NA", "move_number": "18", "optimal_length": "14", "subject": "A23437BMZ5T1FH:3IHR8NYAM89M0EPM8U9LH53ZJDTP4U"}
