{"meta_move": "drag_end", "rt": "33492.0", "trial_number": "1", "pre_actions": "1", "move": "5@27", "instance": "prb28111", "distance_to_goal": "NA", "progress": "NA", "move_number": "0", "optimal_length": "7", "subject": "A15FXHC1CVNW31:3TS1AR6UQRM7SOIBWPBN8N9589Y7FV"}
{"meta_move": "drag_end", "rt": "2644.0", "trial_number": "1", "pre_actions": "1", "move": "3@6", "instance": "prb28111", "distance_to_goal": "NA", "progress": "NA", "move_number": "1", "optimal_length": "7", "subject": "A15FXHC1CVNW31:3TS1AR6UQRM7SOIBWPBN8N9589Y7FV"}
{"meta_move": "drag_end", "rt": "464.0", "trial_number": "1", "pre_actions": "1", "move": "r@15", "instance": "prb28111", "distance_to_goal": "NA", "progress": "NA", "move_number": "1", "optimal_length": "7", "subject": "A15FXHC1CVNW31:3TS1AR6UQRM7SOIBWPBN8N9589Y7FV"}
{"meta_move": "drag_end", "rt": "1229.0", "trial_number": "1", "pre_actions": "1", "move": "1@2", "instance": "prb28111", "distance_to_goal": "NA", "progress": "NA", "move_number": "2", "optimal_length": "7", "subject": "A15FXHC1CVNW31:3TS1AR6UQRM7SOIBWPBN8N9589Y7FV"}
{"meta_move": "drag_end", "rt": "789.0", "trial_number": "1", "pre_actions": "1", "move": "6@20", "instance": "prb28111", "distance_to_goal": "NA", "progress": "NA", "move_number": "3", "optimal_length": "7", "subject": "A15FXHC1CVNW31:3TS1AR6UQRM7SOIBWPBN8N9589Y7FV"}
{"meta_move": "drag_end", "rt": "645.0", "trial_number": "1", "pre_actions": "1", "move": "7@23", "instance": "prb28111", "distance_to_goal": "NA", "progress": "NA", "move_number": "4", "optimal_length": "7", "subject": "A15FXHC1CVNW31:3TS1AR6UQRM7SOIBWPBN8N9589Y7FV"}
{"meta_move": "win", "rt": "536.0", "trial_number": "1", "pre_actions": "1", "move": "r@15", "instance": "prb28111", "distance_to_goal": "1", "progress": "NA", "move_number": "5", "optimal_length": "7", "subject": "A15FXHC1CVNW31:3TS1AR6UQRM7SOIBWPBN8N9589Y7FV"}
{"meta_move": "drag_end", "rt": "70.0", "trial_number": "0", "pre_actions": "0", "move": "r@16", "instance": "prb28111", "distance_to_goal": "NA", "progress": "NA", "move_number": "5", "optimal_length": "7", "subject": "A15FXHC1CVNW31:3TS1AR6UQRM7SOIBWPBN8N9589Y7FV"}
{"meta_move": "drag_end", "rt": "36248.0", "trial_number": "1", "pre_actions": "1", "move": "4@33", "instance": "prb28111", "distance_to_goal": "NA", "progress": "NA", "move_number": "0", "optimal_length": "7", "subject": "A18QU0YQB6Q8DF:3VE8AYVF8N5BS2NU6U3TMN50JMNF8V"}
{"meta_move": "drag_end", "rt": "918.0", "trial_number": "1", "pre_actions": "1", "move": "1@26", "instance": "prb28111", "distance_to_goal": "NA", "progress": "NA", "move_number": "1", "optimal_length": "7", "subject": "A18QU0YQB6Q8DF:3VE8AYVF8N5BS2NU6U3TMN50JMNF8V"}
{"meta_move": "drag_end", "rt": "2713.0", "trial_number": "1", "pre_actions": "1", "move": "2@19", "instance": "prb28111", "distance_to_goal": "NA", "progress": "NA", "move_number": "2", "optimal_length": "7", "subject": "A18QU0YQB6Q8DF:3VE8AYVF8N5BS2NU6U3TMN50JMNF8V"}
{"meta_move": "drag_end", "rt": "1338.0", "trial_number": "1", "pre_actions": "1", "move": "3@0", "instance": "prb28111", "distance_to_goal": "NA", "progress": "NA", "move_number": "3", "optimal_length": "7", "subject": "A18QU0YQB6Q8DF:3VE8AYVF8N5BS2NU6U3TMN50JMNF8V"}
{"meta_move": "drag_end", "rt": "1781.0", "trial_number": "1", "pre_actions": "1", "move": "2@18", "instance": "prb28111", "distance_to_goal": "NA", "progress": "NA", "move_number": "4", "optimal_length": "7", "subject": "A18QU0YQB6Q8DF:3VE8AYVF8N5BS2NU6U3TMN50JMNF8V"}
{"meta_move": "drag_end", "rt": "741.0", "trial_number": "1", "pre_actions": "1", "move": "2@18", "instance": "prb28111", "distance_to_goal": "NA", "progress": "NA", "move_number": "5", "optimal_length": "7", "subject": "A18QU0YQB6Q8DF:3VE8AYVF8N5BS2NU6U3TMN50JMNF8V"}
{"meta_move": "drag_end", "rt": "740.0", "trial_number": "1", "pre_actions": "1", "move": "2@18", "instance": "prb28111", "distance_to_goal": "NA", "progress": "NA", "move_number": "5", "optimal_length": "7", "subject": "A18QU0YQB6Q8DF:3VE8AYVF8N5BS2NU6U3TMN50JMNF8V"}
{"meta_move": "drag_end", "rt": "1959.0", "trial_number": "1", "pre_actions": "1", "move": "1@20", "instance": "prb28111", "distance_to_goal": "NA", "progress": "NA", "move_number": "5", "optimal_length": "7", "subject": "A18QU0YQB6Q8DF:3VE8AYVF8N5BS2NU6U3TMN50JMNF8V"}
{"meta_move": "drag_end", "rt": "1346.0", "trial_number": "1", "pre_actions": "1", "move": "4@30", "instance": "prb28111", "distance_to_goal": "NA", "progress": "NA", "move_number": "6", "optimal_length": "7", "subject": "A18QU0YQB6Q8DF:3VE8AYVF8N5BS2NU6U3TMN50JMNF8V"}
{"meta_move": "drag_end", "rt": "1626.0", "trial_number": "1", "pre_actions": "1", "move": "r@15", "instance": "prb28111", "distance_to_goal": "NA", "progress": "NA", "move_number": "7", "optimal_length": "7", "subject": "A18QU0YQB6Q8DF:3VE8AYVF8N5BS2NU6U3TMN50JMNF8V"}
{"meta_move": "drag_end", "rt": "1159.0", "trial_number": "1", "pre_actions": "1", "move": "1@2", "instance": "prb28111", "distance_to_goal": "NA", "progress": "NA", "move_number": "8", "optimal_length": "7", "subject": "A18QU0YQB6Q8DF:3VE8AYVF8N5BS2NU6U3TMN50JMNF8V"}
{"meta_move": "drag_end", "rt": "1596.0", "trial_number": "1", "pre_actions": "1", "move": "5@24", "instance": "prb28111", "distance_to_goal": "NA", "progress": "NA", "move_number": "9", "optimal_length": "7", "subject": "A18QU0YQB6Q8DF:3VE8AYVF8N5BS2NU6U3TMN50JMNF8V"}
{"meta_move": "drag_end", "rt": "4419.0", "trial_number": "1", "pre_actions": "1", "move": "r@13", "instance": "prb28111", "distance_to_goal": "NA", "progress": "NA", "move_number": "10", "optimal_length": "7", "subject": "A18QU0YQB6Q8DF:3VE8AYVF8N5BS2NU6U3TMN50JMNF8V"}
{"meta_move": "drag_end", "rt": "1081.0", "trial_number": "1", "pre_actions": "1", "move": "6@20", "instance": "prb28111", "distance_to_goal": "NA", "progress": "NA", "move_number": "11", "optimal_length": "7", "subject": "A18QU0YQB6Q8DF:3VE8AYVF8N5BS2NU6U3TMN50JMNF8V"}
{"meta_move": "drag_end", "rt": "1625.0", "trial_number": "1", "pre_actions": "1", "move": "7@23", "instance": "prb28111", "distance_to_goal": "NA", "progress": "NA", "move_number": "12", "optimal_length": "7", "subject": "A18QU0YQB6Q8DF:3VE8AYVF8N5BS2NU6U3TMN50JMNF8V"}
{"meta_move": "win", "rt": "1157.0", "trial_number": "1", "pre_actions": "1", "move": "r@13", "instance": "prb28111", "distance_to_goal": "1", "progress": "NA", "move_number": "13", "optimal_length": "7", "subject": "A18QU0YQB6Q8DF:3VE8AYVF8N5BS2NU6U3TMN50JMNF8V"}
{"meta_move": "drag_end", "rt": "307.0", "trial_number": "0", "pre_actions": "0", "move": "r@16", "instance": "prb28111", "distance_to_goal": "NA", "progress": "NA", "move_number": "13", "optimal_length": "7", "subject": "A18QU0YQB6Q8DF:3VE8AYVF8N5BS2NU6U3TMN50JMNF8V"}
{"meta_move": "drag_end", "rt": "4765.0", "trial_number": "1", "pre_actions": "1", "move": "r@15", "instance": "prb28111", "distance_to_goal": "NA", "progress": "NA", "move_number": "0", "optimal_length": "7", "subject": "A191V7PT3DQKDP:3PMBY0YE28B43VMUKKJ6EDF85RV9C8"}
{"meta_move": "drag_end", "rt": "712.0", "trial_number": "1", "pre_actions": "1", "move": "1@2", "instance": "prb28111", "distance_to_goal": "NA", "progress": "NA", "move_number": "1", "optimal_length": "7", "subject": "A191V7PT3DQKDP:3PMBY0YE28B43VMUKKJ6EDF85RV9C8"}
{"meta_move": "drag_end", "rt": "744.0", "trial_number": "1", "pre_actions": "1", "move": "6@20", "instance": "prb28111", "distance_to_goal": "NA", "progress": "NA", "move_number": "2", "optimal_length": "7", "subject": "A191V7PT3DQKDP:3PMBY0YE28B43VMUKKJ6EDF85RV9C8"}
{"meta_move": "drag_end", "rt": "545.0", "trial_number": "1", "pre_actions": "1", "move": "5@25", "instance": "prb28111", "distance_to_goal": "NA", "progress": "NA", "move_number": "3", "optimal_length": "7", "subject": "A191V7PT3DQKDP:3PMBY0YE28B43VMUKKJ6EDF85RV9C8"}
{"meta_move": "drag_end", "rt": "599.0", "trial_number": "1", "pre_actions": "1", "move": "7@23", "instance": "prb28111", "distance_to_goal": "NA", "progress": "NA", "move_number": "4", "optimal_length": "7", "subject": "A191V7PT3DQKDP:3PMBY0YE28B43VMUKKJ6EDF85RV9C8"}
{"meta_move": "win", "rt": "480.0", "trial_number": "1", "pre_actions": "1", "move": "r@15", "instance": "prb28111", "distance_to_goal": "1", "progress": "NA", "move_number": "5", "optimal_length": "7", "subject": "A191V7PT3DQKDP:3PMBY0YE28B43VMUKKJ6EDF85RV9C8"}
{"meta_move": "drag_end", "rt": "48.0", "trial_number": "0", "pre_actions": "0", "move": "r@16", "instance": "prb28111", "distance_to_goal": "NA", "progress": "NA", "move_number": "5", "optimal_length": "7", "subject": "A191V7PT3DQKDP:3PMBY0YE28B43VMUKKJ6EDF85RV9C8"}
{"meta_move": "drag_end", "rt": "2051.0", "trial_number": "1", "pre_actions": "1", "move": "3@0", "instance": "prb28111", "distance_to_goal": "NA", "progress": "NA", "move_number": "0", "optimal_length": "7", "subject": "A1F4N58CAX8IMK:3TS1AR6UQRM7SOIBWPBN8N9589Y7FV"}
{"meta_move": "drag_end", "rt": "3048.0", "trial_number": "1", "pre_actions": "1", "move": "r@12", "instance": "prb28111", "distance_to_goal": "NA", "progress": "NA", "move_number": "1", "optimal_length": "7", "subject": "A1F4N58CAX8IMK:3TS1AR6UQRM7SOIBWPBN8N9589Y7FV"}
{"meta_move": "drag_end", "rt": "2472.0", "trial_number": "1", "pre_actions": "1", "move": "7@5", "instance": "prb28111", "distance_to_goal": "NA", "progress": "NA", "move_number": "2", "optimal_length": "7", "subject": "A1F4N58CAX8IMK:3TS1AR6UQRM7SOIBWPBN8N9589Y7FV"}
{"meta_move": "drag_end", "rt": "1248.0", "trial_number": "1", "pre_actions": "1", "move": "1@2", "instance": "prb28111", "distance_to_goal": "NA", "progress": "NA", "move_number": "2", "optimal_length": "7", "subject": "A1F4N58CAX8IMK:3TS1AR6UQRM7SOIBWPBN8N9589Y7FV"}
{"meta_move": "drag_end", "rt": "1144.0", "trial_number": "1", "pre_actions": "1", "move": "6@20", "instance": "prb28111", "distance_to_goal": "NA", "progress": "NA", "move_number": "3", "optimal_length": "7", "subject": "A1F4N58CAX8IMK:3TS1AR6UQRM7SOIBWPBN8N9589Y7FV"}
{"meta_move": "drag_end", "rt": "1104.0", "trial_number": "1", "pre_actions": "1", "move": "5@24", "instance": "prb28111", "distance_to_goal": "NA", "progress": "NA", "move_number": "4", "optimal_length": "7", "subject": "A1F4N58CAX8IMK:3TS1AR6UQRM7SOIBWPBN8N9589Y7FV"}
{"meta_move": "drag_end", "rt": "1552.0", "trial_number": "1", "pre_actions": "1", "move": "7@23", "instance": "prb28111", "distance_to_goal": "NA", "progress": "NA", "move_number": "5", "optimal_length": "7", "subject": "A1F4N58CAX8IMK:3TS1AR6UQRM7SOIBWPBN8N9589Y7FV"}
{"meta_move": "win", "rt": "683.0", "trial_number": "1", "pre_actions": "1", "move": "r@12", "instance": "prb28111", "distance_to_goal": "1", "progress": "NA", "move_number": "6", "optimal_length": "7", "subject": "A1F4N58CAX8IMK:3TS1AR6UQRM7SOIBWPBN8N9589Y7FV"}
{"meta_move": "drag_end", "rt": "165.0", "trial_number": "0", "pre_actions": "0", "move": "r@16", "instance": "prb28111", "distance_to_goal": "NA", "progress": "NA", "move_number": "6", "optimal_length": "7", "subject": "A1F4N58CAX8IMK:3TS1AR6UQRM7SOIBWPBN8N9589Y7FV"}
{"meta_move": "drag_end", "rt": "2607.0", "trial_number": "1", "pre_actions": "1", "move": "r@15", "instance": "prb28111", "distance_to_goal": "NA", "progress": "NA", "move_number": "0", "optimal_length": "7", "subject": "A1LR0VQIHQUJAM:3YW4XOSQKRTI0K0Z2YPDTDJVFABU1I"}
{"meta_move": "drag_end", "rt": "591.0", "trial_number": "1", "pre_actions": "1", "move": "1@2", "instance": "prb28111", "distance_to_goal": "NA", "progress": "NA", "move_number": "1", "optimal_length": "7", "subject": "A1LR0VQIHQUJAM:3YW4XOSQKRTI0K0Z2YPDTDJVFABU1I"}
{"meta_move": "drag_end", "rt": "4583.0", "trial_number": "1", "pre_actions": "1", "move": "6@20", "instance": "prb28111", "distance_to_goal": "NA", "progress": "NA", "move_number": "2", "optimal_length": "7", "subject": "A1LR0VQIHQUJAM:3YW4XOSQKRTI0K0Z2YPDTDJVFABU1I"}
{"meta_move": "drag_end", "rt": "466.0", "trial_number": "1", "pre_actions": "1", "move": "5@26", "instance": "prb28111", "distance_to_goal": "NA", "progress": "NA", "move_number": "3", "optimal_length": "7", "subject": "A1LR0VQIHQUJAM:3YW4XOSQKRTI0K0Z2YPDTDJVFABU1I"}
{"meta_move": "drag_end", "rt": "600.0", "trial_number": "1", "pre_actions": "1", "move": "7@23", "instance": "prb28111", "distance_to_goal": "NA", "progress": "NA", "move_number": "4", "optimal_length": "7", "subject": "A1LR0VQIHQUJAM:3YW4XOSQKRTI0K0Z2YPDTDJVFABU1I"}
{"meta_move": "win", "rt": "533.0", "trial_number": "1", "pre_actions": "1", "move": "r@15", "instance": "prb28111", "distance_to_goal": "1", "progress": "NA", "move_number": "5", "optimal_length": "7", "subject": "A1LR0VQIHQUJAM:3YW4XOSQKRTI0K0Z2YPDTDJVFABU1I"}
{"meta_move": "drag_end", "rt": "72.0", "trial_number": "0", "pre_actions": "0", "move": "r@16", "instance": "prb28111", "distance_to_goal": "NA", "progress": "NA", "move_number": "5", "optimal_length": "7", "subject": "A1LR0VQIHQUJAM:3YW4XOSQKRTI0K0Z2YPDTDJVFABU1I"}
{"meta_move": "drag_end", "rt": "3695.0", "trial_number": "1", "pre_actions": "1", "move": "r@15", "instance": "prb28111", "distance_to_goal": "NA", "progress": "NA", "move_number": "0", "optimal_length": "7", "subject": "A214HWAW1PYWO8:34BBWHLWHBJ6SUL255PK30LEGY5IWG"}
{"meta_move": "drag_end", "rt": "466.0", "trial_number": "1", "pre_actions": "1", "move": "1@2", "instance": "prb28111", "distance_to_goal": "NA", "progress": "NA", "move_number": "1", "optimal_length": "7", "subject": "A214HWAW1PYWO8:34BBWHLWHBJ6SUL255PK30LEGY5IWG"}
{"meta_move": "drag_end", "rt": "727.0", "trial_number": "1", "pre_actions": "1", "move": "6@20", "instance": "prb28111", "distance_to_goal": "NA", "progress": "NA", "move_number": "2", "optimal_length": "7", "subject": "A214HWAW1PYWO8:34BBWHLWHBJ6SUL255PK30LEGY5IWG"}
{"meta_move": "drag_end", "rt": "874.0", "trial_number": "1", "pre_actions": "1", "move": "r@14", "instance": "prb28111", "distance_to_goal": "NA", "progress": "NA", "move_number": "3", "optimal_length": "7", "subject": "A214HWAW1PYWO8:34BBWHLWHBJ6SUL255PK30LEGY5IWG"}
{"meta_move": "drag_end", "rt": "519.0", "trial_number": "1", "pre_actions": "1", "move": "5@24", "instance": "prb28111", "distance_to_goal": "NA", "progress": "NA", "move_number": "4", "optimal_length": "7", "subject": "A214HWAW1PYWO8:34BBWHLWHBJ6SUL255PK30LEGY5IWG"}
{"meta_move": "drag_end", "rt": "661.0", "trial_number": "1", "pre_actions": "1", "move": "7@23", "instance": "prb28111", "distance_to_goal": "NA", "progress": "NA", "move_number": "5", "optimal_length": "7", "subject": "A214HWAW1PYWO8:34BBWHLWHBJ6SUL255PK30LEGY5IWG"}
{"meta_move": "win", "rt": "399.0", "trial_number": "1", "pre_actions": "1", "move": "r@14", "instance": "prb28111", "distance_to_goal": "1", "progress": "NA", "move_number": "6", "optimal_length": "7", "subject": "A214HWAW1PYWO8:34BBWHLWHBJ6SUL255PK30LEGY5IWG"}
{"meta_move": "drag_end", "rt": "38.0", "trial_number": "0", "pre_actions": "0", "move": "r@16", "instance": "prb28111", "distance_to_goal": "NA", "progress": "NA", "move_number": "6", "optimal_length": "7", "subject": "A214HWAW1PYWO8:34BBWHLWHBJ6SUL255PK30LEGY5IWG"}
{"meta_move": "drag_end", "rt": "4064.0", "trial_number": "1", "pre_actions": "1", "move": "r@13", "instance": "prb28111", "distance_to_goal": "NA", "progress": "NA", "move_number": "0", "optimal_length": "7", "subject": "A23437BMZ5T1FH:3IHR8NYAM89M0EPM8U9LH53ZJDTP4U"}
{"meta_move": "drag_end", "rt": "1550.0", "trial_number": "1", "pre_actions": "1", "move": "r@15", "instance": "prb28111", "distance_to_goal": "NA", "progress": "NA", "move_number": "1", "optimal_length": "7", "subject": "A23437BMZ5T1FH:3IHR8NYAM89M0EPM8U9LH53ZJDTP4U"}
{"meta_move": "drag_end", "rt": "611.0", "trial_number": "1", "pre_actions": "1", "move": "3@0", "instance": "prb28111", "distance_to_goal": "NA", "progress": "NA", "move_number": "2", "optimal_length": "7", "subject": "A23437BMZ5T1FH:3IHR8NYAM89M0EPM8U9LH53ZJDTP4U"}
{"meta_move": "drag_end", "rt": "764.0", "trial_number": "1", "pre_actions": "1", "move": "r@12", "instance": "prb28111", "distance_to_goal": "NA", "progress": "NA", "move_number": "3", "optimal_length": "7", "subject": "A23437BMZ5T1FH:3IHR8NYAM89M0EPM8U9LH53ZJDTP4U"}
{"meta_move": "drag_end", "rt": "746.0", "trial_number": "1", "pre_actions": "1", "move": "1@2", "instance": "prb28111", "distance_to_goal": "NA", "progress": "NA", "move_number": "4", "optimal_length": "7", "subject": "A23437BMZ5T1FH:3IHR8NYAM89M0EPM8U9LH53ZJDTP4U"}
{"meta_move": "drag_end", "rt": "1259.0", "trial_number": "1", "pre_actions": "1", "move": "5@24", "instance": "prb28111", "distance_to_goal": "NA", "progress": "NA", "move_number": "5", "optimal_length": "7", "subject": "A23437BMZ5T1FH:3IHR8NYAM89M0EPM8U9LH53ZJDTP4U"}
{"meta_move": "drag_end", "rt": "2494.0", "trial_number": "1", "pre_actions": "1", "move": "6@20", "instance": "prb28111", "distance_to_goal": "NA", "progress": "NA", "move_number": "6", "optimal_length": "7", "subject": "A23437BMZ5T1FH:3IHR8NYAM89M0EPM8U9LH53ZJDTP4U"}
{"meta_move": "drag_end", "rt": "835.0", "trial_number": "1", "pre_actions": "1", "move": "7@23", "instance": "prb28111", "distance_to_goal": "NA", "progress": "NA", "move_number": "7", "optimal_length": "7", "subject": "A23437BMZ5T1FH:3IHR8NYAM89M0EPM8U9LH53ZJDTP4U"}
{"meta_move": "win", "rt": "650.0", "trial_number": "1", "pre_actions": "1", "move": "r@12", "instance": "prb28111", "distance_to_goal": "1", "progress": "NA", "move_number": "8", "optimal_length": "7", "subject": "A23437BMZ5T1FH:3IHR8NYAM89M0EPM8U9LH53ZJDTP4U"}
{"meta_move": "drag_end", "rt": "84.0", "trial_number": "0", "pre_actions": "0", "move": "r@16", "instance": "prb28111", "distance_to_goal": "NA", "progress": "NA", "move_number": "8", "optimal_length": "7", "subject": "A23437BMZ5T1FH:3IHR8NYAM89M0EPM8U9LH53ZJDTP4U"}
{"meta_move": "drag_end", "rt": "2230.0", "trial_number": "1", "pre_actions": "1", "move": "3@0", "instance": "prb28111", "distance_to_goal": "NA", "progress": "NA", "move_number": "0", "optimal_length": "7", "subject": "A2IBQA01NR5N76:3X4MXAO0BHWJLTOLVSJTHSM54OHWRG"}
{"meta_move": "drag_end", "rt": "1653.0", "trial_number": "1", "pre_actions": "1", "move": "r@12", "instance": "prb28111", "distance_to_goal": "NA", "progress": "NA", "move_number": "1", "optimal_length": "7", "subject": "A2IBQA01NR5N76:3X4MXAO0BHWJLTOLVSJTHSM54OHWRG"}
{"meta_move": "drag_end", "rt": "850.0", "trial_number": "1", "pre_actions": "1", "move": "1@2", "instance": "prb28111", "distance_to_goal": "NA", "progress": "NA", "move_number": "2", "optimal_length": "7", "subject": "A2IBQA01NR5N76:3X4MXAO0BHWJLTOLVSJTHSM54OHWRG"}
{"meta_move": "drag_end", "rt": "2351.0", "trial_number": "1", "pre_actions": "1", "move": "4@33", "instance": "prb28111", "distance_to_goal": "NA", "progress": "NA", "move_number": "3", "optimal_length": "7", "subject": "A2IBQA01NR5N76:3X4MXAO0BHWJLTOLVSJTHSM54OHWRG"}
{"meta_move": "drag_end", "rt": "1053.0", "trial_number": "1", "pre_actions": "1", "move": "1@26", "instance": "prb28111", "distance_to_goal": "NA", "progress": "NA", "move_number": "4", "optimal_length": "7", "subject": "A2IBQA01NR5N76:3X4MXAO0BHWJLTOLVSJTHSM54OHWRG"}
{"meta_move": "drag_end", "rt": "1553.0", "trial_number": "1", "pre_actions": "1", "move": "6@21", "instance": "prb28111", "distance_to_goal": "NA", "progress": "NA", "move_number": "5", "optimal_length": "7", "subject": "A2IBQA01NR5N76:3X4MXAO0BHWJLTOLVSJTHSM54OHWRG"}
{"meta_move": "drag_end", "rt": "1502.0", "trial_number": "1", "pre_actions": "1", "move": "1@2", "instance": "prb28111", "distance_to_goal": "NA", "progress": "NA", "move_number": "5", "optimal_length": "7", "subject": "A2IBQA01NR5N76:3X4MXAO0BHWJLTOLVSJTHSM54OHWRG"}
{"meta_move": "drag_end", "rt": "1214.0", "trial_number": "1", "pre_actions": "1", "move": "2@18", "instance": "prb28111", "distance_to_goal": "NA", "progress": "NA", "move_number": "6", "optimal_length": "7", "subject": "A2IBQA01NR5N76:3X4MXAO0BHWJLTOLVSJTHSM54OHWRG"}
{"meta_move": "drag_end", "rt": "664.0", "trial_number": "1", "pre_actions": "1", "move": "6@20", "instance": "prb28111", "distance_to_goal": "NA", "progress": "NA", "move_number": "6", "optimal_length": "7", "subject": "A2IBQA01NR5N76:3X4MXAO0BHWJLTOLVSJTHSM54OHWRG"}
{"meta_move": "drag_end", "rt": "810.0", "trial_number": "1", "pre_actions": "1", "move": "5@24", "instance": "prb28111", "distance_to_goal": "NA", "progress": "NA", "move_number": "7", "optimal_length": "7", "subject": "A2IBQA01NR5N76:3X4MXAO0BHWJLTOLVSJTHSM54OHWRG"}
{"meta_move": "drag_end", "rt": "757.0", "trial_number": "1", "pre_actions": "1", "move": "4@30", "instance": "prb28111", "distance_to_goal": "NA", "progress": "NA", "move_number": "8", "optimal_length": "7", "subject": "A2IBQA01NR5N76:3X4MXAO0BHWJLTOLVSJTHSM54OHWRG"}
{"meta_move": "drag_end", "rt": "1781.0", "trial_number": "1", "pre_actions": "1", "move": "7@23", "instance": "prb28111", "distance_to_goal": "NA", "progress": "NA", "move_number": "9", "optimal_length": "7", "subject": "A2IBQA01NR5N76:3X4MXAO0BHWJLTOLVSJTHSM54OHWRG"}
{"meta_move": "win", "rt": "588.0", "trial_number": "1", "pre_actions": "1", "move": "r@12", "instance": "prb28111", "distance_to_goal": "1", "progress": "NA", "move_number": "10", "optimal_length": "7", "subject": "A2IBQA01NR5N76:3X4MXAO0BHWJLTOLVSJTHSM54OHWRG"}
{"meta_move": "drag_end", "rt": "1909.0", "trial_number": "0", "pre_actions": "0", "move": "r@16", "instance": "prb28111", "distance_to_goal": "NA", "progress": "NA", "move_number": "10", "optimal_length": "7", "subject": "A2IBQA01NR5N76:3X4MXAO0BHWJLTOLVSJTHSM54OHWRG"}
{"meta_move": "drag_end", "rt": "2033.0", "trial_number": "1", "pre_actions": "1", "move": "r@15", "instance": "prb28111", "distance_to_goal": "NA", "progress": "NA", "move_number": "0", "optimal_length": "7", "subject": "A2TQNX64349OZ9:3WSELTNVR4AZUVYAYCSWZIQW0J4ATB"}
{"meta_move": "drag_end", "rt": "1335.0", "trial_number": "1", "pre_actions": "1", "move": "1@2", "instance": "prb28111", "distance_to_goal": "NA", "progress": "NA", "move_number": "1", "optimal_length": "7", "subject": "A2TQNX64349OZ9:3WSELTNVR4AZUVYAYCSWZIQW0J4ATB"}
{"meta_move": "drag_end", "rt": "1773.0", "trial_number": "1", "pre_actions": "1", "move": "3@0", "instance": "prb28111", "distance_to_goal": "NA", "progress": "NA", "move_number": "2", "optimal_length": "7", "subject": "A2TQNX64349OZ9:3WSELTNVR4AZUVYAYCSWZIQW0J4ATB"}
{"meta_move": "drag_end", "rt": "1698.0", "trial_number": "1", "pre_actions": "1", "move": "6@20", "instance": "prb28111", "distance_to_goal": "NA", "progress": "NA", "move_number": "3", "optimal_length": "7", "subject": "A2TQNX64349OZ9:3WSELTNVR4AZUVYAYCSWZIQW0J4ATB"}
{"meta_move": "drag_end", "rt": "1178.0", "trial_number": "1", "pre_actions": "1", "move": "5@24", "instance": "prb28111", "distance_to_goal": "NA", "progress": "NA", "move_number": "4", "optimal_length": "7", "subject": "A2TQNX64349OZ9:3WSELTNVR4AZUVYAYCSWZIQW0J4ATB"}
{"meta_move": "drag_end", "rt": "914.0", "trial_number": "1", "pre_actions": "1", "move": "7@23", "instance": "prb28111", "distance_to_goal": "NA", "progress": "NA", "move_number": "5", "optimal_length": "7", "subject": "A2TQNX64349OZ9:3WSELTNVR4AZUVYAYCSWZIQW0J4ATB"}
{"meta_move": "win", "rt": "542.0", "trial_number": "1", "pre_actions": "1", "move": "r@15", "instance": "prb28111", "distance_to_goal": "1", "progress": "NA", "move_number": "6", "optimal_length": "7", "subject": "A2TQNX64349OZ9:3WSELTNVR4AZUVYAYCSWZIQW0J4ATB"}
{"meta_move": "drag_end", "rt": "66.0", "trial_number": "0", "pre_actions": "0", "move": "r@16", "instance": "prb28111", "distance_to_goal": "NA", "progress": "NA", "move_number": "6", "optimal_length": "7", "subject": "A2TQNX64349OZ9:3WSELTNVR4AZUVYAYCSWZIQW0J4ATB"}
{"meta_move": "drag_end", "rt": "2866.0", "trial_number": "1", "pre_actions": "1", "move": "r@15", "instance": "prb28111", "distance_to_goal": "NA", "progress": "NA", "move_number": "0", "optimal_length": "7", "subject": "A3Q0XAGQ7TD7MP:3X87C8JFV7JQ2BSCY8KSFD9F2ILSQK"}
{"meta_move": "drag_end", "rt": "1117.0", "trial_number": "1", "pre_actions": "1", "move": "1@2", "instance": "prb28111", "distance_to_goal": "NA", "progress": "NA", "move_number": "1", "optimal_length": "7", "subject": "A3Q0XAGQ7TD7MP:3X87C8JFV7JQ2BSCY8KSFD9F2ILSQK"}
{"meta_move": "drag_end", "rt": "1164.0", "trial_number": "1", "pre_actions": "1", "move": "6@20", "instance": "prb28111", "distance_to_goal": "NA", "progress": "NA", "move_number": "2", "optimal_length": "7", "subject": "A3Q0XAGQ7TD7MP:3X87C8JFV7JQ2BSCY8KSFD9F2ILSQK"}
{"meta_move": "drag_end", "rt": "1315.0", "trial_number": "1", "pre_actions": "1", "move": "5@26", "instance": "prb28111", "distance_to_goal": "NA", "progress": "NA", "move_number": "3", "optimal_length": "7", "subject": "A3Q0XAGQ7TD7MP:3X87C8JFV7JQ2BSCY8KSFD9F2ILSQK"}
{"meta_move": "drag_end", "rt": "1244.0", "trial_number": "1", "pre_actions": "1", "move": "7@23", "instance": "prb28111", "distance_to_goal": "NA", "progress": "NA", "move_number": "4", "optimal_length": "7", "subject": "A3Q0XAGQ7TD7MP:3X87C8JFV7JQ2BSCY8KSFD9F2ILSQK"}
{"meta_move": "win", "rt": "952.0", "trial_number": "1", "pre_actions": "1", "move": "r@15", "instance": "prb28111", "distance_to_goal": "1", "progress": "NA", "move_number": "5", "optimal_length": "7", "subject": "A3Q0XAGQ7TD7MP:3X87C8JFV7JQ2BSCY8KSFD9F2ILSQK"}
{"meta_move": "drag_end", "rt": "107.0", "trial_number": "0", "pre_actions": "0", "move": "r@16", "instance": "prb28111", "distance_to_goal": "NA", "progress": "NA", "move_number": "5", "optimal_length": "7", "subject": "A3Q0XAGQ7TD7MP:3X87C8JFV7JQ2BSCY8KSFD9F2ILSQK"}
{"meta_move": "drag_end", "rt": "1995.0", "trial_number": "1", "pre_actions": "1", "move": "5@27", "instance": "prb28111", "distance_to_goal": "NA", "progress": "NA", "move_number": "0", "optimal_length": "7", "subject": "ARWF605I7RWM7:3AZHRG4CU5SYU12YRVPCSZALW5003R"}
{"meta_move": "drag_end", "rt": "823.0", "trial_number": "1", "pre_actions": "1", "move": "4@33", "instance": "prb28111", "distance_to_goal": "NA", "progress": "NA", "move_number": "1", "optimal_length": "7", "subject": "ARWF605I7RWM7:3AZHRG4CU5SYU12YRVPCSZALW5003R"}
{"meta_move": "drag_end", "rt": "576.0", "trial_number": "1", "pre_actions": "1", "move": "1@26", "instance": "prb28111", "distance_to_goal": "NA", "progress": "NA", "move_number": "2", "optimal_length": "7", "subject": "ARWF605I7RWM7:3AZHRG4CU5SYU12YRVPCSZALW5003R"}
{"meta_move": "drag_end", "rt": "654.0", "trial_number": "1", "pre_actions": "1", "move": "2@19", "instance": "prb28111", "distance_to_goal": "NA", "progress": "NA", "move_number": "3", "optimal_length": "7", "subject": "ARWF605I7RWM7:3AZHRG4CU5SYU12YRVPCSZALW5003R"}
{"meta_move": "drag_end", "rt": "496.0", "trial_number": "1", "pre_actions": "1", "move": "3@0", "instance": "prb28111", "distance_to_goal": "NA", "progress": "NA", "move_number": "4", "optimal_length": "7", "subject": "ARWF605I7RWM7:3AZHRG4CU5SYU12YRVPCSZALW5003R"}
{"meta_move": "drag_end", "rt": "568.0", "trial_number": "1", "pre_actions": "1", "move": "2@18", "instance": "prb28111", "distance_to_goal": "NA", "progress": "NA", "move_number": "5", "optimal_length": "7", "subject": "ARWF605I7RWM7:3AZHRG4CU5SYU12YRVPCSZALW5003R"}
{"meta_move": "drag_end", "rt": "1129.0", "trial_number": "1", "pre_actions": "1", "move": "1@20", "instance": "prb28111", "distance_to_goal": "NA", "progress": "NA", "move_number": "6", "optimal_length": "7", "subject": "ARWF605I7RWM7:3AZHRG4CU5SYU12YRVPCSZALW5003R"}
{"meta_move": "drag_end", "rt": "617.0", "trial_number": "1", "pre_actions": "1", "move": "4@30", "instance": "prb28111", "distance_to_goal": "NA", "progress": "NA", "move_number": "7", "optimal_length": "7", "subject": "ARWF605I7RWM7:3AZHRG4CU5SYU12YRVPCSZALW5003R"}
{"meta_move": "drag_end", "rt": "719.0", "trial_number": "1", "pre_actions": "1", "move": "5@28", "instance": "prb28111", "distance_to_goal": "NA", "progress": "NA", "move_number": "8", "optimal_length": "7", "subject": "ARWF605I7RWM7:3AZHRG4CU5SYU12YRVPCSZALW5003R"}
{"meta_move": "drag_end", "rt": "1035.0", "trial_number": "1", "pre_actions": "1", "move": "r@12", "instance": "prb28111", "distance_to_goal": "NA", "progress": "NA", "move_number": "9", "optimal_length": "7", "subject": "ARWF605I7RWM7:3AZHRG4CU5SYU12YRVPCSZALW5003R"}
{"meta_move": "drag_end", "rt": "582.0", "trial_number": "1", "pre_actions": "1", "move": "1@2", "instance": "prb28111", "distance_to_goal": "NA", "progress": "NA", "move_number": "10", "optimal_length": "7", "subject": "ARWF605I7RWM7:3AZHRG4CU5SYU12YRVPCSZALW5003R"}
{"meta_move": "drag_end", "rt": "894.0", "trial_number": "1", "pre_actions": "1", "move": "6@20", "instance": "prb28111", "distance_to_goal": "NA", "progress": "NA", "move_number": "11", "optimal_length": "7", "subject": "ARWF605I7RWM7:3AZHRG4CU5SYU12YRVPCSZALW5003R"}
{"meta_move": "drag_end", "rt": "590.0", "trial_number": "1", "pre_actions": "1", "move": "5@24", "instance": "prb28111", "distance_to_goal": "NA", "progress": "NA", "move_number": "12", "optimal_length": "7", "subject": "ARWF605I7RWM7:3AZHRG4CU5SYU12YRVPCSZALW5003R"}
{"meta_move": "drag_end", "rt": "677.0", "trial_number": "1", "pre_actions": "1", "move": "7@23", "instance": "prb28111", "distance_to_goal": "NA", "progress": "NA", "move_number": "13", "optimal_length": "7", "subject": "ARWF605I7RWM7:3AZHRG4CU5SYU12YRVPCSZALW5003R"}
{"meta_move": "win", "rt": "1301.0", "trial_number": "1", "pre_actions": "1", "move": "r@12", "instance": "prb28111", "distance_to_goal": "1", "progress": "NA", "move_number": "14", "optimal_length": "7", "subject": "ARWF605I7RWM7:3AZHRG4CU5SYU12YRVPCSZALW5003R"}
{"meta_move": "drag_end", "rt": "128.0", "trial_number": "0", "pre_actions": "0", "move": "r@16", "instance": "prb28111", "distance_to_goal": "NA", "progress": "NA", "move_number": "14", "optimal_length": "7", "subject": "ARWF605I7RWM7:3AZHRG4CU5SYU12YRVPCSZALW5003R"}
