{"rt": "21242.0", "trial_number": "0", "skipped": "False", "complete": "True", "assignment": "3TYCR1GOTDRCCQYD1V64UK7OHTBZLQ", "start_time": "1.51753627129e+12", "human_length": "18", "nodes_expanded": "999", "instance": "prb29600", "end_time": "1.51753629253e+12", "optimal_length": "14", "subject": "A13BZCNJ0WR1T7"}
{"rt": "25685.0", "trial_number": "0", "skipped": "False", "complete": "True", "assignment": "3IJXV6UZ1YR1KY4G6BFEG1DXR47RIC", "start_time": "1.51797268224e+12", "human_length": "25", "nodes_expanded": "999", "instance": "prb29600", "end_time": "1.51797270792e+12", "optimal_length": "14", "subject": "A18T3WK7J16C1B"}
{"rt": "16188.0", "trial_number": "0", "skipped": "False", "complete": "True", "assignment": "3PMBY0YE28B43VMUKKJ6EDF85RV9C8", "start_time": "1.51638773292e+12", "human_length": "15", "nodes_expanded": "999", "instance": "prb29600", "end_time": "1.51638774911e+12", "optimal_length": "14", "subject": "A191V7PT3DQKDP"}
{"rt": "36287.0", "trial_number": "0", "skipped": "False", "complete": "True", "assignment": "3ZSANO2JCGFTBM23KS9Y3E51YP4FSQ", "start_time": "1.5181424909e+12", "human_length": "29", "nodes_expanded": "999", "instance": "prb29600", "end_time": "1.51814252719e+12", "optimal_length": "14", "subject": "A1F42D4L22K5ND"}
{"rt": "60534.0", "trial_number": "0", "skipped": "False", "complete": "True", "assignment": "3TS1AR6UQRM7SOIBWPBN8N9589Y7FV", "start_time": "1.51684011234e+12", "human_length": "43", "nodes_expanded": "999", "instance": "prb29600", "end_time": "1.51684017288e+12", "optimal_length": "14", "subject": "A1F4N58CAX8IMK"}
{"rt": "31112.0", "trial_number": "1", "skipped": "False", "complete": "True", "assignment": "35DR22AR5ES6RR89U7EJ1DXW91AX3P", "start_time": "1.5179545415e+12", "human_length": "25", "nodes_expanded": "999", "instance": "prb29600", "end_time": "1.51795457262e+12", "optimal_length": "14", "subject": "A1F4N58CAX8IMK"}
{"rt": "34360.0", "trial_number": "0", "skipped": "False", "complete": "True", "assignment": "33F859I567LE8WC74WB3GA7E94XBHW", "start_time": "1.51796935152e+12", "human_length": "21", "nodes_expanded": "999", "instance": "prb29600", "end_time": "1.51796938588e+12", "optimal_length": "14", "subject": "A1GQS6USF2JEYG"}
{"rt": "43424.0", "trial_number": "0", "skipped": "False", "complete": "True", "assignment": "3XLBSAQ9Z5KDX59BX15UBFPNNHYZ7Q", "start_time": "1.51814718215e+12", "human_length": "28", "nodes_expanded": "999", "instance": "prb29600", "end_time": "1.51814722557e+12", "optimal_length": "14", "subject": "A1HFNOKU591WCY"}
{"rt": "26127.0", "trial_number": "0", "skipped": "False", "complete": "True", "assignment": "3FTF2T8WLSQDHTSZ1BJ7Q7MB14SW9H", "start_time": "1.51813592507e+12", "human_length": "15", "nodes_expanded": "999", "instance": "prb29600", "end_time": "1.5181359512e+12", "optimal_length": "14", "subject": "A1IUH9D7N69VS"}
{"rt": "0.0", "trial_number": "0", "skipped": "False", "complete": "False", "assignment": "3YW4XOSQKRTI0K0Z2YPDTDJVFABU1I", "start_time": "1.51683117733e+12", "human_length": "1", "nodes_expanded": "999", "instance": "prb29600", "end_time": "1.51683117733e+12", "optimal_length": "14", "subject": "A1LR0VQIHQUJAM"}
{"rt": "16148.0", "trial_number": "1", "skipped": "False", "complete": "True", "assignment": "3YW4XOSQKRTI0K0Z2YPDTDJVFABU1I", "start_time": "1.51683117733e+12", "human_length": "14", "nodes_expanded": "999", "instance": "prb29600", "end_time": "1.51683119348e+12", "optimal_length": "14", "subject": "A1LR0VQIHQUJAM"}
{"rt": "40361.0", "trial_number": "0", "skipped": "False", "complete": "True", "assignment": "3R5F3LQFV3SKIB1AENMWM1BICT5OZB", "start_time": "1.51795853404e+12", "human_length": "34", "nodes_expanded": "999", "instance": "prb29600", "end_time": "1.5179585744e+12", "optimal_length": "14", "subject": "A1N1EF0MIRSEZZ"}
{"rt": "41748.0", "trial_number": "0", "skipped": "True", "complete": "False", "assignment": "31LM9EDVOM0C0BWUVMJXJINN3QPJNI", "start_time": "1.51752352942e+12", "human_length": "24", "nodes_expanded": "999", "instance": "prb29600", "end_time": "1.51752357117e+12", "optimal_length": "14", "subject": "A1NT8BT94ME6F5"}
{"rt": "0.0", "trial_number": "0", "skipped": "False", "complete": "False", "assignment": "3RUIQRXJBCWS71H9MUFVM5WQ3SCLLJ", "start_time": "1.51815898132e+12", "human_length": "1", "nodes_expanded": "999", "instance": "prb29600", "end_time": "1.51815898132e+12", "optimal_length": "14", "subject": "A1SJRFJWFXSDH4"}
{"rt": "0.0", "trial_number": "1", "skipped": "False", "complete": "False", "assignment": "3RUIQRXJBCWS71H9MUFVM5WQ3SCLLJ", "start_time": "1.51815898134e+12", "human_length": "1", "nodes_expanded": "999", "instance": "prb29600", "end_time": "1.51815898134e+12", "optimal_length": "14", "subject": "A1SJRFJWFXSDH4"}
{"rt": "0.0", "trial_number": "2", "skipped": "False", "complete": "False", "assignment": "3RUIQRXJBCWS71H9MUFVM5WQ3SCLLJ", "start_time": "1.51815898136e+12", "human_length": "1", "nodes_expanded": "999", "instance": "prb29600", "end_time": "1.51815898136e+12", "optimal_length": "14", "subject": "A1SJRFJWFXSDH4"}
{"rt": "0.0", "trial_number": "3", "skipped": "False", "complete": "False", "assignment": "3RUIQRXJBCWS71H9MUFVM5WQ3SCLLJ", "start_time": "1.51815898137e+12", "human_length": "1", "nodes_expanded": "999", "instance": "prb29600", "end_time": "1.51815898137e+12", "optimal_length": "14", "subject": "A1SJRFJWFXSDH4"}
{"rt": "26385.0", "trial_number": "4", "skipped": "True", "complete": "False", "assignment": "3RUIQRXJBCWS71H9MUFVM5WQ3SCLLJ", "start_time": "1.51815898420e+12", "human_length": "11", "nodes_expanded": "999", "instance": "prb29600", "end_time": "1.51815901059e+12", "optimal_length": "14", "subject": "A1SJRFJWFXSDH4"}
{"rt": "27073.0", "trial_number": "0", "skipped": "False", "complete": "True", "assignment": "3PB5A5BD0WED6OE679H5Q89HBDGG71", "start_time": "1.51795245376e+12", "human_length": "16", "nodes_expanded": "999", "instance": "prb29600", "end_time": "1.51795248083e+12", "optimal_length": "14", "subject": "A1USR9JCAMDGM3"}
{"rt": "59848.0", "trial_number": "0", "skipped": "False", "complete": "True", "assignment": "3M0BCWMB8W4W5M7WZVX3HDH1M3FBWL", "start_time": "1.51683895651e+12", "human_length": "14", "nodes_expanded": "999", "instance": "prb29600", "end_time": "1.51683901636e+12", "optimal_length": "14", "subject": "A1XDMS0KFSF5JW"}
{"rt": "12382.0", "trial_number": "0", "skipped": "False", "complete": "False", "assignment": "3XC1O3LBOTUGQEPEV3HM8W67X4RTLL", "start_time": "1.51813892337e+12", "human_length": "6", "nodes_expanded": "999", "instance": "prb29600", "end_time": "1.51813893575e+12", "optimal_length": "14", "subject": "A1ZTSCPETU3UJW"}
{"rt": "26109.0", "trial_number": "1", "skipped": "True", "complete": "False", "assignment": "3XC1O3LBOTUGQEPEV3HM8W67X4RTLL", "start_time": "1.51813894252e+12", "human_length": "7", "nodes_expanded": "999", "instance": "prb29600", "end_time": "1.51813896863e+12", "optimal_length": "14", "subject": "A1ZTSCPETU3UJW"}
{"rt": "13944.0", "trial_number": "0", "skipped": "False", "complete": "False", "assignment": "34BBWHLWHBJ6SUL255PK30LEGY5IWG", "start_time": "1.51639271845e+12", "human_length": "7", "nodes_expanded": "999", "instance": "prb29600", "end_time": "1.5163927324e+12", "optimal_length": "14", "subject": "A214HWAW1PYWO8"}
{"rt": "25946.0", "trial_number": "1", "skipped": "False", "complete": "True", "assignment": "34BBWHLWHBJ6SUL255PK30LEGY5IWG", "start_time": "1.51639273390e+12", "human_length": "18", "nodes_expanded": "999", "instance": "prb29600", "end_time": "1.51639275985e+12", "optimal_length": "14", "subject": "A214HWAW1PYWO8"}
{"rt": "0.0", "trial_number": "0", "skipped": "False", "complete": "False", "assignment": "3X87C8JFV7JQ2BSCY8KSFD9F2ILSQK", "start_time": "1.51674471623e+12", "human_length": "1", "nodes_expanded": "999", "instance": "prb29600", "end_time": "1.51674471623e+12", "optimal_length": "14", "subject": "A21S7MA9DCW95E"}
{"rt": "0.0", "trial_number": "1", "skipped": "False", "complete": "False", "assignment": "3X87C8JFV7JQ2BSCY8KSFD9F2ILSQK", "start_time": "1.51674471623e+12", "human_length": "1", "nodes_expanded": "999", "instance": "prb29600", "end_time": "1.51674471623e+12", "optimal_length": "14", "subject": "A21S7MA9DCW95E"}
{"rt": "54492.0", "trial_number": "2", "skipped": "False", "complete": "True", "assignment": "3X87C8JFV7JQ2BSCY8KSFD9F2ILSQK", "start_time": "1.51674471623e+12", "human_length": "15", "nodes_expanded": "999", "instance": "prb29600", "end_time": "1.51674477072e+12", "optimal_length": "14", "subject": "A21S7MA9DCW95E"}
{"rt": "54492.0", "trial_number": "0", "skipped": "False", "complete": "True", "assignment": "3X87C8JFV7JQ2BSCY8KSFD9F2ILSQK", "start_time": "1.51674471623e+12", "human_length": "15", "nodes_expanded": "999", "instance": "prb29600", "end_time": "1.51674477072e+12", "optimal_length": "14", "subject": "A21S7MA9DCW95E"}
{"rt": "0.0", "trial_number": "0", "skipped": "False", "complete": "False", "assignment": "3IHR8NYAM89M0EPM8U9LH53ZJDTP4U", "start_time": "1.5168256338e+12", "human_length": "1", "nodes_expanded": "999", "instance": "prb29600", "end_time": "1.5168256338e+12", "optimal_length": "14", "subject": "A23437BMZ5T1FH"}
{"rt": "62734.0", "trial_number": "1", "skipped": "False", "complete": "True", "assignment": "3IHR8NYAM89M0EPM8U9LH53ZJDTP4U", "start_time": "1.5168256338e+12", "human_length": "28", "nodes_expanded": "999", "instance": "prb29600", "end_time": "1.51682569654e+12", "optimal_length": "14", "subject": "A23437BMZ5T1FH"}
{"rt": "102217.0", "trial_number": "0", "skipped": "False", "complete": "False", "assignment": "30IQTZXKALEAAZ9CBKW0ZFZP6O5X07", "start_time": "1.5179444484e+12", "human_length": "23", "nodes_expanded": "999", "instance": "prb29600", "end_time": "1.51794455062e+12", "optimal_length": "14", "subject": "A23XJ8I86R0O3B"}
{"rt": "29167.0", "trial_number": "1", "skipped": "False", "complete": "False", "assignment": "30IQTZXKALEAAZ9CBKW0ZFZP6O5X07", "start_time": "1.51794455477e+12", "human_length": "6", "nodes_expanded": "999", "instance": "prb29600", "end_time": "1.51794458394e+12", "optimal_length": "14", "subject": "A23XJ8I86R0O3B"}
{"rt": "20769.0", "trial_number": "2", "skipped": "True", "complete": "False", "assignment": "30IQTZXKALEAAZ9CBKW0ZFZP6O5X07", "start_time": "1.51794458724e+12", "human_length": "7", "nodes_expanded": "999", "instance": "prb29600", "end_time": "1.51794460801e+12", "optimal_length": "14", "subject": "A23XJ8I86R0O3B"}
{"rt": "33036.0", "trial_number": "0", "skipped": "False", "complete": "True", "assignment": "3ZV9H2YQQEFR2R3JK2IXZUJPXAF3WW", "start_time": "1.51630811056e+12", "human_length": "14", "nodes_expanded": "999", "instance": "prb29600", "end_time": "1.51630814359e+12", "optimal_length": "14", "subject": "A289D98Z4GAZ28"}
{"rt": "0.0", "trial_number": "0", "skipped": "False", "complete": "False", "assignment": "3X4MXAO0BHWJLTOLVSJTHSM54OHWRG", "start_time": "1.51682356109e+12", "human_length": "1", "nodes_expanded": "999", "instance": "prb29600", "end_time": "1.51682356109e+12", "optimal_length": "14", "subject": "A2IBQA01NR5N76"}
{"rt": "24041.0", "trial_number": "1", "skipped": "False", "complete": "True", "assignment": "3X4MXAO0BHWJLTOLVSJTHSM54OHWRG", "start_time": "1.51682356109e+12", "human_length": "14", "nodes_expanded": "999", "instance": "prb29600", "end_time": "1.51682358513e+12", "optimal_length": "14", "subject": "A2IBQA01NR5N76"}
{"rt": "24041.0", "trial_number": "0", "skipped": "False", "complete": "True", "assignment": "3X4MXAO0BHWJLTOLVSJTHSM54OHWRG", "start_time": "1.51682356109e+12", "human_length": "14", "nodes_expanded": "999", "instance": "prb29600", "end_time": "1.51682358513e+12", "optimal_length": "14", "subject": "A2IBQA01NR5N76"}
{"rt": "45417.0", "trial_number": "0", "skipped": "False", "complete": "True", "assignment": "3TYCR1GOTDRCCQYD1V64UK7OE48LZS", "start_time": "1.51639088963e+12", "human_length": "22", "nodes_expanded": "999", "instance": "prb29600", "end_time": "1.51639093504e+12", "optimal_length": "14", "subject": "A2MYB6MLQW0IGN"}
{"rt": "28841.0", "trial_number": "0", "skipped": "False", "complete": "True", "assignment": "3FUI0JHJPY6UBT1VAI7VUX8S3KH33W", "start_time": "1.51815124523e+12", "human_length": "22", "nodes_expanded": "999", "instance": "prb29600", "end_time": "1.51815127407e+12", "optimal_length": "14", "subject": "A2QIZ31TMHU0GD"}
{"rt": "14644.0", "trial_number": "0", "skipped": "True", "complete": "False", "assignment": "3TAYZSBPLMG9ASQRWXURJVBCPLN2SH", "start_time": "1.51813662361e+12", "human_length": "7", "nodes_expanded": "999", "instance": "prb29600", "end_time": "1.51813663826e+12", "optimal_length": "14", "subject": "A2RCYLKY072XXO"}
{"rt": "5267.0", "trial_number": "0", "skipped": "False", "complete": "False", "assignment": "3WSELTNVR4AZUVYAYCSWZIQW0J4ATB", "start_time": "1.51673750451e+12", "human_length": "4", "nodes_expanded": "999", "instance": "prb29600", "end_time": "1.51673750978e+12", "optimal_length": "14", "subject": "A2TQNX64349OZ9"}
{"rt": "19866.0", "trial_number": "1", "skipped": "False", "complete": "False", "assignment": "3WSELTNVR4AZUVYAYCSWZIQW0J4ATB", "start_time": "1.51673751389e+12", "human_length": "9", "nodes_expanded": "999", "instance": "prb29600", "end_time": "1.51673753376e+12", "optimal_length": "14", "subject": "A2TQNX64349OZ9"}
{"rt": "7591.0", "trial_number": "2", "skipped": "False", "complete": "False", "assignment": "3WSELTNVR4AZUVYAYCSWZIQW0J4ATB", "start_time": "1.51673753731e+12", "human_length": "4", "nodes_expanded": "999", "instance": "prb29600", "end_time": "1.5167375449e+12", "optimal_length": "14", "subject": "A2TQNX64349OZ9"}
{"rt": "0.0", "trial_number": "3", "skipped": "False", "complete": "False", "assignment": "3WSELTNVR4AZUVYAYCSWZIQW0J4ATB", "start_time": "1.51673754865e+12", "human_length": "1", "nodes_expanded": "999", "instance": "prb29600", "end_time": "1.51673754865e+12", "optimal_length": "14", "subject": "A2TQNX64349OZ9"}
{"rt": "0.0", "trial_number": "4", "skipped": "False", "complete": "False", "assignment": "3WSELTNVR4AZUVYAYCSWZIQW0J4ATB", "start_time": "1.51673750451e+12", "human_length": "1", "nodes_expanded": "999", "instance": "prb29600", "end_time": "1.51673750451e+12", "optimal_length": "14", "subject": "A2TQNX64349OZ9"}
{"rt": "0.0", "trial_number": "5", "skipped": "False", "complete": "False", "assignment": "3WSELTNVR4AZUVYAYCSWZIQW0J4ATB", "start_time": "1.51673751389e+12", "human_length": "1", "nodes_expanded": "999", "instance": "prb29600", "end_time": "1.51673751389e+12", "optimal_length": "14", "subject": "A2TQNX64349OZ9"}
{"rt": "0.0", "trial_number": "6", "skipped": "False", "complete": "False", "assignment": "3WSELTNVR4AZUVYAYCSWZIQW0J4ATB", "start_time": "1.51673753731e+12", "human_length": "1", "nodes_expanded": "999", "instance": "prb29600", "end_time": "1.51673753731e+12", "optimal_length": "14", "subject": "A2TQNX64349OZ9"}
{"rt": "0.0", "trial_number": "7", "skipped": "False", "complete": "False", "assignment": "3WSELTNVR4AZUVYAYCSWZIQW0J4ATB", "start_time": "1.51673754865e+12", "human_length": "1", "nodes_expanded": "999", "instance": "prb29600", "end_time": "1.51673754865e+12", "optimal_length": "14", "subject": "A2TQNX64349OZ9"}
{"rt": "0.0", "trial_number": "8", "skipped": "False", "complete": "False", "assignment": "3WSELTNVR4AZUVYAYCSWZIQW0J4ATB", "start_time": "1.51673750451e+12", "human_length": "1", "nodes_expanded": "999", "instance": "prb29600", "end_time": "1.51673750451e+12", "optimal_length": "14", "subject": "A2TQNX64349OZ9"}
{"rt": "0.0", "trial_number": "9", "skipped": "False", "complete": "False", "assignment": "3WSELTNVR4AZUVYAYCSWZIQW0J4ATB", "start_time": "1.51673751389e+12", "human_length": "1", "nodes_expanded": "999", "instance": "prb29600", "end_time": "1.51673751389e+12", "optimal_length": "14", "subject": "A2TQNX64349OZ9"}
{"rt": "0.0", "trial_number": "10", "skipped": "False", "complete": "False", "assignment": "3WSELTNVR4AZUVYAYCSWZIQW0J4ATB", "start_time": "1.51673753731e+12", "human_length": "1", "nodes_expanded": "999", "instance": "prb29600", "end_time": "1.51673753731e+12", "optimal_length": "14", "subject": "A2TQNX64349OZ9"}
{"rt": "33808.0", "trial_number": "11", "skipped": "False", "complete": "True", "assignment": "3WSELTNVR4AZUVYAYCSWZIQW0J4ATB", "start_time": "1.51673754865e+12", "human_length": "18", "nodes_expanded": "999", "instance": "prb29600", "end_time": "1.51673758246e+12", "optimal_length": "14", "subject": "A2TQNX64349OZ9"}
{"rt": "5267.0", "trial_number": "0", "skipped": "False", "complete": "False", "assignment": "3WSELTNVR4AZUVYAYCSWZIQW0J4ATB", "start_time": "1.51673750451e+12", "human_length": "4", "nodes_expanded": "999", "instance": "prb29600", "end_time": "1.51673750978e+12", "optimal_length": "14", "subject": "A2TQNX64349OZ9"}
{"rt": "19866.0", "trial_number": "1", "skipped": "False", "complete": "False", "assignment": "3WSELTNVR4AZUVYAYCSWZIQW0J4ATB", "start_time": "1.51673751389e+12", "human_length": "9", "nodes_expanded": "999", "instance": "prb29600", "end_time": "1.51673753376e+12", "optimal_length": "14", "subject": "A2TQNX64349OZ9"}
{"rt": "7591.0", "trial_number": "2", "skipped": "False", "complete": "False", "assignment": "3WSELTNVR4AZUVYAYCSWZIQW0J4ATB", "start_time": "1.51673753731e+12", "human_length": "4", "nodes_expanded": "999", "instance": "prb29600", "end_time": "1.5167375449e+12", "optimal_length": "14", "subject": "A2TQNX64349OZ9"}
{"rt": "33808.0", "trial_number": "3", "skipped": "False", "complete": "True", "assignment": "3WSELTNVR4AZUVYAYCSWZIQW0J4ATB", "start_time": "1.51673754865e+12", "human_length": "18", "nodes_expanded": "999", "instance": "prb29600", "end_time": "1.51673758246e+12", "optimal_length": "14", "subject": "A2TQNX64349OZ9"}
{"rt": "35556.0", "trial_number": "0", "skipped": "False", "complete": "True", "assignment": "3JCG6DTRV4YEPVDZ64VNKDUEMPGQQ1", "start_time": "1.51794645862e+12", "human_length": "16", "nodes_expanded": "999", "instance": "prb29600", "end_time": "1.51794649418e+12", "optimal_length": "14", "subject": "A2V7KYLBCBTI3B"}
{"rt": "46517.0", "trial_number": "0", "skipped": "False", "complete": "True", "assignment": "37TD41K0AIHM8AITTQJXV8KY05QCSB", "start_time": "1.51752561449e+12", "human_length": "22", "nodes_expanded": "999", "instance": "prb29600", "end_time": "1.517525661e+12", "optimal_length": "14", "subject": "A30KYQGABO7JER"}
{"rt": "50640.0", "trial_number": "0", "skipped": "False", "complete": "True", "assignment": "3VNL7UK1XGRUQMFI9SEODJ1NWBPTF2", "start_time": "1.51638682236e+12", "human_length": "35", "nodes_expanded": "999", "instance": "prb29600", "end_time": "1.51638687300e+12", "optimal_length": "14", "subject": "A394S7JSNUA3TS"}
{"rt": "44735.0", "trial_number": "0", "skipped": "False", "complete": "True", "assignment": "3TXD01ZLD5PZSJXIPG8FRBQYTI9U4X", "start_time": "1.51794506289e+12", "human_length": "22", "nodes_expanded": "999", "instance": "prb29600", "end_time": "1.51794510762e+12", "optimal_length": "14", "subject": "A3BPRPN10HJD4B"}
{"rt": "24159.0", "trial_number": "0", "skipped": "False", "complete": "True", "assignment": "34HJIJKLP64Z5YMIU6IKNXSH7PDV4I", "start_time": "1.5179414634e+12", "human_length": "16", "nodes_expanded": "999", "instance": "prb29600", "end_time": "1.51794148756e+12", "optimal_length": "14", "subject": "A3CTXNQ2GXIQSP"}
{"rt": "25008.0", "trial_number": "0", "skipped": "False", "complete": "True", "assignment": "3TPWUS5F8A9FFRZ2DVTYSXNJ6BWWC6", "start_time": "1.51794175153e+12", "human_length": "14", "nodes_expanded": "999", "instance": "prb29600", "end_time": "1.51794177654e+12", "optimal_length": "14", "subject": "A3GXC3VG37CQ3G"}
{"rt": "0.0", "trial_number": "0", "skipped": "False", "complete": "False", "assignment": "3I2PTA7R3U2SESF4TZBQORI5LSJQKK", "start_time": "1.51675959404e+12", "human_length": "1", "nodes_expanded": "999", "instance": "prb29600", "end_time": "1.51675959404e+12", "optimal_length": "14", "subject": "A3NMQ3019X6YE0"}
{"rt": "0.0", "trial_number": "1", "skipped": "False", "complete": "False", "assignment": "3I2PTA7R3U2SESF4TZBQORI5LSJQKK", "start_time": "1.51675959404e+12", "human_length": "1", "nodes_expanded": "999", "instance": "prb29600", "end_time": "1.51675959404e+12", "optimal_length": "14", "subject": "A3NMQ3019X6YE0"}
{"rt": "113026.0", "trial_number": "2", "skipped": "False", "complete": "True", "assignment": "3I2PTA7R3U2SESF4TZBQORI5LSJQKK", "start_time": "1.51675959404e+12", "human_length": "47", "nodes_expanded": "999", "instance": "prb29600", "end_time": "1.51675970707e+12", "optimal_length": "14", "subject": "A3NMQ3019X6YE0"}
{"rt": "128881.0", "trial_number": "3", "skipped": "False", "complete": "False", "assignment": "3V5Q80FXIYZ5QB5C6ITQBN30WY823U", "start_time": "1.51753521693e+12", "human_length": "34", "nodes_expanded": "999", "instance": "prb29600", "end_time": "1.51753534581e+12", "optimal_length": "14", "subject": "A3NMQ3019X6YE0"}
{"rt": "63468.0", "trial_number": "4", "skipped": "False", "complete": "True", "assignment": "3V5Q80FXIYZ5QB5C6ITQBN30WY823U", "start_time": "1.51753534702e+12", "human_length": "30", "nodes_expanded": "999", "instance": "prb29600", "end_time": "1.51753541049e+12", "optimal_length": "14", "subject": "A3NMQ3019X6YE0"}
{"rt": "113026.0", "trial_number": "0", "skipped": "False", "complete": "True", "assignment": "3I2PTA7R3U2SESF4TZBQORI5LSJQKK", "start_time": "1.51675959404e+12", "human_length": "47", "nodes_expanded": "999", "instance": "prb29600", "end_time": "1.51675970707e+12", "optimal_length": "14", "subject": "A3NMQ3019X6YE0"}
{"rt": "128881.0", "trial_number": "1", "skipped": "False", "complete": "False", "assignment": "3V5Q80FXIYZ5QB5C6ITQBN30WY823U", "start_time": "1.51753521693e+12", "human_length": "34", "nodes_expanded": "999", "instance": "prb29600", "end_time": "1.51753534581e+12", "optimal_length": "14", "subject": "A3NMQ3019X6YE0"}
{"rt": "63468.0", "trial_number": "2", "skipped": "False", "complete": "True", "assignment": "3V5Q80FXIYZ5QB5C6ITQBN30WY823U", "start_time": "1.51753534702e+12", "human_length": "30", "nodes_expanded": "999", "instance": "prb29600", "end_time": "1.51753541049e+12", "optimal_length": "14", "subject": "A3NMQ3019X6YE0"}
{"rt": "25966.0", "trial_number": "0", "skipped": "False", "complete": "True", "assignment": "3STRJBFXOXZ5687WA35LTWTS7QZKTT", "start_time": "1.51794556371e+12", "human_length": "14", "nodes_expanded": "999", "instance": "prb29600", "end_time": "1.51794558968e+12", "optimal_length": "14", "subject": "A3OB6REG5CGHK1"}
{"rt": "30411.0", "trial_number": "0", "skipped": "False", "complete": "False", "assignment": "3X87C8JFV7JQ2BSCY8KSFD9F2ILSQK", "start_time": "1.51674034703e+12", "human_length": "9", "nodes_expanded": "999", "instance": "prb29600", "end_time": "1.51674037744e+12", "optimal_length": "14", "subject": "A3Q0XAGQ7TD7MP"}
{"rt": "0.0", "trial_number": "1", "skipped": "False", "complete": "False", "assignment": "3X87C8JFV7JQ2BSCY8KSFD9F2ILSQK", "start_time": "1.51674037904e+12", "human_length": "1", "nodes_expanded": "999", "instance": "prb29600", "end_time": "1.51674037904e+12", "optimal_length": "14", "subject": "A3Q0XAGQ7TD7MP"}
{"rt": "0.0", "trial_number": "2", "skipped": "False", "complete": "False", "assignment": "3X87C8JFV7JQ2BSCY8KSFD9F2ILSQK", "start_time": "1.51674034703e+12", "human_length": "1", "nodes_expanded": "999", "instance": "prb29600", "end_time": "1.51674034703e+12", "optimal_length": "14", "subject": "A3Q0XAGQ7TD7MP"}
{"rt": "0.0", "trial_number": "3", "skipped": "False", "complete": "False", "assignment": "3X87C8JFV7JQ2BSCY8KSFD9F2ILSQK", "start_time": "1.51674037904e+12", "human_length": "1", "nodes_expanded": "999", "instance": "prb29600", "end_time": "1.51674037904e+12", "optimal_length": "14", "subject": "A3Q0XAGQ7TD7MP"}
{"rt": "0.0", "trial_number": "4", "skipped": "False", "complete": "False", "assignment": "3X87C8JFV7JQ2BSCY8KSFD9F2ILSQK", "start_time": "1.51674034703e+12", "human_length": "1", "nodes_expanded": "999", "instance": "prb29600", "end_time": "1.51674034703e+12", "optimal_length": "14", "subject": "A3Q0XAGQ7TD7MP"}
{"rt": "32769.0", "trial_number": "5", "skipped": "False", "complete": "False", "assignment": "3X87C8JFV7JQ2BSCY8KSFD9F2ILSQK", "start_time": "1.51674037904e+12", "human_length": "32", "nodes_expanded": "999", "instance": "prb29600", "end_time": "1.51674041181e+12", "optimal_length": "14", "subject": "A3Q0XAGQ7TD7MP"}
{"rt": "46403.0", "trial_number": "6", "skipped": "False", "complete": "True", "assignment": "3GLB5JMZFY3TNXFGYMKRQ0JDXNTDGZ", "start_time": "1.51794731657e+12", "human_length": "17", "nodes_expanded": "999", "instance": "prb29600", "end_time": "1.51794736297e+12", "optimal_length": "14", "subject": "A3Q0XAGQ7TD7MP"}
{"rt": "30411.0", "trial_number": "0", "skipped": "False", "complete": "False", "assignment": "3X87C8JFV7JQ2BSCY8KSFD9F2ILSQK", "start_time": "1.51674034703e+12", "human_length": "9", "nodes_expanded": "999", "instance": "prb29600", "end_time": "1.51674037744e+12", "optimal_length": "14", "subject": "A3Q0XAGQ7TD7MP"}
{"rt": "32769.0", "trial_number": "1", "skipped": "False", "complete": "False", "assignment": "3X87C8JFV7JQ2BSCY8KSFD9F2ILSQK", "start_time": "1.51674037904e+12", "human_length": "9", "nodes_expanded": "999", "instance": "prb29600", "end_time": "1.51674041181e+12", "optimal_length": "14", "subject": "A3Q0XAGQ7TD7MP"}
{"rt": "46403.0", "trial_number": "2", "skipped": "False", "complete": "True", "assignment": "3GLB5JMZFY3TNXFGYMKRQ0JDXNTDGZ", "start_time": "1.51794731657e+12", "human_length": "17", "nodes_expanded": "999", "instance": "prb29600", "end_time": "1.51794736297e+12", "optimal_length": "14", "subject": "A3Q0XAGQ7TD7MP"}
{"rt": "16764.0", "trial_number": "0", "skipped": "False", "complete": "False", "assignment": "3M0BCWMB8W4W5M7WZVX3HDH1P53WB1", "start_time": "1.51815807042e+12", "human_length": "7", "nodes_expanded": "999", "instance": "prb29600", "end_time": "1.51815808719e+12", "optimal_length": "14", "subject": "A53S7J4JGWG38"}
{"rt": "27807.0", "trial_number": "1", "skipped": "False", "complete": "True", "assignment": "3M0BCWMB8W4W5M7WZVX3HDH1P53WB1", "start_time": "1.51815809004e+12", "human_length": "14", "nodes_expanded": "999", "instance": "prb29600", "end_time": "1.51815811784e+12", "optimal_length": "14", "subject": "A53S7J4JGWG38"}
{"rt": "0.0", "trial_number": "0", "skipped": "False", "complete": "False", "assignment": "3IJXV6UZ1YR1KY4G6BFEG1DXP7SRI1", "start_time": "1.51673973629e+12", "human_length": "1", "nodes_expanded": "999", "instance": "prb29600", "end_time": "1.51673973629e+12", "optimal_length": "14", "subject": "AEXF5EUX32U0M"}
{"rt": "0.0", "trial_number": "1", "skipped": "False", "complete": "False", "assignment": "3IJXV6UZ1YR1KY4G6BFEG1DXP7SRI1", "start_time": "1.51673973629e+12", "human_length": "1", "nodes_expanded": "999", "instance": "prb29600", "end_time": "1.51673973629e+12", "optimal_length": "14", "subject": "AEXF5EUX32U0M"}
{"rt": "80970.0", "trial_number": "2", "skipped": "False", "complete": "True", "assignment": "3IJXV6UZ1YR1KY4G6BFEG1DXP7SRI1", "start_time": "1.51673973629e+12", "human_length": "28", "nodes_expanded": "999", "instance": "prb29600", "end_time": "1.51673981726e+12", "optimal_length": "14", "subject": "AEXF5EUX32U0M"}
{"rt": "80970.0", "trial_number": "0", "skipped": "False", "complete": "True", "assignment": "3IJXV6UZ1YR1KY4G6BFEG1DXP7SRI1", "start_time": "1.51673973629e+12", "human_length": "28", "nodes_expanded": "999", "instance": "prb29600", "end_time": "1.51673981726e+12", "optimal_length": "14", "subject": "AEXF5EUX32U0M"}
{"rt": "20523.0", "trial_number": "0", "skipped": "False", "complete": "True", "assignment": "3IXEICO793RY7TM78ZBKJDOA7ADT6Q", "start_time": "1.51816865082e+12", "human_length": "16", "nodes_expanded": "999", "instance": "prb29600", "end_time": "1.51816867134e+12", "optimal_length": "14", "subject": "ALH1K6ZAQQMN7"}
{"rt": "39401.0", "trial_number": "0", "skipped": "False", "complete": "False", "assignment": "37QW5D2ZRHUKW7SGCE3STMOFBMK8SX", "start_time": "1.51815837144e+12", "human_length": "8", "nodes_expanded": "999", "instance": "prb29600", "end_time": "1.51815841084e+12", "optimal_length": "14", "subject": "AMW2XLD9443OH"}
{"rt": "44365.0", "trial_number": "1", "skipped": "False", "complete": "True", "assignment": "37QW5D2ZRHUKW7SGCE3STMOFBMK8SX", "start_time": "1.518158429e+12", "human_length": "20", "nodes_expanded": "999", "instance": "prb29600", "end_time": "1.51815847336e+12", "optimal_length": "14", "subject": "AMW2XLD9443OH"}
{"rt": "76351.0", "trial_number": "0", "skipped": "False", "complete": "False", "assignment": "36H9ULYP6320CJJDXY0KBDEE1Z3JFB", "start_time": "1.51753197306e+12", "human_length": "20", "nodes_expanded": "999", "instance": "prb29600", "end_time": "1.51753204941e+12", "optimal_length": "14", "subject": "AN098C29EGJ6"}
{"rt": "33354.0", "trial_number": "1", "skipped": "True", "complete": "False", "assignment": "36H9ULYP6320CJJDXY0KBDEE1Z3JFB", "start_time": "1.51753205463e+12", "human_length": "6", "nodes_expanded": "999", "instance": "prb29600", "end_time": "1.51753208798e+12", "optimal_length": "14", "subject": "AN098C29EGJ6"}
{"rt": "65643.0", "trial_number": "0", "skipped": "False", "complete": "True", "assignment": "3HWRJOOET6A15827PHPSLWK1MOYSEU", "start_time": "1.51814534123e+12", "human_length": "41", "nodes_expanded": "999", "instance": "prb29600", "end_time": "1.51814540687e+12", "optimal_length": "14", "subject": "AO1QGAUZ85T6L"}
{"rt": "62755.0", "trial_number": "0", "skipped": "False", "complete": "True", "assignment": "3AZHRG4CU5SYU12YRVPCSZALW5003R", "start_time": "1.51630801967e+12", "human_length": "60", "nodes_expanded": "999", "instance": "prb29600", "end_time": "1.51630808242e+12", "optimal_length": "14", "subject": "ARWF605I7RWM7"}
{"rt": "38040.0", "trial_number": "0", "skipped": "True", "complete": "False", "assignment": "3IAS3U3I0GOAT69PLB8WT61CKJ22BO", "start_time": "1.51794208512e+12", "human_length": "7", "nodes_expanded": "999", "instance": "prb29600", "end_time": "1.51794212316e+12", "optimal_length": "14", "subject": "ATSZCAVI441RM"}
{"rt": "33725.0", "trial_number": "0", "skipped": "False", "complete": "True", "assignment": "33PPO7FECWN7JOLBOAKUBCWTC0AIDL", "start_time": "1.51794949209e+12", "human_length": "14", "nodes_expanded": "999", "instance": "prb29600", "end_time": "1.51794952581e+12", "optimal_length": "14", "subject": "AXKM02NVXNGOM"}
