{"rt": "38788.0", "trial_number": "0", "skipped": "True", "complete": "False", "assignment": "3TYCR1GOTDRCCQYD1V64UK7OHTBZLQ", "start_time": "1.51753755052e+12", "human_length": "32", "nodes_expanded": "999", "instance": "prb25861", "end_time": "1.51753758931e+12", "optimal_length": "16", "subject": "A13BZCNJ0WR1T7"}
{"rt": "50345.0", "trial_number": "0", "skipped": "False", "complete": "False", "assignment": "3TS1AR6UQRM7SOIBWPBN8N9589Y7FV", "start_time": "1.51684357993e+12", "human_length": "28", "nodes_expanded": "999", "instance": "prb25861", "end_time": "1.51684363027e+12", "optimal_length": "16", "subject": "A15FXHC1CVNW31"}
{"rt": "150509.0", "trial_number": "1", "skipped": "False", "complete": "True", "assignment": "3TS1AR6UQRM7SOIBWPBN8N9589Y7FV", "start_time": "1.51684364219e+12", "human_length": "101", "nodes_expanded": "999", "instance": "prb25861", "end_time": "1.5168437927e+12", "optimal_length": "16", "subject": "A15FXHC1CVNW31"}
{"rt": "0.0", "trial_number": "0", "skipped": "False", "complete": "False", "assignment": "3VE8AYVF8N5BS2NU6U3TMN50JMNF8V", "start_time": "1.51673692479e+12", "human_length": "1", "nodes_expanded": "999", "instance": "prb25861", "end_time": "1.51673692479e+12", "optimal_length": "16", "subject": "A18QU0YQB6Q8DF"}
{"rt": "0.0", "trial_number": "1", "skipped": "False", "complete": "False", "assignment": "3VE8AYVF8N5BS2NU6U3TMN50JMNF8V", "start_time": "1.51673692479e+12", "human_length": "1", "nodes_expanded": "999", "instance": "prb25861", "end_time": "1.51673692479e+12", "optimal_length": "16", "subject": "A18QU0YQB6Q8DF"}
{"rt": "23464.0", "trial_number": "2", "skipped": "True", "complete": "False", "assignment": "3VE8AYVF8N5BS2NU6U3TMN50JMNF8V", "start_time": "1.51673692479e+12", "human_length": "30", "nodes_expanded": "999", "instance": "prb25861", "end_time": "1.51673694826e+12", "optimal_length": "16", "subject": "A18QU0YQB6Q8DF"}
{"rt": "24826.0", "trial_number": "0", "skipped": "True", "complete": "False", "assignment": "3VE8AYVF8N5BS2NU6U3TMN50JMNF8V", "start_time": "1.51673692479e+12", "human_length": "14", "nodes_expanded": "999", "instance": "prb25861", "end_time": "1.51673694962e+12", "optimal_length": "16", "subject": "A18QU0YQB6Q8DF"}
{"rt": "132793.0", "trial_number": "0", "skipped": "False", "complete": "True", "assignment": "3IJXV6UZ1YR1KY4G6BFEG1DXR47RIC", "start_time": "1.51797381682e+12", "human_length": "111", "nodes_expanded": "999", "instance": "prb25861", "end_time": "1.51797394961e+12", "optimal_length": "16", "subject": "A18T3WK7J16C1B"}
{"rt": "143719.0", "trial_number": "0", "skipped": "False", "complete": "True", "assignment": "3PMBY0YE28B43VMUKKJ6EDF85RV9C8", "start_time": "1.51638800167e+12", "human_length": "75", "nodes_expanded": "999", "instance": "prb25861", "end_time": "1.51638814539e+12", "optimal_length": "16", "subject": "A191V7PT3DQKDP"}
{"rt": "38739.0", "trial_number": "0", "skipped": "False", "complete": "False", "assignment": "3H0W84IWBLAP4T2UASPNVMF5ZH7ER9", "start_time": "1.51755356228e+12", "human_length": "18", "nodes_expanded": "999", "instance": "prb25861", "end_time": "1.51755360102e+12", "optimal_length": "16", "subject": "A1AKX1C8GCVCTP"}
{"rt": "0.0", "trial_number": "1", "skipped": "False", "complete": "False", "assignment": "3H0W84IWBLAP4T2UASPNVMF5ZH7ER9", "start_time": "1.51755361626e+12", "human_length": "1", "nodes_expanded": "999", "instance": "prb25861", "end_time": "1.51755361626e+12", "optimal_length": "16", "subject": "A1AKX1C8GCVCTP"}
{"rt": "2164.0", "trial_number": "2", "skipped": "False", "complete": "False", "assignment": "3H0W84IWBLAP4T2UASPNVMF5ZH7ER9", "start_time": "1.51755361628e+12", "human_length": "2", "nodes_expanded": "999", "instance": "prb25861", "end_time": "1.51755361844e+12", "optimal_length": "16", "subject": "A1AKX1C8GCVCTP"}
{"rt": "69466.0", "trial_number": "3", "skipped": "True", "complete": "False", "assignment": "3H0W84IWBLAP4T2UASPNVMF5ZH7ER9", "start_time": "1.51755362925e+12", "human_length": "31", "nodes_expanded": "999", "instance": "prb25861", "end_time": "1.51755369871e+12", "optimal_length": "16", "subject": "A1AKX1C8GCVCTP"}
{"rt": "39608.0", "trial_number": "0", "skipped": "False", "complete": "True", "assignment": "3ZSANO2JCGFTBM23KS9Y3E51YP4FSQ", "start_time": "1.51814236774e+12", "human_length": "35", "nodes_expanded": "999", "instance": "prb25861", "end_time": "1.51814240735e+12", "optimal_length": "16", "subject": "A1F42D4L22K5ND"}
{"rt": "44722.0", "trial_number": "0", "skipped": "False", "complete": "False", "assignment": "3TS1AR6UQRM7SOIBWPBN8N9589Y7FV", "start_time": "1.51683915384e+12", "human_length": "32", "nodes_expanded": "999", "instance": "prb25861", "end_time": "1.51683919856e+12", "optimal_length": "16", "subject": "A1F4N58CAX8IMK"}
{"rt": "54527.0", "trial_number": "1", "skipped": "False", "complete": "False", "assignment": "35DR22AR5ES6RR89U7EJ1DXW91AX3P", "start_time": "1.51795459317e+12", "human_length": "46", "nodes_expanded": "999", "instance": "prb25861", "end_time": "1.51795464769e+12", "optimal_length": "16", "subject": "A1F4N58CAX8IMK"}
{"rt": "26836.0", "trial_number": "2", "skipped": "True", "complete": "False", "assignment": "35DR22AR5ES6RR89U7EJ1DXW91AX3P", "start_time": "1.51795465172e+12", "human_length": "23", "nodes_expanded": "999", "instance": "prb25861", "end_time": "1.51795467856e+12", "optimal_length": "16", "subject": "A1F4N58CAX8IMK"}
{"rt": "41009.0", "trial_number": "0", "skipped": "False", "complete": "False", "assignment": "33F859I567LE8WC74WB3GA7E94XBHW", "start_time": "1.517967498e+12", "human_length": "18", "nodes_expanded": "999", "instance": "prb25861", "end_time": "1.51796753901e+12", "optimal_length": "16", "subject": "A1GQS6USF2JEYG"}
{"rt": "26649.0", "trial_number": "1", "skipped": "False", "complete": "False", "assignment": "33F859I567LE8WC74WB3GA7E94XBHW", "start_time": "1.51796754188e+12", "human_length": "14", "nodes_expanded": "999", "instance": "prb25861", "end_time": "1.51796756853e+12", "optimal_length": "16", "subject": "A1GQS6USF2JEYG"}
{"rt": "62109.0", "trial_number": "2", "skipped": "False", "complete": "False", "assignment": "33F859I567LE8WC74WB3GA7E94XBHW", "start_time": "1.51796757115e+12", "human_length": "29", "nodes_expanded": "999", "instance": "prb25861", "end_time": "1.51796763326e+12", "optimal_length": "16", "subject": "A1GQS6USF2JEYG"}
{"rt": "0.0", "trial_number": "3", "skipped": "False", "complete": "False", "assignment": "33F859I567LE8WC74WB3GA7E94XBHW", "start_time": "1.51796763458e+12", "human_length": "1", "nodes_expanded": "999", "instance": "prb25861", "end_time": "1.51796763458e+12", "optimal_length": "16", "subject": "A1GQS6USF2JEYG"}
{"rt": "0.0", "trial_number": "4", "skipped": "False", "complete": "False", "assignment": "33F859I567LE8WC74WB3GA7E94XBHW", "start_time": "1.51796764178e+12", "human_length": "1", "nodes_expanded": "999", "instance": "prb25861", "end_time": "1.51796764178e+12", "optimal_length": "16", "subject": "A1GQS6USF2JEYG"}
{"rt": "0.0", "trial_number": "5", "skipped": "False", "complete": "False", "assignment": "33F859I567LE8WC74WB3GA7E94XBHW", "start_time": "1.51796764257e+12", "human_length": "1", "nodes_expanded": "999", "instance": "prb25861", "end_time": "1.51796764257e+12", "optimal_length": "16", "subject": "A1GQS6USF2JEYG"}
{"rt": "0.0", "trial_number": "6", "skipped": "False", "complete": "False", "assignment": "33F859I567LE8WC74WB3GA7E94XBHW", "start_time": "1.51796764291e+12", "human_length": "1", "nodes_expanded": "999", "instance": "prb25861", "end_time": "1.51796764291e+12", "optimal_length": "16", "subject": "A1GQS6USF2JEYG"}
{"rt": "27948.0", "trial_number": "7", "skipped": "False", "complete": "False", "assignment": "33F859I567LE8WC74WB3GA7E94XBHW", "start_time": "1.51796764529e+12", "human_length": "16", "nodes_expanded": "999", "instance": "prb25861", "end_time": "1.51796767323e+12", "optimal_length": "16", "subject": "A1GQS6USF2JEYG"}
{"rt": "30051.0", "trial_number": "8", "skipped": "True", "complete": "False", "assignment": "33F859I567LE8WC74WB3GA7E94XBHW", "start_time": "1.51796768328e+12", "human_length": "18", "nodes_expanded": "999", "instance": "prb25861", "end_time": "1.51796771333e+12", "optimal_length": "16", "subject": "A1GQS6USF2JEYG"}
{"rt": "37384.0", "trial_number": "0", "skipped": "True", "complete": "False", "assignment": "3XLBSAQ9Z5KDX59BX15UBFPNNHYZ7Q", "start_time": "1.51814635267e+12", "human_length": "34", "nodes_expanded": "999", "instance": "prb25861", "end_time": "1.51814639006e+12", "optimal_length": "16", "subject": "A1HFNOKU591WCY"}
{"rt": "77498.0", "trial_number": "0", "skipped": "False", "complete": "True", "assignment": "3FTF2T8WLSQDHTSZ1BJ7Q7MB14SW9H", "start_time": "1.51813679491e+12", "human_length": "52", "nodes_expanded": "999", "instance": "prb25861", "end_time": "1.51813687240e+12", "optimal_length": "16", "subject": "A1IUH9D7N69VS"}
{"rt": "55206.0", "trial_number": "0", "skipped": "True", "complete": "False", "assignment": "3VE8AYVF8N5BS2NU6U3TMN50MV38FP", "start_time": "1.51814377428e+12", "human_length": "19", "nodes_expanded": "999", "instance": "prb25861", "end_time": "1.51814382948e+12", "optimal_length": "16", "subject": "A1JN13098RIE78"}
{"rt": "0.0", "trial_number": "0", "skipped": "False", "complete": "False", "assignment": "3YW4XOSQKRTI0K0Z2YPDTDJVFABU1I", "start_time": "1.51683105792e+12", "human_length": "1", "nodes_expanded": "999", "instance": "prb25861", "end_time": "1.51683105792e+12", "optimal_length": "16", "subject": "A1LR0VQIHQUJAM"}
{"rt": "100284.0", "trial_number": "1", "skipped": "True", "complete": "False", "assignment": "3YW4XOSQKRTI0K0Z2YPDTDJVFABU1I", "start_time": "1.51683105792e+12", "human_length": "86", "nodes_expanded": "999", "instance": "prb25861", "end_time": "1.5168311582e+12", "optimal_length": "16", "subject": "A1LR0VQIHQUJAM"}
{"rt": "61739.0", "trial_number": "0", "skipped": "True", "complete": "False", "assignment": "31LM9EDVOM0C0BWUVMJXJINN3QPJNI", "start_time": "1.51752243056e+12", "human_length": "30", "nodes_expanded": "999", "instance": "prb25861", "end_time": "1.5175224923e+12", "optimal_length": "16", "subject": "A1NT8BT94ME6F5"}
{"rt": "55216.0", "trial_number": "0", "skipped": "False", "complete": "False", "assignment": "3RUIQRXJBCWS71H9MUFVM5WQ3SCLLJ", "start_time": "1.5181567752e+12", "human_length": "20", "nodes_expanded": "999", "instance": "prb25861", "end_time": "1.51815683041e+12", "optimal_length": "16", "subject": "A1SJRFJWFXSDH4"}
{"rt": "0.0", "trial_number": "1", "skipped": "False", "complete": "False", "assignment": "3RUIQRXJBCWS71H9MUFVM5WQ3SCLLJ", "start_time": "1.51815684569e+12", "human_length": "1", "nodes_expanded": "999", "instance": "prb25861", "end_time": "1.51815684569e+12", "optimal_length": "16", "subject": "A1SJRFJWFXSDH4"}
{"rt": "18792.0", "trial_number": "2", "skipped": "False", "complete": "False", "assignment": "3RUIQRXJBCWS71H9MUFVM5WQ3SCLLJ", "start_time": "1.51815684571e+12", "human_length": "4", "nodes_expanded": "999", "instance": "prb25861", "end_time": "1.5181568645e+12", "optimal_length": "16", "subject": "A1SJRFJWFXSDH4"}
{"rt": "0.0", "trial_number": "3", "skipped": "False", "complete": "False", "assignment": "3RUIQRXJBCWS71H9MUFVM5WQ3SCLLJ", "start_time": "1.51815688298e+12", "human_length": "1", "nodes_expanded": "999", "instance": "prb25861", "end_time": "1.51815688298e+12", "optimal_length": "16", "subject": "A1SJRFJWFXSDH4"}
{"rt": "35542.0", "trial_number": "4", "skipped": "False", "complete": "False", "assignment": "3RUIQRXJBCWS71H9MUFVM5WQ3SCLLJ", "start_time": "1.518156883e+12", "human_length": "4", "nodes_expanded": "999", "instance": "prb25861", "end_time": "1.51815691854e+12", "optimal_length": "16", "subject": "A1SJRFJWFXSDH4"}
{"rt": "56681.0", "trial_number": "5", "skipped": "False", "complete": "True", "assignment": "3RUIQRXJBCWS71H9MUFVM5WQ3SCLLJ", "start_time": "1.51815694286e+12", "human_length": "29", "nodes_expanded": "999", "instance": "prb25861", "end_time": "1.51815699954e+12", "optimal_length": "16", "subject": "A1SJRFJWFXSDH4"}
{"rt": "127592.0", "trial_number": "0", "skipped": "False", "complete": "True", "assignment": "3PB5A5BD0WED6OE679H5Q89HBDGG71", "start_time": "1.51795248155e+12", "human_length": "77", "nodes_expanded": "999", "instance": "prb25861", "end_time": "1.51795260914e+12", "optimal_length": "16", "subject": "A1USR9JCAMDGM3"}
{"rt": "69053.0", "trial_number": "0", "skipped": "True", "complete": "False", "assignment": "3XC1O3LBOTUGQEPEV3HM8W67X4RTLL", "start_time": "1.51813766358e+12", "human_length": "31", "nodes_expanded": "999", "instance": "prb25861", "end_time": "1.51813773263e+12", "optimal_length": "16", "subject": "A1ZTSCPETU3UJW"}
{"rt": "95505.0", "trial_number": "0", "skipped": "False", "complete": "False", "assignment": "34BBWHLWHBJ6SUL255PK30LEGY5IWG", "start_time": "1.51639324393e+12", "human_length": "26", "nodes_expanded": "999", "instance": "prb25861", "end_time": "1.51639333943e+12", "optimal_length": "16", "subject": "A214HWAW1PYWO8"}
{"rt": "50137.0", "trial_number": "1", "skipped": "False", "complete": "False", "assignment": "34BBWHLWHBJ6SUL255PK30LEGY5IWG", "start_time": "1.51639334129e+12", "human_length": "29", "nodes_expanded": "999", "instance": "prb25861", "end_time": "1.51639339143e+12", "optimal_length": "16", "subject": "A214HWAW1PYWO8"}
{"rt": "8189.0", "trial_number": "2", "skipped": "False", "complete": "False", "assignment": "34BBWHLWHBJ6SUL255PK30LEGY5IWG", "start_time": "1.5163933948e+12", "human_length": "9", "nodes_expanded": "999", "instance": "prb25861", "end_time": "1.51639340299e+12", "optimal_length": "16", "subject": "A214HWAW1PYWO8"}
{"rt": "38720.0", "trial_number": "3", "skipped": "True", "complete": "False", "assignment": "34BBWHLWHBJ6SUL255PK30LEGY5IWG", "start_time": "1.5163934044e+12", "human_length": "25", "nodes_expanded": "999", "instance": "prb25861", "end_time": "1.51639344312e+12", "optimal_length": "16", "subject": "A214HWAW1PYWO8"}
{"rt": "0.0", "trial_number": "0", "skipped": "False", "complete": "False", "assignment": "3IHR8NYAM89M0EPM8U9LH53ZJDTP4U", "start_time": "1.51682619465e+12", "human_length": "1", "nodes_expanded": "999", "instance": "prb25861", "end_time": "1.51682619465e+12", "optimal_length": "16", "subject": "A23437BMZ5T1FH"}
{"rt": "13457.0", "trial_number": "1", "skipped": "True", "complete": "False", "assignment": "3IHR8NYAM89M0EPM8U9LH53ZJDTP4U", "start_time": "1.51682619465e+12", "human_length": "21", "nodes_expanded": "999", "instance": "prb25861", "end_time": "1.51682620810e+12", "optimal_length": "16", "subject": "A23437BMZ5T1FH"}
{"rt": "43117.0", "trial_number": "0", "skipped": "False", "complete": "False", "assignment": "30IQTZXKALEAAZ9CBKW0ZFZP6O5X07", "start_time": "1.51794545732e+12", "human_length": "19", "nodes_expanded": "999", "instance": "prb25861", "end_time": "1.51794550044e+12", "optimal_length": "16", "subject": "A23XJ8I86R0O3B"}
{"rt": "90316.0", "trial_number": "1", "skipped": "False", "complete": "True", "assignment": "30IQTZXKALEAAZ9CBKW0ZFZP6O5X07", "start_time": "1.51794550511e+12", "human_length": "40", "nodes_expanded": "999", "instance": "prb25861", "end_time": "1.51794559543e+12", "optimal_length": "16", "subject": "A23XJ8I86R0O3B"}
{"rt": "150793.0", "trial_number": "0", "skipped": "False", "complete": "True", "assignment": "3ZV9H2YQQEFR2R3JK2IXZUJPXAF3WW", "start_time": "1.51630629375e+12", "human_length": "57", "nodes_expanded": "999", "instance": "prb25861", "end_time": "1.51630644454e+12", "optimal_length": "16", "subject": "A289D98Z4GAZ28"}
{"rt": "0.0", "trial_number": "0", "skipped": "False", "complete": "False", "assignment": "3X4MXAO0BHWJLTOLVSJTHSM54OHWRG", "start_time": "1.51682426231e+12", "human_length": "1", "nodes_expanded": "999", "instance": "prb25861", "end_time": "1.51682426231e+12", "optimal_length": "16", "subject": "A2IBQA01NR5N76"}
{"rt": "22450.0", "trial_number": "1", "skipped": "False", "complete": "False", "assignment": "3X4MXAO0BHWJLTOLVSJTHSM54OHWRG", "start_time": "1.51682420622e+12", "human_length": "3", "nodes_expanded": "999", "instance": "prb25861", "end_time": "1.51682422867e+12", "optimal_length": "16", "subject": "A2IBQA01NR5N76"}
{"rt": "97416.0", "trial_number": "2", "skipped": "False", "complete": "True", "assignment": "3X4MXAO0BHWJLTOLVSJTHSM54OHWRG", "start_time": "1.51682426231e+12", "human_length": "56", "nodes_expanded": "999", "instance": "prb25861", "end_time": "1.51682435973e+12", "optimal_length": "16", "subject": "A2IBQA01NR5N76"}
{"rt": "189714.0", "trial_number": "0", "skipped": "False", "complete": "True", "assignment": "3TYCR1GOTDRCCQYD1V64UK7OE48LZS", "start_time": "1.51639203522e+12", "human_length": "99", "nodes_expanded": "999", "instance": "prb25861", "end_time": "1.51639222493e+12", "optimal_length": "16", "subject": "A2MYB6MLQW0IGN"}
{"rt": "77735.0", "trial_number": "0", "skipped": "False", "complete": "True", "assignment": "3FUI0JHJPY6UBT1VAI7VUX8S3KH33W", "start_time": "1.51815230621e+12", "human_length": "58", "nodes_expanded": "999", "instance": "prb25861", "end_time": "1.51815238395e+12", "optimal_length": "16", "subject": "A2QIZ31TMHU0GD"}
{"rt": "29681.0", "trial_number": "0", "skipped": "True", "complete": "False", "assignment": "3TAYZSBPLMG9ASQRWXURJVBCPLN2SH", "start_time": "1.51813788281e+12", "human_length": "15", "nodes_expanded": "999", "instance": "prb25861", "end_time": "1.51813791249e+12", "optimal_length": "16", "subject": "A2RCYLKY072XXO"}
{"rt": "0.0", "trial_number": "0", "skipped": "False", "complete": "False", "assignment": "3IJXV6UZ1YR1KY4G6BFEG1DXP7SRI1", "start_time": "1.5167492726e+12", "human_length": "1", "nodes_expanded": "999", "instance": "prb25861", "end_time": "1.5167492726e+12", "optimal_length": "16", "subject": "A2RTJ6BDY0DZVZ"}
{"rt": "0.0", "trial_number": "1", "skipped": "False", "complete": "False", "assignment": "3IJXV6UZ1YR1KY4G6BFEG1DXP7SRI1", "start_time": "1.5167492726e+12", "human_length": "1", "nodes_expanded": "999", "instance": "prb25861", "end_time": "1.5167492726e+12", "optimal_length": "16", "subject": "A2RTJ6BDY0DZVZ"}
{"rt": "141836.0", "trial_number": "2", "skipped": "False", "complete": "True", "assignment": "3IJXV6UZ1YR1KY4G6BFEG1DXP7SRI1", "start_time": "1.5167492726e+12", "human_length": "61", "nodes_expanded": "999", "instance": "prb25861", "end_time": "1.51674941444e+12", "optimal_length": "16", "subject": "A2RTJ6BDY0DZVZ"}
{"rt": "141836.0", "trial_number": "0", "skipped": "False", "complete": "True", "assignment": "3IJXV6UZ1YR1KY4G6BFEG1DXP7SRI1", "start_time": "1.5167492726e+12", "human_length": "61", "nodes_expanded": "999", "instance": "prb25861", "end_time": "1.51674941444e+12", "optimal_length": "16", "subject": "A2RTJ6BDY0DZVZ"}
{"rt": "35147.0", "trial_number": "0", "skipped": "False", "complete": "False", "assignment": "3WSELTNVR4AZUVYAYCSWZIQW0J4ATB", "start_time": "1.51673915634e+12", "human_length": "13", "nodes_expanded": "999", "instance": "prb25861", "end_time": "1.51673919149e+12", "optimal_length": "16", "subject": "A2TQNX64349OZ9"}
{"rt": "0.0", "trial_number": "1", "skipped": "False", "complete": "False", "assignment": "3WSELTNVR4AZUVYAYCSWZIQW0J4ATB", "start_time": "1.51673919357e+12", "human_length": "1", "nodes_expanded": "999", "instance": "prb25861", "end_time": "1.51673919357e+12", "optimal_length": "16", "subject": "A2TQNX64349OZ9"}
{"rt": "0.0", "trial_number": "2", "skipped": "False", "complete": "False", "assignment": "3WSELTNVR4AZUVYAYCSWZIQW0J4ATB", "start_time": "1.51673915634e+12", "human_length": "1", "nodes_expanded": "999", "instance": "prb25861", "end_time": "1.51673915634e+12", "optimal_length": "16", "subject": "A2TQNX64349OZ9"}
{"rt": "0.0", "trial_number": "3", "skipped": "False", "complete": "False", "assignment": "3WSELTNVR4AZUVYAYCSWZIQW0J4ATB", "start_time": "1.51673919357e+12", "human_length": "1", "nodes_expanded": "999", "instance": "prb25861", "end_time": "1.51673919357e+12", "optimal_length": "16", "subject": "A2TQNX64349OZ9"}
{"rt": "0.0", "trial_number": "4", "skipped": "False", "complete": "False", "assignment": "3WSELTNVR4AZUVYAYCSWZIQW0J4ATB", "start_time": "1.51673915634e+12", "human_length": "1", "nodes_expanded": "999", "instance": "prb25861", "end_time": "1.51673915634e+12", "optimal_length": "16", "subject": "A2TQNX64349OZ9"}
{"rt": "34554.0", "trial_number": "5", "skipped": "False", "complete": "True", "assignment": "3WSELTNVR4AZUVYAYCSWZIQW0J4ATB", "start_time": "1.51673919357e+12", "human_length": "24", "nodes_expanded": "999", "instance": "prb25861", "end_time": "1.51673922813e+12", "optimal_length": "16", "subject": "A2TQNX64349OZ9"}
{"rt": "35147.0", "trial_number": "0", "skipped": "False", "complete": "False", "assignment": "3WSELTNVR4AZUVYAYCSWZIQW0J4ATB", "start_time": "1.51673915634e+12", "human_length": "13", "nodes_expanded": "999", "instance": "prb25861", "end_time": "1.51673919149e+12", "optimal_length": "16", "subject": "A2TQNX64349OZ9"}
{"rt": "34554.0", "trial_number": "1", "skipped": "False", "complete": "True", "assignment": "3WSELTNVR4AZUVYAYCSWZIQW0J4ATB", "start_time": "1.51673919357e+12", "human_length": "24", "nodes_expanded": "999", "instance": "prb25861", "end_time": "1.51673922813e+12", "optimal_length": "16", "subject": "A2TQNX64349OZ9"}
{"rt": "59068.0", "trial_number": "0", "skipped": "False", "complete": "True", "assignment": "37TD41K0AIHM8AITTQJXV8KY05QCSB", "start_time": "1.51752460358e+12", "human_length": "19", "nodes_expanded": "999", "instance": "prb25861", "end_time": "1.51752466265e+12", "optimal_length": "16", "subject": "A30KYQGABO7JER"}
{"rt": "70523.0", "trial_number": "0", "skipped": "False", "complete": "False", "assignment": "34HJIJKLP64Z5YMIU6IKNXSH7PDV4I", "start_time": "1.51794126897e+12", "human_length": "34", "nodes_expanded": "999", "instance": "prb25861", "end_time": "1.51794133949e+12", "optimal_length": "16", "subject": "A3CTXNQ2GXIQSP"}
{"rt": "95768.0", "trial_number": "1", "skipped": "True", "complete": "False", "assignment": "34HJIJKLP64Z5YMIU6IKNXSH7PDV4I", "start_time": "1.51794134659e+12", "human_length": "38", "nodes_expanded": "999", "instance": "prb25861", "end_time": "1.51794144236e+12", "optimal_length": "16", "subject": "A3CTXNQ2GXIQSP"}
{"rt": "24688.0", "trial_number": "0", "skipped": "False", "complete": "False", "assignment": "3TPWUS5F8A9FFRZ2DVTYSXNJ6BWWC6", "start_time": "1.5179419237e+12", "human_length": "9", "nodes_expanded": "999", "instance": "prb25861", "end_time": "1.51794194839e+12", "optimal_length": "16", "subject": "A3GXC3VG37CQ3G"}
{"rt": "16308.0", "trial_number": "1", "skipped": "False", "complete": "False", "assignment": "3TPWUS5F8A9FFRZ2DVTYSXNJ6BWWC6", "start_time": "1.51794195076e+12", "human_length": "7", "nodes_expanded": "999", "instance": "prb25861", "end_time": "1.51794196707e+12", "optimal_length": "16", "subject": "A3GXC3VG37CQ3G"}
{"rt": "37245.0", "trial_number": "2", "skipped": "False", "complete": "False", "assignment": "3TPWUS5F8A9FFRZ2DVTYSXNJ6BWWC6", "start_time": "1.51794196856e+12", "human_length": "21", "nodes_expanded": "999", "instance": "prb25861", "end_time": "1.5179420058e+12", "optimal_length": "16", "subject": "A3GXC3VG37CQ3G"}
{"rt": "21380.0", "trial_number": "3", "skipped": "False", "complete": "True", "assignment": "3TPWUS5F8A9FFRZ2DVTYSXNJ6BWWC6", "start_time": "1.51794201598e+12", "human_length": "19", "nodes_expanded": "999", "instance": "prb25861", "end_time": "1.51794203736e+12", "optimal_length": "16", "subject": "A3GXC3VG37CQ3G"}
{"rt": "53434.0", "trial_number": "0", "skipped": "False", "complete": "True", "assignment": "3STRJBFXOXZ5687WA35LTWTS7QZKTT", "start_time": "1.51794497682e+12", "human_length": "31", "nodes_expanded": "999", "instance": "prb25861", "end_time": "1.51794503026e+12", "optimal_length": "16", "subject": "A3OB6REG5CGHK1"}
{"rt": "38885.0", "trial_number": "0", "skipped": "False", "complete": "False", "assignment": "3X87C8JFV7JQ2BSCY8KSFD9F2ILSQK", "start_time": "1.51673776264e+12", "human_length": "13", "nodes_expanded": "999", "instance": "prb25861", "end_time": "1.51673780153e+12", "optimal_length": "16", "subject": "A3Q0XAGQ7TD7MP"}
{"rt": "154488.0", "trial_number": "1", "skipped": "False", "complete": "False", "assignment": "3X87C8JFV7JQ2BSCY8KSFD9F2ILSQK", "start_time": "1.51673780356e+12", "human_length": "54", "nodes_expanded": "999", "instance": "prb25861", "end_time": "1.51673795805e+12", "optimal_length": "16", "subject": "A3Q0XAGQ7TD7MP"}
{"rt": "0.0", "trial_number": "2", "skipped": "False", "complete": "False", "assignment": "3X87C8JFV7JQ2BSCY8KSFD9F2ILSQK", "start_time": "1.51673796076e+12", "human_length": "1", "nodes_expanded": "999", "instance": "prb25861", "end_time": "1.51673796076e+12", "optimal_length": "16", "subject": "A3Q0XAGQ7TD7MP"}
{"rt": "0.0", "trial_number": "3", "skipped": "False", "complete": "False", "assignment": "3X87C8JFV7JQ2BSCY8KSFD9F2ILSQK", "start_time": "1.51673776264e+12", "human_length": "1", "nodes_expanded": "999", "instance": "prb25861", "end_time": "1.51673776264e+12", "optimal_length": "16", "subject": "A3Q0XAGQ7TD7MP"}
{"rt": "0.0", "trial_number": "4", "skipped": "False", "complete": "False", "assignment": "3X87C8JFV7JQ2BSCY8KSFD9F2ILSQK", "start_time": "1.51673780356e+12", "human_length": "1", "nodes_expanded": "999", "instance": "prb25861", "end_time": "1.51673780356e+12", "optimal_length": "16", "subject": "A3Q0XAGQ7TD7MP"}
{"rt": "0.0", "trial_number": "5", "skipped": "False", "complete": "False", "assignment": "3X87C8JFV7JQ2BSCY8KSFD9F2ILSQK", "start_time": "1.51673796076e+12", "human_length": "1", "nodes_expanded": "999", "instance": "prb25861", "end_time": "1.51673796076e+12", "optimal_length": "16", "subject": "A3Q0XAGQ7TD7MP"}
{"rt": "0.0", "trial_number": "6", "skipped": "False", "complete": "False", "assignment": "3X87C8JFV7JQ2BSCY8KSFD9F2ILSQK", "start_time": "1.51673776264e+12", "human_length": "1", "nodes_expanded": "999", "instance": "prb25861", "end_time": "1.51673776264e+12", "optimal_length": "16", "subject": "A3Q0XAGQ7TD7MP"}
{"rt": "0.0", "trial_number": "7", "skipped": "False", "complete": "False", "assignment": "3X87C8JFV7JQ2BSCY8KSFD9F2ILSQK", "start_time": "1.51673780356e+12", "human_length": "1", "nodes_expanded": "999", "instance": "prb25861", "end_time": "1.51673780356e+12", "optimal_length": "16", "subject": "A3Q0XAGQ7TD7MP"}
{"rt": "83535.0", "trial_number": "8", "skipped": "False", "complete": "True", "assignment": "3X87C8JFV7JQ2BSCY8KSFD9F2ILSQK", "start_time": "1.51673796076e+12", "human_length": "32", "nodes_expanded": "999", "instance": "prb25861", "end_time": "1.5167380443e+12", "optimal_length": "16", "subject": "A3Q0XAGQ7TD7MP"}
{"rt": "52170.0", "trial_number": "9", "skipped": "False", "complete": "True", "assignment": "3GLB5JMZFY3TNXFGYMKRQ0JDXNTDGZ", "start_time": "1.51794681985e+12", "human_length": "23", "nodes_expanded": "999", "instance": "prb25861", "end_time": "1.51794687202e+12", "optimal_length": "16", "subject": "A3Q0XAGQ7TD7MP"}
{"rt": "38885.0", "trial_number": "0", "skipped": "False", "complete": "False", "assignment": "3X87C8JFV7JQ2BSCY8KSFD9F2ILSQK", "start_time": "1.51673776264e+12", "human_length": "13", "nodes_expanded": "999", "instance": "prb25861", "end_time": "1.51673780153e+12", "optimal_length": "16", "subject": "A3Q0XAGQ7TD7MP"}
{"rt": "154488.0", "trial_number": "1", "skipped": "False", "complete": "False", "assignment": "3X87C8JFV7JQ2BSCY8KSFD9F2ILSQK", "start_time": "1.51673780356e+12", "human_length": "54", "nodes_expanded": "999", "instance": "prb25861", "end_time": "1.51673795805e+12", "optimal_length": "16", "subject": "A3Q0XAGQ7TD7MP"}
{"rt": "83535.0", "trial_number": "2", "skipped": "False", "complete": "True", "assignment": "3X87C8JFV7JQ2BSCY8KSFD9F2ILSQK", "start_time": "1.51673796076e+12", "human_length": "32", "nodes_expanded": "999", "instance": "prb25861", "end_time": "1.5167380443e+12", "optimal_length": "16", "subject": "A3Q0XAGQ7TD7MP"}
{"rt": "52170.0", "trial_number": "3", "skipped": "False", "complete": "True", "assignment": "3GLB5JMZFY3TNXFGYMKRQ0JDXNTDGZ", "start_time": "1.51794681985e+12", "human_length": "23", "nodes_expanded": "999", "instance": "prb25861", "end_time": "1.51794687202e+12", "optimal_length": "16", "subject": "A3Q0XAGQ7TD7MP"}
{"rt": "1381027.0", "trial_number": "0", "skipped": "True", "complete": "False", "assignment": "3VBEN272ML7ZPMYYVCFGLZ5DV7CGS0", "start_time": "1.51638895215e+12", "human_length": "187", "nodes_expanded": "999", "instance": "prb25861", "end_time": "1.51639033318e+12", "optimal_length": "16", "subject": "A3VZJ2T28HAQ2A"}
{"rt": "34810.0", "trial_number": "0", "skipped": "False", "complete": "False", "assignment": "3M0BCWMB8W4W5M7WZVX3HDH1P53WB1", "start_time": "1.51815849731e+12", "human_length": "19", "nodes_expanded": "999", "instance": "prb25861", "end_time": "1.51815853212e+12", "optimal_length": "16", "subject": "A53S7J4JGWG38"}
{"rt": "9432.0", "trial_number": "1", "skipped": "False", "complete": "False", "assignment": "3M0BCWMB8W4W5M7WZVX3HDH1P53WB1", "start_time": "1.51815853364e+12", "human_length": "6", "nodes_expanded": "999", "instance": "prb25861", "end_time": "1.51815854307e+12", "optimal_length": "16", "subject": "A53S7J4JGWG38"}
{"rt": "37806.0", "trial_number": "2", "skipped": "False", "complete": "False", "assignment": "3M0BCWMB8W4W5M7WZVX3HDH1P53WB1", "start_time": "1.51815854853e+12", "human_length": "17", "nodes_expanded": "999", "instance": "prb25861", "end_time": "1.51815858633e+12", "optimal_length": "16", "subject": "A53S7J4JGWG38"}
{"rt": "51155.0", "trial_number": "3", "skipped": "True", "complete": "False", "assignment": "3M0BCWMB8W4W5M7WZVX3HDH1P53WB1", "start_time": "1.51815859447e+12", "human_length": "23", "nodes_expanded": "999", "instance": "prb25861", "end_time": "1.51815864562e+12", "optimal_length": "16", "subject": "A53S7J4JGWG38"}
{"rt": "0.0", "trial_number": "0", "skipped": "False", "complete": "False", "assignment": "34T446B1C1MM71YHKO0DL2EF3BLC0W", "start_time": "1.51673484046e+12", "human_length": "1", "nodes_expanded": "999", "instance": "prb25861", "end_time": "1.51673484046e+12", "optimal_length": "16", "subject": "ABL3H3O3BI8ZD"}
{"rt": "0.0", "trial_number": "1", "skipped": "False", "complete": "False", "assignment": "34T446B1C1MM71YHKO0DL2EF3BLC0W", "start_time": "1.51673484046e+12", "human_length": "1", "nodes_expanded": "999", "instance": "prb25861", "end_time": "1.51673484046e+12", "optimal_length": "16", "subject": "ABL3H3O3BI8ZD"}
{"rt": "31588.0", "trial_number": "2", "skipped": "True", "complete": "False", "assignment": "34T446B1C1MM71YHKO0DL2EF3BLC0W", "start_time": "1.51673484046e+12", "human_length": "62", "nodes_expanded": "999", "instance": "prb25861", "end_time": "1.51673487205e+12", "optimal_length": "16", "subject": "ABL3H3O3BI8ZD"}
{"rt": "31588.0", "trial_number": "0", "skipped": "True", "complete": "False", "assignment": "34T446B1C1MM71YHKO0DL2EF3BLC0W", "start_time": "1.51673484046e+12", "human_length": "20", "nodes_expanded": "999", "instance": "prb25861", "end_time": "1.51673487205e+12", "optimal_length": "16", "subject": "ABL3H3O3BI8ZD"}
{"rt": "63952.0", "trial_number": "0", "skipped": "False", "complete": "True", "assignment": "3IXEICO793RY7TM78ZBKJDOA7ADT6Q", "start_time": "1.51816967482e+12", "human_length": "51", "nodes_expanded": "999", "instance": "prb25861", "end_time": "1.51816973877e+12", "optimal_length": "16", "subject": "ALH1K6ZAQQMN7"}
{"rt": "140018.0", "trial_number": "0", "skipped": "False", "complete": "True", "assignment": "3HWRJOOET6A15827PHPSLWK1MOYSEU", "start_time": "1.51814541231e+12", "human_length": "104", "nodes_expanded": "999", "instance": "prb25861", "end_time": "1.51814555233e+12", "optimal_length": "16", "subject": "AO1QGAUZ85T6L"}
{"rt": "428393.0", "trial_number": "0", "skipped": "False", "complete": "True", "assignment": "3AZHRG4CU5SYU12YRVPCSZALW5003R", "start_time": "1.51630559905e+12", "human_length": "181", "nodes_expanded": "999", "instance": "prb25861", "end_time": "1.51630602744e+12", "optimal_length": "16", "subject": "ARWF605I7RWM7"}
{"rt": "35047.0", "trial_number": "0", "skipped": "True", "complete": "False", "assignment": "33PPO7FECWN7JOLBOAKUBCWTC0AIDL", "start_time": "1.51795094453e+12", "human_length": "14", "nodes_expanded": "999", "instance": "prb25861", "end_time": "1.51795097958e+12", "optimal_length": "16", "subject": "AXKM02NVXNGOM"}
