{"meta_move": "drag_end", "rt": "2548.0", "trial_number": "3", "pre_actions": "1", "move": "4@4", "instance": "prb20059", "distance_to_goal": "NA", "progress": "NA", "move_number": "0", "optimal_length": "7", "subject": "A12723JDRPT207:3U84XHCDIDLGEIRSV37N835DT5LZ4W"}
{"meta_move": "drag_end", "rt": "920.0", "trial_number": "3", "pre_actions": "1", "move": "6@3", "instance": "prb20059", "distance_to_goal": "NA", "progress": "NA", "move_number": "1", "optimal_length": "7", "subject": "A12723JDRPT207:3U84XHCDIDLGEIRSV37N835DT5LZ4W"}
{"meta_move": "drag_end", "rt": "751.0", "trial_number": "3", "pre_actions": "1", "move": "3@24", "instance": "prb20059", "distance_to_goal": "NA", "progress": "NA", "move_number": "2", "optimal_length": "7", "subject": "A12723JDRPT207:3U84XHCDIDLGEIRSV37N835DT5LZ4W"}
{"meta_move": "drag_end", "rt": "641.0", "trial_number": "3", "pre_actions": "1", "move": "7@30", "instance": "prb20059", "distance_to_goal": "NA", "progress": "NA", "move_number": "3", "optimal_length": "7", "subject": "A12723JDRPT207:3U84XHCDIDLGEIRSV37N835DT5LZ4W"}
{"meta_move": "drag_end", "rt": "1150.0", "trial_number": "3", "pre_actions": "1", "move": "6@21", "instance": "prb20059", "distance_to_goal": "NA", "progress": "NA", "move_number": "4", "optimal_length": "7", "subject": "A12723JDRPT207:3U84XHCDIDLGEIRSV37N835DT5LZ4W"}
{"meta_move": "drag_end", "rt": "1163.0", "trial_number": "3", "pre_actions": "1", "move": "4@22", "instance": "prb20059", "distance_to_goal": "NA", "progress": "NA", "move_number": "5", "optimal_length": "7", "subject": "A12723JDRPT207:3U84XHCDIDLGEIRSV37N835DT5LZ4W"}
{"meta_move": "drag_end", "rt": "939.0", "trial_number": "3", "pre_actions": "1", "move": "5@5", "instance": "prb20059", "distance_to_goal": "NA", "progress": "NA", "move_number": "6", "optimal_length": "7", "subject": "A12723JDRPT207:3U84XHCDIDLGEIRSV37N835DT5LZ4W"}
{"meta_move": "win", "rt": "938.0", "trial_number": "3", "pre_actions": "1", "move": "r@12", "instance": "prb20059", "distance_to_goal": "1", "progress": "NA", "move_number": "7", "optimal_length": "7", "subject": "A12723JDRPT207:3U84XHCDIDLGEIRSV37N835DT5LZ4W"}
{"meta_move": "drag_end", "rt": "142.0", "trial_number": "0", "pre_actions": "0", "move": "r@16", "instance": "prb20059", "distance_to_goal": "NA", "progress": "NA", "move_number": "7", "optimal_length": "7", "subject": "A12723JDRPT207:3U84XHCDIDLGEIRSV37N835DT5LZ4W"}
{"meta_move": "drag_end", "rt": "16442.0", "trial_number": "1", "pre_actions": "1", "move": "0@18", "instance": "prb20059", "distance_to_goal": "NA", "progress": "NA", "move_number": "0", "optimal_length": "7", "subject": "A15781PHGW377Y:3YW4XOSQKRTI0K0Z2YPDTDJVFABU1I"}
{"meta_move": "drag_end", "rt": "1024.0", "trial_number": "1", "pre_actions": "1", "move": "3@24", "instance": "prb20059", "distance_to_goal": "NA", "progress": "NA", "move_number": "1", "optimal_length": "7", "subject": "A15781PHGW377Y:3YW4XOSQKRTI0K0Z2YPDTDJVFABU1I"}
{"meta_move": "drag_end", "rt": "1244.0", "trial_number": "1", "pre_actions": "1", "move": "7@30", "instance": "prb20059", "distance_to_goal": "NA", "progress": "NA", "move_number": "2", "optimal_length": "7", "subject": "A15781PHGW377Y:3YW4XOSQKRTI0K0Z2YPDTDJVFABU1I"}
{"meta_move": "drag_end", "rt": "1657.0", "trial_number": "1", "pre_actions": "1", "move": "6@21", "instance": "prb20059", "distance_to_goal": "NA", "progress": "NA", "move_number": "3", "optimal_length": "7", "subject": "A15781PHGW377Y:3YW4XOSQKRTI0K0Z2YPDTDJVFABU1I"}
{"meta_move": "drag_end", "rt": "930.0", "trial_number": "1", "pre_actions": "1", "move": "4@22", "instance": "prb20059", "distance_to_goal": "NA", "progress": "NA", "move_number": "4", "optimal_length": "7", "subject": "A15781PHGW377Y:3YW4XOSQKRTI0K0Z2YPDTDJVFABU1I"}
{"meta_move": "drag_end", "rt": "751.0", "trial_number": "1", "pre_actions": "1", "move": "5@5", "instance": "prb20059", "distance_to_goal": "NA", "progress": "NA", "move_number": "5", "optimal_length": "7", "subject": "A15781PHGW377Y:3YW4XOSQKRTI0K0Z2YPDTDJVFABU1I"}
{"meta_move": "win", "rt": "1004.0", "trial_number": "1", "pre_actions": "1", "move": "r@12", "instance": "prb20059", "distance_to_goal": "1", "progress": "NA", "move_number": "6", "optimal_length": "7", "subject": "A15781PHGW377Y:3YW4XOSQKRTI0K0Z2YPDTDJVFABU1I"}
{"meta_move": "drag_end", "rt": "109.0", "trial_number": "0", "pre_actions": "0", "move": "r@16", "instance": "prb20059", "distance_to_goal": "NA", "progress": "NA", "move_number": "6", "optimal_length": "7", "subject": "A15781PHGW377Y:3YW4XOSQKRTI0K0Z2YPDTDJVFABU1I"}
{"meta_move": "drag_end", "rt": "8820.0", "trial_number": "1", "pre_actions": "1", "move": "4@22", "instance": "prb20059", "distance_to_goal": "NA", "progress": "NA", "move_number": "0", "optimal_length": "7", "subject": "A15FXHC1CVNW31:3TS1AR6UQRM7SOIBWPBN8N9589Y7FV"}
{"meta_move": "drag_end", "rt": "937.0", "trial_number": "1", "pre_actions": "1", "move": "3@24", "instance": "prb20059", "distance_to_goal": "NA", "progress": "NA", "move_number": "1", "optimal_length": "7", "subject": "A15FXHC1CVNW31:3TS1AR6UQRM7SOIBWPBN8N9589Y7FV"}
{"meta_move": "drag_end", "rt": "615.0", "trial_number": "1", "pre_actions": "1", "move": "7@30", "instance": "prb20059", "distance_to_goal": "NA", "progress": "NA", "move_number": "2", "optimal_length": "7", "subject": "A15FXHC1CVNW31:3TS1AR6UQRM7SOIBWPBN8N9589Y7FV"}
{"meta_move": "drag_end", "rt": "970.0", "trial_number": "1", "pre_actions": "1", "move": "6@21", "instance": "prb20059", "distance_to_goal": "NA", "progress": "NA", "move_number": "3", "optimal_length": "7", "subject": "A15FXHC1CVNW31:3TS1AR6UQRM7SOIBWPBN8N9589Y7FV"}
{"meta_move": "drag_end", "rt": "1569.0", "trial_number": "1", "pre_actions": "1", "move": "4@4", "instance": "prb20059", "distance_to_goal": "NA", "progress": "NA", "move_number": "4", "optimal_length": "7", "subject": "A15FXHC1CVNW31:3TS1AR6UQRM7SOIBWPBN8N9589Y7FV"}
{"meta_move": "drag_end", "rt": "651.0", "trial_number": "1", "pre_actions": "1", "move": "6@3", "instance": "prb20059", "distance_to_goal": "NA", "progress": "NA", "move_number": "5", "optimal_length": "7", "subject": "A15FXHC1CVNW31:3TS1AR6UQRM7SOIBWPBN8N9589Y7FV"}
{"meta_move": "drag_end", "rt": "726.0", "trial_number": "1", "pre_actions": "1", "move": "0@22", "instance": "prb20059", "distance_to_goal": "NA", "progress": "NA", "move_number": "6", "optimal_length": "7", "subject": "A15FXHC1CVNW31:3TS1AR6UQRM7SOIBWPBN8N9589Y7FV"}
{"meta_move": "drag_end", "rt": "772.0", "trial_number": "1", "pre_actions": "1", "move": "6@21", "instance": "prb20059", "distance_to_goal": "NA", "progress": "NA", "move_number": "7", "optimal_length": "7", "subject": "A15FXHC1CVNW31:3TS1AR6UQRM7SOIBWPBN8N9589Y7FV"}
{"meta_move": "drag_end", "rt": "1758.0", "trial_number": "1", "pre_actions": "1", "move": "6@3", "instance": "prb20059", "distance_to_goal": "NA", "progress": "NA", "move_number": "8", "optimal_length": "7", "subject": "A15FXHC1CVNW31:3TS1AR6UQRM7SOIBWPBN8N9589Y7FV"}
{"meta_move": "drag_end", "rt": "2260.0", "trial_number": "1", "pre_actions": "1", "move": "0@18", "instance": "prb20059", "distance_to_goal": "NA", "progress": "NA", "move_number": "9", "optimal_length": "7", "subject": "A15FXHC1CVNW31:3TS1AR6UQRM7SOIBWPBN8N9589Y7FV"}
{"meta_move": "drag_end", "rt": "1932.0", "trial_number": "1", "pre_actions": "1", "move": "6@21", "instance": "prb20059", "distance_to_goal": "NA", "progress": "NA", "move_number": "10", "optimal_length": "7", "subject": "A15FXHC1CVNW31:3TS1AR6UQRM7SOIBWPBN8N9589Y7FV"}
{"meta_move": "drag_end", "rt": "513.0", "trial_number": "1", "pre_actions": "1", "move": "4@22", "instance": "prb20059", "distance_to_goal": "NA", "progress": "NA", "move_number": "11", "optimal_length": "7", "subject": "A15FXHC1CVNW31:3TS1AR6UQRM7SOIBWPBN8N9589Y7FV"}
{"meta_move": "drag_end", "rt": "497.0", "trial_number": "1", "pre_actions": "1", "move": "5@5", "instance": "prb20059", "distance_to_goal": "NA", "progress": "NA", "move_number": "12", "optimal_length": "7", "subject": "A15FXHC1CVNW31:3TS1AR6UQRM7SOIBWPBN8N9589Y7FV"}
{"meta_move": "win", "rt": "646.0", "trial_number": "1", "pre_actions": "1", "move": "r@12", "instance": "prb20059", "distance_to_goal": "1", "progress": "NA", "move_number": "13", "optimal_length": "7", "subject": "A15FXHC1CVNW31:3TS1AR6UQRM7SOIBWPBN8N9589Y7FV"}
{"meta_move": "drag_end", "rt": "87.0", "trial_number": "0", "pre_actions": "0", "move": "r@16", "instance": "prb20059", "distance_to_goal": "NA", "progress": "NA", "move_number": "13", "optimal_length": "7", "subject": "A15FXHC1CVNW31:3TS1AR6UQRM7SOIBWPBN8N9589Y7FV"}
{"meta_move": "drag_end", "rt": "4330.0", "trial_number": "3", "pre_actions": "1", "move": "7@30", "instance": "prb20059", "distance_to_goal": "NA", "progress": "NA", "move_number": "0", "optimal_length": "7", "subject": "A18QU0YQB6Q8DF:3VE8AYVF8N5BS2NU6U3TMN50JMNF8V"}
{"meta_move": "drag_end", "rt": "1377.0", "trial_number": "3", "pre_actions": "1", "move": "3@24", "instance": "prb20059", "distance_to_goal": "NA", "progress": "NA", "move_number": "1", "optimal_length": "7", "subject": "A18QU0YQB6Q8DF:3VE8AYVF8N5BS2NU6U3TMN50JMNF8V"}
{"meta_move": "drag_end", "rt": "2195.0", "trial_number": "3", "pre_actions": "1", "move": "0@18", "instance": "prb20059", "distance_to_goal": "NA", "progress": "NA", "move_number": "2", "optimal_length": "7", "subject": "A18QU0YQB6Q8DF:3VE8AYVF8N5BS2NU6U3TMN50JMNF8V"}
{"meta_move": "drag_end", "rt": "1531.0", "trial_number": "3", "pre_actions": "1", "move": "6@21", "instance": "prb20059", "distance_to_goal": "NA", "progress": "NA", "move_number": "3", "optimal_length": "7", "subject": "A18QU0YQB6Q8DF:3VE8AYVF8N5BS2NU6U3TMN50JMNF8V"}
{"meta_move": "drag_end", "rt": "1114.0", "trial_number": "3", "pre_actions": "1", "move": "4@22", "instance": "prb20059", "distance_to_goal": "NA", "progress": "NA", "move_number": "4", "optimal_length": "7", "subject": "A18QU0YQB6Q8DF:3VE8AYVF8N5BS2NU6U3TMN50JMNF8V"}
{"meta_move": "drag_end", "rt": "1142.0", "trial_number": "3", "pre_actions": "1", "move": "5@5", "instance": "prb20059", "distance_to_goal": "NA", "progress": "NA", "move_number": "5", "optimal_length": "7", "subject": "A18QU0YQB6Q8DF:3VE8AYVF8N5BS2NU6U3TMN50JMNF8V"}
{"meta_move": "win", "rt": "1053.0", "trial_number": "3", "pre_actions": "1", "move": "r@12", "instance": "prb20059", "distance_to_goal": "1", "progress": "NA", "move_number": "6", "optimal_length": "7", "subject": "A18QU0YQB6Q8DF:3VE8AYVF8N5BS2NU6U3TMN50JMNF8V"}
{"meta_move": "drag_end", "rt": "325.0", "trial_number": "0", "pre_actions": "0", "move": "r@16", "instance": "prb20059", "distance_to_goal": "NA", "progress": "NA", "move_number": "6", "optimal_length": "7", "subject": "A18QU0YQB6Q8DF:3VE8AYVF8N5BS2NU6U3TMN50JMNF8V"}
{"meta_move": "drag_end", "rt": "1913.0", "trial_number": "1", "pre_actions": "1", "move": "0@18", "instance": "prb20059", "distance_to_goal": "NA", "progress": "NA", "move_number": "0", "optimal_length": "7", "subject": "A191V7PT3DQKDP:3PMBY0YE28B43VMUKKJ6EDF85RV9C8"}
{"meta_move": "drag_end", "rt": "523.0", "trial_number": "1", "pre_actions": "1", "move": "3@24", "instance": "prb20059", "distance_to_goal": "NA", "progress": "NA", "move_number": "1", "optimal_length": "7", "subject": "A191V7PT3DQKDP:3PMBY0YE28B43VMUKKJ6EDF85RV9C8"}
{"meta_move": "drag_end", "rt": "494.0", "trial_number": "1", "pre_actions": "1", "move": "7@30", "instance": "prb20059", "distance_to_goal": "NA", "progress": "NA", "move_number": "2", "optimal_length": "7", "subject": "A191V7PT3DQKDP:3PMBY0YE28B43VMUKKJ6EDF85RV9C8"}
{"meta_move": "drag_end", "rt": "543.0", "trial_number": "1", "pre_actions": "1", "move": "6@21", "instance": "prb20059", "distance_to_goal": "NA", "progress": "NA", "move_number": "3", "optimal_length": "7", "subject": "A191V7PT3DQKDP:3PMBY0YE28B43VMUKKJ6EDF85RV9C8"}
{"meta_move": "drag_end", "rt": "488.0", "trial_number": "1", "pre_actions": "1", "move": "4@22", "instance": "prb20059", "distance_to_goal": "NA", "progress": "NA", "move_number": "4", "optimal_length": "7", "subject": "A191V7PT3DQKDP:3PMBY0YE28B43VMUKKJ6EDF85RV9C8"}
{"meta_move": "drag_end", "rt": "416.0", "trial_number": "1", "pre_actions": "1", "move": "5@5", "instance": "prb20059", "distance_to_goal": "NA", "progress": "NA", "move_number": "5", "optimal_length": "7", "subject": "A191V7PT3DQKDP:3PMBY0YE28B43VMUKKJ6EDF85RV9C8"}
{"meta_move": "win", "rt": "836.0", "trial_number": "1", "pre_actions": "1", "move": "r@12", "instance": "prb20059", "distance_to_goal": "1", "progress": "NA", "move_number": "6", "optimal_length": "7", "subject": "A191V7PT3DQKDP:3PMBY0YE28B43VMUKKJ6EDF85RV9C8"}
{"meta_move": "drag_end", "rt": "275.0", "trial_number": "0", "pre_actions": "0", "move": "r@16", "instance": "prb20059", "distance_to_goal": "NA", "progress": "NA", "move_number": "6", "optimal_length": "7", "subject": "A191V7PT3DQKDP:3PMBY0YE28B43VMUKKJ6EDF85RV9C8"}
{"meta_move": "drag_end", "rt": "1704.0", "trial_number": "2", "pre_actions": "1", "move": "5@5", "instance": "prb20059", "distance_to_goal": "NA", "progress": "NA", "move_number": "0", "optimal_length": "7", "subject": "A1F4N58CAX8IMK:3TS1AR6UQRM7SOIBWPBN8N9589Y7FV"}
{"meta_move": "drag_end", "rt": "719.0", "trial_number": "2", "pre_actions": "1", "move": "4@22", "instance": "prb20059", "distance_to_goal": "NA", "progress": "NA", "move_number": "1", "optimal_length": "7", "subject": "A1F4N58CAX8IMK:3TS1AR6UQRM7SOIBWPBN8N9589Y7FV"}
{"meta_move": "drag_end", "rt": "896.0", "trial_number": "2", "pre_actions": "1", "move": "6@3", "instance": "prb20059", "distance_to_goal": "NA", "progress": "NA", "move_number": "2", "optimal_length": "7", "subject": "A1F4N58CAX8IMK:3TS1AR6UQRM7SOIBWPBN8N9589Y7FV"}
{"meta_move": "drag_end", "rt": "713.0", "trial_number": "2", "pre_actions": "1", "move": "0@18", "instance": "prb20059", "distance_to_goal": "NA", "progress": "NA", "move_number": "3", "optimal_length": "7", "subject": "A1F4N58CAX8IMK:3TS1AR6UQRM7SOIBWPBN8N9589Y7FV"}
{"meta_move": "drag_end", "rt": "831.0", "trial_number": "2", "pre_actions": "1", "move": "3@24", "instance": "prb20059", "distance_to_goal": "NA", "progress": "NA", "move_number": "4", "optimal_length": "7", "subject": "A1F4N58CAX8IMK:3TS1AR6UQRM7SOIBWPBN8N9589Y7FV"}
{"meta_move": "drag_end", "rt": "722.0", "trial_number": "2", "pre_actions": "1", "move": "7@30", "instance": "prb20059", "distance_to_goal": "NA", "progress": "NA", "move_number": "5", "optimal_length": "7", "subject": "A1F4N58CAX8IMK:3TS1AR6UQRM7SOIBWPBN8N9589Y7FV"}
{"meta_move": "drag_end", "rt": "1215.0", "trial_number": "2", "pre_actions": "1", "move": "6@21", "instance": "prb20059", "distance_to_goal": "NA", "progress": "NA", "move_number": "6", "optimal_length": "7", "subject": "A1F4N58CAX8IMK:3TS1AR6UQRM7SOIBWPBN8N9589Y7FV"}
{"meta_move": "win", "rt": "783.0", "trial_number": "2", "pre_actions": "1", "move": "r@12", "instance": "prb20059", "distance_to_goal": "1", "progress": "NA", "move_number": "7", "optimal_length": "7", "subject": "A1F4N58CAX8IMK:3TS1AR6UQRM7SOIBWPBN8N9589Y7FV"}
{"meta_move": "drag_end", "rt": "120.0", "trial_number": "0", "pre_actions": "0", "move": "r@16", "instance": "prb20059", "distance_to_goal": "NA", "progress": "NA", "move_number": "7", "optimal_length": "7", "subject": "A1F4N58CAX8IMK:3TS1AR6UQRM7SOIBWPBN8N9589Y7FV"}
{"meta_move": "drag_end", "rt": "9327.0", "trial_number": "1", "pre_actions": "1", "move": "3@24", "instance": "prb20059", "distance_to_goal": "NA", "progress": "NA", "move_number": "0", "optimal_length": "7", "subject": "A1LR0VQIHQUJAM:3YW4XOSQKRTI0K0Z2YPDTDJVFABU1I"}
{"meta_move": "drag_end", "rt": "522.0", "trial_number": "1", "pre_actions": "1", "move": "7@30", "instance": "prb20059", "distance_to_goal": "NA", "progress": "NA", "move_number": "1", "optimal_length": "7", "subject": "A1LR0VQIHQUJAM:3YW4XOSQKRTI0K0Z2YPDTDJVFABU1I"}
{"meta_move": "drag_end", "rt": "522.0", "trial_number": "1", "pre_actions": "1", "move": "0@18", "instance": "prb20059", "distance_to_goal": "NA", "progress": "NA", "move_number": "2", "optimal_length": "7", "subject": "A1LR0VQIHQUJAM:3YW4XOSQKRTI0K0Z2YPDTDJVFABU1I"}
{"meta_move": "drag_end", "rt": "1226.0", "trial_number": "1", "pre_actions": "1", "move": "6@21", "instance": "prb20059", "distance_to_goal": "NA", "progress": "NA", "move_number": "3", "optimal_length": "7", "subject": "A1LR0VQIHQUJAM:3YW4XOSQKRTI0K0Z2YPDTDJVFABU1I"}
{"meta_move": "drag_end", "rt": "607.0", "trial_number": "1", "pre_actions": "1", "move": "4@22", "instance": "prb20059", "distance_to_goal": "NA", "progress": "NA", "move_number": "4", "optimal_length": "7", "subject": "A1LR0VQIHQUJAM:3YW4XOSQKRTI0K0Z2YPDTDJVFABU1I"}
{"meta_move": "drag_end", "rt": "1162.0", "trial_number": "1", "pre_actions": "1", "move": "5@5", "instance": "prb20059", "distance_to_goal": "NA", "progress": "NA", "move_number": "5", "optimal_length": "7", "subject": "A1LR0VQIHQUJAM:3YW4XOSQKRTI0K0Z2YPDTDJVFABU1I"}
{"meta_move": "win", "rt": "2497.0", "trial_number": "1", "pre_actions": "1", "move": "r@12", "instance": "prb20059", "distance_to_goal": "1", "progress": "NA", "move_number": "6", "optimal_length": "7", "subject": "A1LR0VQIHQUJAM:3YW4XOSQKRTI0K0Z2YPDTDJVFABU1I"}
{"meta_move": "drag_end", "rt": "101.0", "trial_number": "0", "pre_actions": "0", "move": "r@16", "instance": "prb20059", "distance_to_goal": "NA", "progress": "NA", "move_number": "6", "optimal_length": "7", "subject": "A1LR0VQIHQUJAM:3YW4XOSQKRTI0K0Z2YPDTDJVFABU1I"}
{"meta_move": "drag_end", "rt": "15958.0", "trial_number": "2", "pre_actions": "1", "move": "0@18", "instance": "prb20059", "distance_to_goal": "NA", "progress": "NA", "move_number": "0", "optimal_length": "7", "subject": "A1XDMS0KFSF5JW:3M0BCWMB8W4W5M7WZVX3HDH1M3FBWL"}
{"meta_move": "drag_end", "rt": "1106.0", "trial_number": "2", "pre_actions": "1", "move": "3@24", "instance": "prb20059", "distance_to_goal": "NA", "progress": "NA", "move_number": "1", "optimal_length": "7", "subject": "A1XDMS0KFSF5JW:3M0BCWMB8W4W5M7WZVX3HDH1M3FBWL"}
{"meta_move": "drag_end", "rt": "931.0", "trial_number": "2", "pre_actions": "1", "move": "7@30", "instance": "prb20059", "distance_to_goal": "NA", "progress": "NA", "move_number": "2", "optimal_length": "7", "subject": "A1XDMS0KFSF5JW:3M0BCWMB8W4W5M7WZVX3HDH1M3FBWL"}
{"meta_move": "drag_end", "rt": "1164.0", "trial_number": "2", "pre_actions": "1", "move": "6@9", "instance": "prb20059", "distance_to_goal": "NA", "progress": "NA", "move_number": "3", "optimal_length": "7", "subject": "A1XDMS0KFSF5JW:3M0BCWMB8W4W5M7WZVX3HDH1M3FBWL"}
{"meta_move": "drag_end", "rt": "585.0", "trial_number": "2", "pre_actions": "1", "move": "6@9", "instance": "prb20059", "distance_to_goal": "NA", "progress": "NA", "move_number": "3", "optimal_length": "7", "subject": "A1XDMS0KFSF5JW:3M0BCWMB8W4W5M7WZVX3HDH1M3FBWL"}
{"meta_move": "drag_end", "rt": "1298.0", "trial_number": "2", "pre_actions": "1", "move": "3@24", "instance": "prb20059", "distance_to_goal": "NA", "progress": "NA", "move_number": "3", "optimal_length": "7", "subject": "A1XDMS0KFSF5JW:3M0BCWMB8W4W5M7WZVX3HDH1M3FBWL"}
{"meta_move": "drag_end", "rt": "14496.0", "trial_number": "3", "pre_actions": "1", "move": "6@3", "instance": "prb20059", "distance_to_goal": "NA", "progress": "NA", "move_number": "0", "optimal_length": "7", "subject": "A1XDMS0KFSF5JW:3M0BCWMB8W4W5M7WZVX3HDH1M3FBWL"}
{"meta_move": "drag_end", "rt": "1997.0", "trial_number": "3", "pre_actions": "1", "move": "6@9", "instance": "prb20059", "distance_to_goal": "NA", "progress": "NA", "move_number": "1", "optimal_length": "7", "subject": "A1XDMS0KFSF5JW:3M0BCWMB8W4W5M7WZVX3HDH1M3FBWL"}
{"meta_move": "drag_end", "rt": "6956.0", "trial_number": "3", "pre_actions": "1", "move": "3@24", "instance": "prb20059", "distance_to_goal": "NA", "progress": "NA", "move_number": "2", "optimal_length": "7", "subject": "A1XDMS0KFSF5JW:3M0BCWMB8W4W5M7WZVX3HDH1M3FBWL"}
{"meta_move": "drag_end", "rt": "1179.0", "trial_number": "3", "pre_actions": "1", "move": "7@30", "instance": "prb20059", "distance_to_goal": "NA", "progress": "NA", "move_number": "3", "optimal_length": "7", "subject": "A1XDMS0KFSF5JW:3M0BCWMB8W4W5M7WZVX3HDH1M3FBWL"}
{"meta_move": "drag_end", "rt": "3991.0", "trial_number": "3", "pre_actions": "1", "move": "6@21", "instance": "prb20059", "distance_to_goal": "NA", "progress": "NA", "move_number": "4", "optimal_length": "7", "subject": "A1XDMS0KFSF5JW:3M0BCWMB8W4W5M7WZVX3HDH1M3FBWL"}
{"meta_move": "drag_end", "rt": "1089.0", "trial_number": "3", "pre_actions": "1", "move": "4@22", "instance": "prb20059", "distance_to_goal": "NA", "progress": "NA", "move_number": "5", "optimal_length": "7", "subject": "A1XDMS0KFSF5JW:3M0BCWMB8W4W5M7WZVX3HDH1M3FBWL"}
{"meta_move": "drag_end", "rt": "706.0", "trial_number": "3", "pre_actions": "1", "move": "5@5", "instance": "prb20059", "distance_to_goal": "NA", "progress": "NA", "move_number": "6", "optimal_length": "7", "subject": "A1XDMS0KFSF5JW:3M0BCWMB8W4W5M7WZVX3HDH1M3FBWL"}
{"meta_move": "win", "rt": "859.0", "trial_number": "3", "pre_actions": "1", "move": "r@12", "instance": "prb20059", "distance_to_goal": "1", "progress": "NA", "move_number": "7", "optimal_length": "7", "subject": "A1XDMS0KFSF5JW:3M0BCWMB8W4W5M7WZVX3HDH1M3FBWL"}
{"meta_move": "drag_end", "rt": "124.0", "trial_number": "0", "pre_actions": "0", "move": "r@16", "instance": "prb20059", "distance_to_goal": "NA", "progress": "NA", "move_number": "7", "optimal_length": "7", "subject": "A1XDMS0KFSF5JW:3M0BCWMB8W4W5M7WZVX3HDH1M3FBWL"}
{"meta_move": "drag_end", "rt": "97343.0", "trial_number": "1", "pre_actions": "1", "move": "3@25", "instance": "prb20059", "distance_to_goal": "NA", "progress": "NA", "move_number": "0", "optimal_length": "7", "subject": "A214HWAW1PYWO8:34BBWHLWHBJ6SUL255PK30LEGY5IWG"}
{"meta_move": "drag_end", "rt": "408.0", "trial_number": "1", "pre_actions": "1", "move": "7@31", "instance": "prb20059", "distance_to_goal": "NA", "progress": "NA", "move_number": "1", "optimal_length": "7", "subject": "A214HWAW1PYWO8:34BBWHLWHBJ6SUL255PK30LEGY5IWG"}
{"meta_move": "drag_end", "rt": "541.0", "trial_number": "1", "pre_actions": "1", "move": "4@22", "instance": "prb20059", "distance_to_goal": "NA", "progress": "NA", "move_number": "2", "optimal_length": "7", "subject": "A214HWAW1PYWO8:34BBWHLWHBJ6SUL255PK30LEGY5IWG"}
{"meta_move": "drag_end", "rt": "372.0", "trial_number": "1", "pre_actions": "1", "move": "6@21", "instance": "prb20059", "distance_to_goal": "NA", "progress": "NA", "move_number": "3", "optimal_length": "7", "subject": "A214HWAW1PYWO8:34BBWHLWHBJ6SUL255PK30LEGY5IWG"}
{"meta_move": "drag_end", "rt": "383.0", "trial_number": "1", "pre_actions": "1", "move": "5@5", "instance": "prb20059", "distance_to_goal": "NA", "progress": "NA", "move_number": "4", "optimal_length": "7", "subject": "A214HWAW1PYWO8:34BBWHLWHBJ6SUL255PK30LEGY5IWG"}
{"meta_move": "win", "rt": "479.0", "trial_number": "1", "pre_actions": "1", "move": "r@12", "instance": "prb20059", "distance_to_goal": "1", "progress": "NA", "move_number": "5", "optimal_length": "7", "subject": "A214HWAW1PYWO8:34BBWHLWHBJ6SUL255PK30LEGY5IWG"}
{"meta_move": "drag_end", "rt": "13.0", "trial_number": "0", "pre_actions": "0", "move": "r@16", "instance": "prb20059", "distance_to_goal": "NA", "progress": "NA", "move_number": "5", "optimal_length": "7", "subject": "A214HWAW1PYWO8:34BBWHLWHBJ6SUL255PK30LEGY5IWG"}
{"meta_move": "drag_end", "rt": "3920.0", "trial_number": "1", "pre_actions": "1", "move": "4@22", "instance": "prb20059", "distance_to_goal": "NA", "progress": "NA", "move_number": "0", "optimal_length": "7", "subject": "A21S7MA9DCW95E:3X87C8JFV7JQ2BSCY8KSFD9F2ILSQK"}
{"meta_move": "drag_end", "rt": "1229.0", "trial_number": "1", "pre_actions": "1", "move": "6@3", "instance": "prb20059", "distance_to_goal": "NA", "progress": "NA", "move_number": "1", "optimal_length": "7", "subject": "A21S7MA9DCW95E:3X87C8JFV7JQ2BSCY8KSFD9F2ILSQK"}
{"meta_move": "drag_end", "rt": "987.0", "trial_number": "1", "pre_actions": "1", "move": "3@24", "instance": "prb20059", "distance_to_goal": "NA", "progress": "NA", "move_number": "2", "optimal_length": "7", "subject": "A21S7MA9DCW95E:3X87C8JFV7JQ2BSCY8KSFD9F2ILSQK"}
{"meta_move": "drag_end", "rt": "908.0", "trial_number": "1", "pre_actions": "1", "move": "7@30", "instance": "prb20059", "distance_to_goal": "NA", "progress": "NA", "move_number": "3", "optimal_length": "7", "subject": "A21S7MA9DCW95E:3X87C8JFV7JQ2BSCY8KSFD9F2ILSQK"}
{"meta_move": "drag_end", "rt": "2023.0", "trial_number": "1", "pre_actions": "1", "move": "6@21", "instance": "prb20059", "distance_to_goal": "NA", "progress": "NA", "move_number": "4", "optimal_length": "7", "subject": "A21S7MA9DCW95E:3X87C8JFV7JQ2BSCY8KSFD9F2ILSQK"}
{"meta_move": "drag_end", "rt": "1036.0", "trial_number": "1", "pre_actions": "1", "move": "5@5", "instance": "prb20059", "distance_to_goal": "NA", "progress": "NA", "move_number": "5", "optimal_length": "7", "subject": "A21S7MA9DCW95E:3X87C8JFV7JQ2BSCY8KSFD9F2ILSQK"}
{"meta_move": "win", "rt": "1501.0", "trial_number": "1", "pre_actions": "1", "move": "r@12", "instance": "prb20059", "distance_to_goal": "1", "progress": "NA", "move_number": "6", "optimal_length": "7", "subject": "A21S7MA9DCW95E:3X87C8JFV7JQ2BSCY8KSFD9F2ILSQK"}
{"meta_move": "drag_end", "rt": "205.0", "trial_number": "0", "pre_actions": "0", "move": "r@16", "instance": "prb20059", "distance_to_goal": "NA", "progress": "NA", "move_number": "6", "optimal_length": "7", "subject": "A21S7MA9DCW95E:3X87C8JFV7JQ2BSCY8KSFD9F2ILSQK"}
{"meta_move": "drag_end", "rt": "7355.0", "trial_number": "2", "pre_actions": "1", "move": "2@6", "instance": "prb20059", "distance_to_goal": "NA", "progress": "NA", "move_number": "0", "optimal_length": "7", "subject": "A23437BMZ5T1FH:3IHR8NYAM89M0EPM8U9LH53ZJDTP4U"}
{"meta_move": "drag_end", "rt": "912.0", "trial_number": "2", "pre_actions": "1", "move": "6@3", "instance": "prb20059", "distance_to_goal": "NA", "progress": "NA", "move_number": "0", "optimal_length": "7", "subject": "A23437BMZ5T1FH:3IHR8NYAM89M0EPM8U9LH53ZJDTP4U"}
{"meta_move": "drag_end", "rt": "838.0", "trial_number": "2", "pre_actions": "1", "move": "4@4", "instance": "prb20059", "distance_to_goal": "NA", "progress": "NA", "move_number": "1", "optimal_length": "7", "subject": "A23437BMZ5T1FH:3IHR8NYAM89M0EPM8U9LH53ZJDTP4U"}
{"meta_move": "drag_end", "rt": "1538.0", "trial_number": "2", "pre_actions": "1", "move": "5@5", "instance": "prb20059", "distance_to_goal": "NA", "progress": "NA", "move_number": "2", "optimal_length": "7", "subject": "A23437BMZ5T1FH:3IHR8NYAM89M0EPM8U9LH53ZJDTP4U"}
{"meta_move": "drag_end", "rt": "672.0", "trial_number": "2", "pre_actions": "1", "move": "4@22", "instance": "prb20059", "distance_to_goal": "NA", "progress": "NA", "move_number": "3", "optimal_length": "7", "subject": "A23437BMZ5T1FH:3IHR8NYAM89M0EPM8U9LH53ZJDTP4U"}
{"meta_move": "drag_end", "rt": "1287.0", "trial_number": "2", "pre_actions": "1", "move": "0@18", "instance": "prb20059", "distance_to_goal": "NA", "progress": "NA", "move_number": "4", "optimal_length": "7", "subject": "A23437BMZ5T1FH:3IHR8NYAM89M0EPM8U9LH53ZJDTP4U"}
{"meta_move": "drag_end", "rt": "817.0", "trial_number": "2", "pre_actions": "1", "move": "3@24", "instance": "prb20059", "distance_to_goal": "NA", "progress": "NA", "move_number": "5", "optimal_length": "7", "subject": "A23437BMZ5T1FH:3IHR8NYAM89M0EPM8U9LH53ZJDTP4U"}
{"meta_move": "drag_end", "rt": "1487.0", "trial_number": "2", "pre_actions": "1", "move": "7@30", "instance": "prb20059", "distance_to_goal": "NA", "progress": "NA", "move_number": "6", "optimal_length": "7", "subject": "A23437BMZ5T1FH:3IHR8NYAM89M0EPM8U9LH53ZJDTP4U"}
{"meta_move": "drag_end", "rt": "601.0", "trial_number": "2", "pre_actions": "1", "move": "6@21", "instance": "prb20059", "distance_to_goal": "NA", "progress": "NA", "move_number": "7", "optimal_length": "7", "subject": "A23437BMZ5T1FH:3IHR8NYAM89M0EPM8U9LH53ZJDTP4U"}
{"meta_move": "win", "rt": "556.0", "trial_number": "2", "pre_actions": "1", "move": "r@12", "instance": "prb20059", "distance_to_goal": "1", "progress": "NA", "move_number": "8", "optimal_length": "7", "subject": "A23437BMZ5T1FH:3IHR8NYAM89M0EPM8U9LH53ZJDTP4U"}
{"meta_move": "drag_end", "rt": "90.0", "trial_number": "0", "pre_actions": "0", "move": "r@16", "instance": "prb20059", "distance_to_goal": "NA", "progress": "NA", "move_number": "8", "optimal_length": "7", "subject": "A23437BMZ5T1FH:3IHR8NYAM89M0EPM8U9LH53ZJDTP4U"}
{"meta_move": "drag_end", "rt": "2470.0", "trial_number": "1", "pre_actions": "1", "move": "5@5", "instance": "prb20059", "distance_to_goal": "NA", "progress": "NA", "move_number": "0", "optimal_length": "7", "subject": "A2IBQA01NR5N76:3X4MXAO0BHWJLTOLVSJTHSM54OHWRG"}
{"meta_move": "drag_end", "rt": "923.0", "trial_number": "1", "pre_actions": "1", "move": "4@4", "instance": "prb20059", "distance_to_goal": "NA", "progress": "NA", "move_number": "1", "optimal_length": "7", "subject": "A2IBQA01NR5N76:3X4MXAO0BHWJLTOLVSJTHSM54OHWRG"}
{"meta_move": "drag_end", "rt": "449.0", "trial_number": "1", "pre_actions": "1", "move": "6@3", "instance": "prb20059", "distance_to_goal": "NA", "progress": "NA", "move_number": "2", "optimal_length": "7", "subject": "A2IBQA01NR5N76:3X4MXAO0BHWJLTOLVSJTHSM54OHWRG"}
{"meta_move": "drag_end", "rt": "1249.0", "trial_number": "1", "pre_actions": "1", "move": "0@18", "instance": "prb20059", "distance_to_goal": "NA", "progress": "NA", "move_number": "3", "optimal_length": "7", "subject": "A2IBQA01NR5N76:3X4MXAO0BHWJLTOLVSJTHSM54OHWRG"}
{"meta_move": "drag_end", "rt": "623.0", "trial_number": "1", "pre_actions": "1", "move": "3@24", "instance": "prb20059", "distance_to_goal": "NA", "progress": "NA", "move_number": "4", "optimal_length": "7", "subject": "A2IBQA01NR5N76:3X4MXAO0BHWJLTOLVSJTHSM54OHWRG"}
{"meta_move": "drag_end", "rt": "611.0", "trial_number": "1", "pre_actions": "1", "move": "7@30", "instance": "prb20059", "distance_to_goal": "NA", "progress": "NA", "move_number": "5", "optimal_length": "7", "subject": "A2IBQA01NR5N76:3X4MXAO0BHWJLTOLVSJTHSM54OHWRG"}
{"meta_move": "drag_end", "rt": "674.0", "trial_number": "1", "pre_actions": "1", "move": "6@21", "instance": "prb20059", "distance_to_goal": "NA", "progress": "NA", "move_number": "6", "optimal_length": "7", "subject": "A2IBQA01NR5N76:3X4MXAO0BHWJLTOLVSJTHSM54OHWRG"}
{"meta_move": "drag_end", "rt": "518.0", "trial_number": "1", "pre_actions": "1", "move": "4@22", "instance": "prb20059", "distance_to_goal": "NA", "progress": "NA", "move_number": "7", "optimal_length": "7", "subject": "A2IBQA01NR5N76:3X4MXAO0BHWJLTOLVSJTHSM54OHWRG"}
{"meta_move": "win", "rt": "877.0", "trial_number": "1", "pre_actions": "1", "move": "r@12", "instance": "prb20059", "distance_to_goal": "1", "progress": "NA", "move_number": "8", "optimal_length": "7", "subject": "A2IBQA01NR5N76:3X4MXAO0BHWJLTOLVSJTHSM54OHWRG"}
{"meta_move": "drag_end", "rt": "639.0", "trial_number": "0", "pre_actions": "0", "move": "r@16", "instance": "prb20059", "distance_to_goal": "NA", "progress": "NA", "move_number": "8", "optimal_length": "7", "subject": "A2IBQA01NR5N76:3X4MXAO0BHWJLTOLVSJTHSM54OHWRG"}
{"meta_move": "drag_end", "rt": "2075.0", "trial_number": "1", "pre_actions": "1", "move": "3@24", "instance": "prb20059", "distance_to_goal": "NA", "progress": "NA", "move_number": "0", "optimal_length": "7", "subject": "A2RTJ6BDY0DZVZ:3IJXV6UZ1YR1KY4G6BFEG1DXP7SRI1"}
{"meta_move": "drag_end", "rt": "1921.0", "trial_number": "1", "pre_actions": "1", "move": "7@30", "instance": "prb20059", "distance_to_goal": "NA", "progress": "NA", "move_number": "1", "optimal_length": "7", "subject": "A2RTJ6BDY0DZVZ:3IJXV6UZ1YR1KY4G6BFEG1DXP7SRI1"}
{"meta_move": "drag_end", "rt": "2673.0", "trial_number": "1", "pre_actions": "1", "move": "0@18", "instance": "prb20059", "distance_to_goal": "NA", "progress": "NA", "move_number": "2", "optimal_length": "7", "subject": "A2RTJ6BDY0DZVZ:3IJXV6UZ1YR1KY4G6BFEG1DXP7SRI1"}
{"meta_move": "drag_end", "rt": "947.0", "trial_number": "1", "pre_actions": "1", "move": "6@21", "instance": "prb20059", "distance_to_goal": "NA", "progress": "NA", "move_number": "3", "optimal_length": "7", "subject": "A2RTJ6BDY0DZVZ:3IJXV6UZ1YR1KY4G6BFEG1DXP7SRI1"}
{"meta_move": "drag_end", "rt": "737.0", "trial_number": "1", "pre_actions": "1", "move": "4@22", "instance": "prb20059", "distance_to_goal": "NA", "progress": "NA", "move_number": "4", "optimal_length": "7", "subject": "A2RTJ6BDY0DZVZ:3IJXV6UZ1YR1KY4G6BFEG1DXP7SRI1"}
{"meta_move": "drag_end", "rt": "957.0", "trial_number": "1", "pre_actions": "1", "move": "5@5", "instance": "prb20059", "distance_to_goal": "NA", "progress": "NA", "move_number": "5", "optimal_length": "7", "subject": "A2RTJ6BDY0DZVZ:3IJXV6UZ1YR1KY4G6BFEG1DXP7SRI1"}
{"meta_move": "win", "rt": "1300.0", "trial_number": "1", "pre_actions": "1", "move": "r@12", "instance": "prb20059", "distance_to_goal": "1", "progress": "NA", "move_number": "6", "optimal_length": "7", "subject": "A2RTJ6BDY0DZVZ:3IJXV6UZ1YR1KY4G6BFEG1DXP7SRI1"}
{"meta_move": "drag_end", "rt": "408.0", "trial_number": "0", "pre_actions": "0", "move": "r@16", "instance": "prb20059", "distance_to_goal": "NA", "progress": "NA", "move_number": "6", "optimal_length": "7", "subject": "A2RTJ6BDY0DZVZ:3IJXV6UZ1YR1KY4G6BFEG1DXP7SRI1"}
{"meta_move": "drag_end", "rt": "2300.0", "trial_number": "3", "pre_actions": "1", "move": "3@24", "instance": "prb20059", "distance_to_goal": "NA", "progress": "NA", "move_number": "0", "optimal_length": "7", "subject": "A2TQNX64349OZ9:3WSELTNVR4AZUVYAYCSWZIQW0J4ATB"}
{"meta_move": "drag_end", "rt": "561.0", "trial_number": "3", "pre_actions": "1", "move": "7@30", "instance": "prb20059", "distance_to_goal": "NA", "progress": "NA", "move_number": "1", "optimal_length": "7", "subject": "A2TQNX64349OZ9:3WSELTNVR4AZUVYAYCSWZIQW0J4ATB"}
{"meta_move": "drag_end", "rt": "746.0", "trial_number": "3", "pre_actions": "1", "move": "6@21", "instance": "prb20059", "distance_to_goal": "NA", "progress": "NA", "move_number": "2", "optimal_length": "7", "subject": "A2TQNX64349OZ9:3WSELTNVR4AZUVYAYCSWZIQW0J4ATB"}
{"meta_move": "drag_end", "rt": "506.0", "trial_number": "3", "pre_actions": "1", "move": "4@22", "instance": "prb20059", "distance_to_goal": "NA", "progress": "NA", "move_number": "3", "optimal_length": "7", "subject": "A2TQNX64349OZ9:3WSELTNVR4AZUVYAYCSWZIQW0J4ATB"}
{"meta_move": "drag_end", "rt": "2926.0", "trial_number": "3", "pre_actions": "1", "move": "5@5", "instance": "prb20059", "distance_to_goal": "NA", "progress": "NA", "move_number": "4", "optimal_length": "7", "subject": "A2TQNX64349OZ9:3WSELTNVR4AZUVYAYCSWZIQW0J4ATB"}
{"meta_move": "win", "rt": "1056.0", "trial_number": "3", "pre_actions": "1", "move": "r@12", "instance": "prb20059", "distance_to_goal": "1", "progress": "NA", "move_number": "5", "optimal_length": "7", "subject": "A2TQNX64349OZ9:3WSELTNVR4AZUVYAYCSWZIQW0J4ATB"}
{"meta_move": "drag_end", "rt": "199.0", "trial_number": "0", "pre_actions": "0", "move": "r@16", "instance": "prb20059", "distance_to_goal": "NA", "progress": "NA", "move_number": "5", "optimal_length": "7", "subject": "A2TQNX64349OZ9:3WSELTNVR4AZUVYAYCSWZIQW0J4ATB"}
{"meta_move": "drag_end", "rt": "2217.0", "trial_number": "1", "pre_actions": "1", "move": "6@3", "instance": "prb20059", "distance_to_goal": "NA", "progress": "NA", "move_number": "0", "optimal_length": "7", "subject": "A3NMQ3019X6YE0:3I2PTA7R3U2SESF4TZBQORI5LSJQKK"}
{"meta_move": "drag_end", "rt": "1593.0", "trial_number": "1", "pre_actions": "1", "move": "6@9", "instance": "prb20059", "distance_to_goal": "NA", "progress": "NA", "move_number": "1", "optimal_length": "7", "subject": "A3NMQ3019X6YE0:3I2PTA7R3U2SESF4TZBQORI5LSJQKK"}
{"meta_move": "drag_end", "rt": "567.0", "trial_number": "1", "pre_actions": "1", "move": "3@24", "instance": "prb20059", "distance_to_goal": "NA", "progress": "NA", "move_number": "2", "optimal_length": "7", "subject": "A3NMQ3019X6YE0:3I2PTA7R3U2SESF4TZBQORI5LSJQKK"}
{"meta_move": "drag_end", "rt": "1151.0", "trial_number": "1", "pre_actions": "1", "move": "7@30", "instance": "prb20059", "distance_to_goal": "NA", "progress": "NA", "move_number": "3", "optimal_length": "7", "subject": "A3NMQ3019X6YE0:3I2PTA7R3U2SESF4TZBQORI5LSJQKK"}
{"meta_move": "drag_end", "rt": "1840.0", "trial_number": "1", "pre_actions": "1", "move": "6@21", "instance": "prb20059", "distance_to_goal": "NA", "progress": "NA", "move_number": "4", "optimal_length": "7", "subject": "A3NMQ3019X6YE0:3I2PTA7R3U2SESF4TZBQORI5LSJQKK"}
{"meta_move": "drag_end", "rt": "1080.0", "trial_number": "1", "pre_actions": "1", "move": "4@22", "instance": "prb20059", "distance_to_goal": "NA", "progress": "NA", "move_number": "5", "optimal_length": "7", "subject": "A3NMQ3019X6YE0:3I2PTA7R3U2SESF4TZBQORI5LSJQKK"}
{"meta_move": "drag_end", "rt": "786.0", "trial_number": "1", "pre_actions": "1", "move": "5@5", "instance": "prb20059", "distance_to_goal": "NA", "progress": "NA", "move_number": "6", "optimal_length": "7", "subject": "A3NMQ3019X6YE0:3I2PTA7R3U2SESF4TZBQORI5LSJQKK"}
{"meta_move": "win", "rt": "687.0", "trial_number": "1", "pre_actions": "1", "move": "r@12", "instance": "prb20059", "distance_to_goal": "1", "progress": "NA", "move_number": "7", "optimal_length": "7", "subject": "A3NMQ3019X6YE0:3I2PTA7R3U2SESF4TZBQORI5LSJQKK"}
{"meta_move": "drag_end", "rt": "79.0", "trial_number": "0", "pre_actions": "0", "move": "r@16", "instance": "prb20059", "distance_to_goal": "NA", "progress": "NA", "move_number": "7", "optimal_length": "7", "subject": "A3NMQ3019X6YE0:3I2PTA7R3U2SESF4TZBQORI5LSJQKK"}
{"meta_move": "drag_end", "rt": "2813.0", "trial_number": "2", "pre_actions": "1", "move": "0@18", "instance": "prb20059", "distance_to_goal": "NA", "progress": "NA", "move_number": "0", "optimal_length": "7", "subject": "A3Q0XAGQ7TD7MP:3X87C8JFV7JQ2BSCY8KSFD9F2ILSQK"}
{"meta_move": "drag_end", "rt": "2275.0", "trial_number": "2", "pre_actions": "1", "move": "3@24", "instance": "prb20059", "distance_to_goal": "NA", "progress": "NA", "move_number": "1", "optimal_length": "7", "subject": "A3Q0XAGQ7TD7MP:3X87C8JFV7JQ2BSCY8KSFD9F2ILSQK"}
{"meta_move": "drag_end", "rt": "1211.0", "trial_number": "2", "pre_actions": "1", "move": "7@30", "instance": "prb20059", "distance_to_goal": "NA", "progress": "NA", "move_number": "2", "optimal_length": "7", "subject": "A3Q0XAGQ7TD7MP:3X87C8JFV7JQ2BSCY8KSFD9F2ILSQK"}
{"meta_move": "drag_end", "rt": "1127.0", "trial_number": "2", "pre_actions": "1", "move": "6@21", "instance": "prb20059", "distance_to_goal": "NA", "progress": "NA", "move_number": "3", "optimal_length": "7", "subject": "A3Q0XAGQ7TD7MP:3X87C8JFV7JQ2BSCY8KSFD9F2ILSQK"}
{"meta_move": "drag_end", "rt": "1062.0", "trial_number": "2", "pre_actions": "1", "move": "4@22", "instance": "prb20059", "distance_to_goal": "NA", "progress": "NA", "move_number": "4", "optimal_length": "7", "subject": "A3Q0XAGQ7TD7MP:3X87C8JFV7JQ2BSCY8KSFD9F2ILSQK"}
{"meta_move": "drag_end", "rt": "964.0", "trial_number": "2", "pre_actions": "1", "move": "5@11", "instance": "prb20059", "distance_to_goal": "NA", "progress": "NA", "move_number": "5", "optimal_length": "7", "subject": "A3Q0XAGQ7TD7MP:3X87C8JFV7JQ2BSCY8KSFD9F2ILSQK"}
{"meta_move": "drag_end", "rt": "1250.0", "trial_number": "2", "pre_actions": "1", "move": "5@5", "instance": "prb20059", "distance_to_goal": "NA", "progress": "NA", "move_number": "5", "optimal_length": "7", "subject": "A3Q0XAGQ7TD7MP:3X87C8JFV7JQ2BSCY8KSFD9F2ILSQK"}
{"meta_move": "win", "rt": "1187.0", "trial_number": "2", "pre_actions": "1", "move": "r@12", "instance": "prb20059", "distance_to_goal": "1", "progress": "NA", "move_number": "6", "optimal_length": "7", "subject": "A3Q0XAGQ7TD7MP:3X87C8JFV7JQ2BSCY8KSFD9F2ILSQK"}
{"meta_move": "drag_end", "rt": "99.0", "trial_number": "0", "pre_actions": "0", "move": "r@16", "instance": "prb20059", "distance_to_goal": "NA", "progress": "NA", "move_number": "6", "optimal_length": "7", "subject": "A3Q0XAGQ7TD7MP:3X87C8JFV7JQ2BSCY8KSFD9F2ILSQK"}
{"meta_move": "drag_end", "rt": "4616.0", "trial_number": "1", "pre_actions": "1", "move": "3@24", "instance": "prb20059", "distance_to_goal": "NA", "progress": "NA", "move_number": "0", "optimal_length": "7", "subject": "AYPOAY43REHC8:3ON104KXQL4CKNMNKGNG9ZBVBAB4WI"}
{"meta_move": "drag_end", "rt": "1258.0", "trial_number": "1", "pre_actions": "1", "move": "7@31", "instance": "prb20059", "distance_to_goal": "NA", "progress": "NA", "move_number": "1", "optimal_length": "7", "subject": "AYPOAY43REHC8:3ON104KXQL4CKNMNKGNG9ZBVBAB4WI"}
{"meta_move": "drag_end", "rt": "555.0", "trial_number": "1", "pre_actions": "1", "move": "6@21", "instance": "prb20059", "distance_to_goal": "NA", "progress": "NA", "move_number": "2", "optimal_length": "7", "subject": "AYPOAY43REHC8:3ON104KXQL4CKNMNKGNG9ZBVBAB4WI"}
{"meta_move": "drag_end", "rt": "982.0", "trial_number": "1", "pre_actions": "1", "move": "4@22", "instance": "prb20059", "distance_to_goal": "NA", "progress": "NA", "move_number": "3", "optimal_length": "7", "subject": "AYPOAY43REHC8:3ON104KXQL4CKNMNKGNG9ZBVBAB4WI"}
{"meta_move": "drag_end", "rt": "819.0", "trial_number": "1", "pre_actions": "1", "move": "5@5", "instance": "prb20059", "distance_to_goal": "NA", "progress": "NA", "move_number": "4", "optimal_length": "7", "subject": "AYPOAY43REHC8:3ON104KXQL4CKNMNKGNG9ZBVBAB4WI"}
{"meta_move": "win", "rt": "500.0", "trial_number": "1", "pre_actions": "1", "move": "r@12", "instance": "prb20059", "distance_to_goal": "1", "progress": "NA", "move_number": "5", "optimal_length": "7", "subject": "AYPOAY43REHC8:3ON104KXQL4CKNMNKGNG9ZBVBAB4WI"}
{"meta_move": "drag_end", "rt": "214.0", "trial_number": "0", "pre_actions": "0", "move": "r@16", "instance": "prb20059", "distance_to_goal": "NA", "progress": "NA", "move_number": "5", "optimal_length": "7", "subject": "AYPOAY43REHC8:3ON104KXQL4CKNMNKGNG9ZBVBAB4WI"}
