{"meta_move": "drag_end", "rt": "2295.0", "trial_number": "1", "pre_actions": "1", "move": "3@20", "instance": "prb343", "distance_to_goal": "NA", "progress": "NA", "move_number": "0", "optimal_length": "14", "subject": "A15781PHGW377Y:3YW4XOSQKRTI0K0Z2YPDTDJVFABU1I"}
{"meta_move": "drag_end", "rt": "6096.0", "trial_number": "1", "pre_actions": "1", "move": "3@8", "instance": "prb343", "distance_to_goal": "NA", "progress": "NA", "move_number": "1", "optimal_length": "14", "subject": "A15781PHGW377Y:3YW4XOSQKRTI0K0Z2YPDTDJVFABU1I"}
{"meta_move": "drag_end", "rt": "837.0", "trial_number": "1", "pre_actions": "1", "move": "2@9", "instance": "prb343", "distance_to_goal": "NA", "progress": "NA", "move_number": "2", "optimal_length": "14", "subject": "A15781PHGW377Y:3YW4XOSQKRTI0K0Z2YPDTDJVFABU1I"}
{"meta_move": "drag_end", "rt": "840.0", "trial_number": "1", "pre_actions": "1", "move": "1@25", "instance": "prb343", "distance_to_goal": "NA", "progress": "NA", "move_number": "3", "optimal_length": "14", "subject": "A15781PHGW377Y:3YW4XOSQKRTI0K0Z2YPDTDJVFABU1I"}
{"meta_move": "drag_end", "rt": "1187.0", "trial_number": "1", "pre_actions": "1", "move": "6@28", "instance": "prb343", "distance_to_goal": "NA", "progress": "NA", "move_number": "4", "optimal_length": "14", "subject": "A15781PHGW377Y:3YW4XOSQKRTI0K0Z2YPDTDJVFABU1I"}
{"meta_move": "drag_end", "rt": "4406.0", "trial_number": "1", "pre_actions": "1", "move": "6@16", "instance": "prb343", "distance_to_goal": "NA", "progress": "NA", "move_number": "5", "optimal_length": "14", "subject": "A15781PHGW377Y:3YW4XOSQKRTI0K0Z2YPDTDJVFABU1I"}
{"meta_move": "drag_end", "rt": "1016.0", "trial_number": "1", "pre_actions": "1", "move": "1@28", "instance": "prb343", "distance_to_goal": "NA", "progress": "NA", "move_number": "6", "optimal_length": "14", "subject": "A15781PHGW377Y:3YW4XOSQKRTI0K0Z2YPDTDJVFABU1I"}
{"meta_move": "drag_end", "rt": "1063.0", "trial_number": "1", "pre_actions": "1", "move": "3@20", "instance": "prb343", "distance_to_goal": "NA", "progress": "NA", "move_number": "7", "optimal_length": "14", "subject": "A15781PHGW377Y:3YW4XOSQKRTI0K0Z2YPDTDJVFABU1I"}
{"meta_move": "drag_end", "rt": "892.0", "trial_number": "1", "pre_actions": "1", "move": "r@13", "instance": "prb343", "distance_to_goal": "NA", "progress": "NA", "move_number": "8", "optimal_length": "14", "subject": "A15781PHGW377Y:3YW4XOSQKRTI0K0Z2YPDTDJVFABU1I"}
{"meta_move": "drag_end", "rt": "919.0", "trial_number": "1", "pre_actions": "1", "move": "5@6", "instance": "prb343", "distance_to_goal": "NA", "progress": "NA", "move_number": "9", "optimal_length": "14", "subject": "A15781PHGW377Y:3YW4XOSQKRTI0K0Z2YPDTDJVFABU1I"}
{"meta_move": "drag_end", "rt": "2070.0", "trial_number": "1", "pre_actions": "1", "move": "7@3", "instance": "prb343", "distance_to_goal": "NA", "progress": "NA", "move_number": "10", "optimal_length": "14", "subject": "A15781PHGW377Y:3YW4XOSQKRTI0K0Z2YPDTDJVFABU1I"}
{"meta_move": "drag_end", "rt": "652.0", "trial_number": "1", "pre_actions": "1", "move": "4@1", "instance": "prb343", "distance_to_goal": "NA", "progress": "NA", "move_number": "11", "optimal_length": "14", "subject": "A15781PHGW377Y:3YW4XOSQKRTI0K0Z2YPDTDJVFABU1I"}
{"meta_move": "drag_end", "rt": "613.0", "trial_number": "1", "pre_actions": "1", "move": "5@0", "instance": "prb343", "distance_to_goal": "NA", "progress": "NA", "move_number": "12", "optimal_length": "14", "subject": "A15781PHGW377Y:3YW4XOSQKRTI0K0Z2YPDTDJVFABU1I"}
{"meta_move": "drag_end", "rt": "750.0", "trial_number": "1", "pre_actions": "1", "move": "r@12", "instance": "prb343", "distance_to_goal": "NA", "progress": "NA", "move_number": "13", "optimal_length": "14", "subject": "A15781PHGW377Y:3YW4XOSQKRTI0K0Z2YPDTDJVFABU1I"}
{"meta_move": "drag_end", "rt": "816.0", "trial_number": "1", "pre_actions": "1", "move": "3@8", "instance": "prb343", "distance_to_goal": "NA", "progress": "NA", "move_number": "14", "optimal_length": "14", "subject": "A15781PHGW377Y:3YW4XOSQKRTI0K0Z2YPDTDJVFABU1I"}
{"meta_move": "drag_end", "rt": "1087.0", "trial_number": "1", "pre_actions": "1", "move": "1@24", "instance": "prb343", "distance_to_goal": "NA", "progress": "NA", "move_number": "15", "optimal_length": "14", "subject": "A15781PHGW377Y:3YW4XOSQKRTI0K0Z2YPDTDJVFABU1I"}
{"meta_move": "drag_end", "rt": "879.0", "trial_number": "1", "pre_actions": "1", "move": "3@20", "instance": "prb343", "distance_to_goal": "NA", "progress": "NA", "move_number": "16", "optimal_length": "14", "subject": "A15781PHGW377Y:3YW4XOSQKRTI0K0Z2YPDTDJVFABU1I"}
{"meta_move": "drag_end", "rt": "652.0", "trial_number": "1", "pre_actions": "1", "move": "2@21", "instance": "prb343", "distance_to_goal": "NA", "progress": "NA", "move_number": "17", "optimal_length": "14", "subject": "A15781PHGW377Y:3YW4XOSQKRTI0K0Z2YPDTDJVFABU1I"}
{"meta_move": "drag_end", "rt": "499.0", "trial_number": "1", "pre_actions": "1", "move": "6@28", "instance": "prb343", "distance_to_goal": "NA", "progress": "NA", "move_number": "18", "optimal_length": "14", "subject": "A15781PHGW377Y:3YW4XOSQKRTI0K0Z2YPDTDJVFABU1I"}
{"meta_move": "win", "rt": "741.0", "trial_number": "1", "pre_actions": "1", "move": "r@12", "instance": "prb343", "distance_to_goal": "1", "progress": "NA", "move_number": "19", "optimal_length": "14", "subject": "A15781PHGW377Y:3YW4XOSQKRTI0K0Z2YPDTDJVFABU1I"}
{"meta_move": "drag_end", "rt": "146.0", "trial_number": "0", "pre_actions": "0", "move": "r@16", "instance": "prb343", "distance_to_goal": "NA", "progress": "NA", "move_number": "19", "optimal_length": "14", "subject": "A15781PHGW377Y:3YW4XOSQKRTI0K0Z2YPDTDJVFABU1I"}
{"meta_move": "drag_end", "rt": "11454.0", "trial_number": "2", "pre_actions": "1", "move": "3@8", "instance": "prb343", "distance_to_goal": "NA", "progress": "NA", "move_number": "0", "optimal_length": "14", "subject": "A18QU0YQB6Q8DF:3VE8AYVF8N5BS2NU6U3TMN50JMNF8V"}
{"meta_move": "drag_end", "rt": "733.0", "trial_number": "2", "pre_actions": "1", "move": "2@9", "instance": "prb343", "distance_to_goal": "NA", "progress": "NA", "move_number": "1", "optimal_length": "14", "subject": "A18QU0YQB6Q8DF:3VE8AYVF8N5BS2NU6U3TMN50JMNF8V"}
{"meta_move": "drag_end", "rt": "1165.0", "trial_number": "2", "pre_actions": "1", "move": "1@25", "instance": "prb343", "distance_to_goal": "NA", "progress": "NA", "move_number": "2", "optimal_length": "14", "subject": "A18QU0YQB6Q8DF:3VE8AYVF8N5BS2NU6U3TMN50JMNF8V"}
{"meta_move": "drag_end", "rt": "1491.0", "trial_number": "3", "pre_actions": "1", "move": "3@20", "instance": "prb343", "distance_to_goal": "NA", "progress": "NA", "move_number": "0", "optimal_length": "14", "subject": "A18QU0YQB6Q8DF:3VE8AYVF8N5BS2NU6U3TMN50JMNF8V"}
{"meta_move": "drag_end", "rt": "1588.0", "trial_number": "3", "pre_actions": "1", "move": "r@14", "instance": "prb343", "distance_to_goal": "NA", "progress": "NA", "move_number": "1", "optimal_length": "14", "subject": "A18QU0YQB6Q8DF:3VE8AYVF8N5BS2NU6U3TMN50JMNF8V"}
{"meta_move": "drag_end", "rt": "2395.0", "trial_number": "3", "pre_actions": "1", "move": "5@6", "instance": "prb343", "distance_to_goal": "NA", "progress": "NA", "move_number": "2", "optimal_length": "14", "subject": "A18QU0YQB6Q8DF:3VE8AYVF8N5BS2NU6U3TMN50JMNF8V"}
{"meta_move": "drag_end", "rt": "1470.0", "trial_number": "3", "pre_actions": "1", "move": "1@28", "instance": "prb343", "distance_to_goal": "NA", "progress": "NA", "move_number": "3", "optimal_length": "14", "subject": "A18QU0YQB6Q8DF:3VE8AYVF8N5BS2NU6U3TMN50JMNF8V"}
{"meta_move": "drag_end", "rt": "708.0", "trial_number": "3", "pre_actions": "1", "move": "6@16", "instance": "prb343", "distance_to_goal": "NA", "progress": "NA", "move_number": "3", "optimal_length": "14", "subject": "A18QU0YQB6Q8DF:3VE8AYVF8N5BS2NU6U3TMN50JMNF8V"}
{"meta_move": "drag_end", "rt": "1149.0", "trial_number": "3", "pre_actions": "1", "move": "3@20", "instance": "prb343", "distance_to_goal": "NA", "progress": "NA", "move_number": "3", "optimal_length": "14", "subject": "A18QU0YQB6Q8DF:3VE8AYVF8N5BS2NU6U3TMN50JMNF8V"}
{"meta_move": "drag_end", "rt": "1379.0", "trial_number": "3", "pre_actions": "1", "move": "r@14", "instance": "prb343", "distance_to_goal": "NA", "progress": "NA", "move_number": "3", "optimal_length": "14", "subject": "A18QU0YQB6Q8DF:3VE8AYVF8N5BS2NU6U3TMN50JMNF8V"}
{"meta_move": "drag_end", "rt": "1103.0", "trial_number": "3", "pre_actions": "1", "move": "r@13", "instance": "prb343", "distance_to_goal": "NA", "progress": "NA", "move_number": "3", "optimal_length": "14", "subject": "A18QU0YQB6Q8DF:3VE8AYVF8N5BS2NU6U3TMN50JMNF8V"}
{"meta_move": "drag_end", "rt": "918.0", "trial_number": "3", "pre_actions": "1", "move": "2@9", "instance": "prb343", "distance_to_goal": "NA", "progress": "NA", "move_number": "4", "optimal_length": "14", "subject": "A18QU0YQB6Q8DF:3VE8AYVF8N5BS2NU6U3TMN50JMNF8V"}
{"meta_move": "drag_end", "rt": "1205.0", "trial_number": "3", "pre_actions": "1", "move": "1@27", "instance": "prb343", "distance_to_goal": "NA", "progress": "NA", "move_number": "5", "optimal_length": "14", "subject": "A18QU0YQB6Q8DF:3VE8AYVF8N5BS2NU6U3TMN50JMNF8V"}
{"meta_move": "drag_end", "rt": "1906.0", "trial_number": "3", "pre_actions": "1", "move": "6@16", "instance": "prb343", "distance_to_goal": "NA", "progress": "NA", "move_number": "6", "optimal_length": "14", "subject": "A18QU0YQB6Q8DF:3VE8AYVF8N5BS2NU6U3TMN50JMNF8V"}
{"meta_move": "drag_end", "rt": "1330.0", "trial_number": "3", "pre_actions": "1", "move": "3@20", "instance": "prb343", "distance_to_goal": "NA", "progress": "NA", "move_number": "6", "optimal_length": "14", "subject": "A18QU0YQB6Q8DF:3VE8AYVF8N5BS2NU6U3TMN50JMNF8V"}
{"meta_move": "drag_end", "rt": "1879.0", "trial_number": "4", "pre_actions": "1", "move": "3@20", "instance": "prb343", "distance_to_goal": "NA", "progress": "NA", "move_number": "0", "optimal_length": "14", "subject": "A18QU0YQB6Q8DF:3VE8AYVF8N5BS2NU6U3TMN50JMNF8V"}
{"meta_move": "drag_end", "rt": "4613.0", "trial_number": "4", "pre_actions": "1", "move": "r@13", "instance": "prb343", "distance_to_goal": "NA", "progress": "NA", "move_number": "1", "optimal_length": "14", "subject": "A18QU0YQB6Q8DF:3VE8AYVF8N5BS2NU6U3TMN50JMNF8V"}
{"meta_move": "drag_end", "rt": "2122.0", "trial_number": "4", "pre_actions": "1", "move": "2@21", "instance": "prb343", "distance_to_goal": "NA", "progress": "NA", "move_number": "2", "optimal_length": "14", "subject": "A18QU0YQB6Q8DF:3VE8AYVF8N5BS2NU6U3TMN50JMNF8V"}
{"meta_move": "drag_end", "rt": "2023.0", "trial_number": "4", "pre_actions": "1", "move": "7@3", "instance": "prb343", "distance_to_goal": "NA", "progress": "NA", "move_number": "2", "optimal_length": "14", "subject": "A18QU0YQB6Q8DF:3VE8AYVF8N5BS2NU6U3TMN50JMNF8V"}
{"meta_move": "drag_end", "rt": "1648.0", "trial_number": "4", "pre_actions": "1", "move": "r@12", "instance": "prb343", "distance_to_goal": "NA", "progress": "NA", "move_number": "3", "optimal_length": "14", "subject": "A18QU0YQB6Q8DF:3VE8AYVF8N5BS2NU6U3TMN50JMNF8V"}
{"meta_move": "drag_end", "rt": "1136.0", "trial_number": "4", "pre_actions": "1", "move": "3@2", "instance": "prb343", "distance_to_goal": "NA", "progress": "NA", "move_number": "4", "optimal_length": "14", "subject": "A18QU0YQB6Q8DF:3VE8AYVF8N5BS2NU6U3TMN50JMNF8V"}
{"meta_move": "drag_end", "rt": "2170.0", "trial_number": "4", "pre_actions": "1", "move": "2@9", "instance": "prb343", "distance_to_goal": "NA", "progress": "NA", "move_number": "5", "optimal_length": "14", "subject": "A18QU0YQB6Q8DF:3VE8AYVF8N5BS2NU6U3TMN50JMNF8V"}
{"meta_move": "drag_end", "rt": "1345.0", "trial_number": "4", "pre_actions": "1", "move": "1@25", "instance": "prb343", "distance_to_goal": "NA", "progress": "NA", "move_number": "6", "optimal_length": "14", "subject": "A18QU0YQB6Q8DF:3VE8AYVF8N5BS2NU6U3TMN50JMNF8V"}
{"meta_move": "drag_end", "rt": "1222.0", "trial_number": "4", "pre_actions": "1", "move": "6@28", "instance": "prb343", "distance_to_goal": "NA", "progress": "NA", "move_number": "7", "optimal_length": "14", "subject": "A18QU0YQB6Q8DF:3VE8AYVF8N5BS2NU6U3TMN50JMNF8V"}
{"meta_move": "drag_end", "rt": "1244.0", "trial_number": "4", "pre_actions": "1", "move": "2@21", "instance": "prb343", "distance_to_goal": "NA", "progress": "NA", "move_number": "8", "optimal_length": "14", "subject": "A18QU0YQB6Q8DF:3VE8AYVF8N5BS2NU6U3TMN50JMNF8V"}
{"meta_move": "drag_end", "rt": "3507.0", "trial_number": "4", "pre_actions": "1", "move": "5@24", "instance": "prb343", "distance_to_goal": "NA", "progress": "NA", "move_number": "9", "optimal_length": "14", "subject": "A18QU0YQB6Q8DF:3VE8AYVF8N5BS2NU6U3TMN50JMNF8V"}
{"meta_move": "drag_end", "rt": "1688.0", "trial_number": "4", "pre_actions": "1", "move": "3@2", "instance": "prb343", "distance_to_goal": "NA", "progress": "NA", "move_number": "9", "optimal_length": "14", "subject": "A18QU0YQB6Q8DF:3VE8AYVF8N5BS2NU6U3TMN50JMNF8V"}
{"meta_move": "drag_end", "rt": "1347.0", "trial_number": "1", "pre_actions": "1", "move": "3@20", "instance": "prb343", "distance_to_goal": "NA", "progress": "NA", "move_number": "0", "optimal_length": "14", "subject": "A191V7PT3DQKDP:3PMBY0YE28B43VMUKKJ6EDF85RV9C8"}
{"meta_move": "drag_end", "rt": "1176.0", "trial_number": "1", "pre_actions": "1", "move": "0@6", "instance": "prb343", "distance_to_goal": "NA", "progress": "NA", "move_number": "1", "optimal_length": "14", "subject": "A191V7PT3DQKDP:3PMBY0YE28B43VMUKKJ6EDF85RV9C8"}
{"meta_move": "drag_end", "rt": "1263.0", "trial_number": "1", "pre_actions": "1", "move": "6@10", "instance": "prb343", "distance_to_goal": "NA", "progress": "NA", "move_number": "2", "optimal_length": "14", "subject": "A191V7PT3DQKDP:3PMBY0YE28B43VMUKKJ6EDF85RV9C8"}
{"meta_move": "drag_end", "rt": "640.0", "trial_number": "1", "pre_actions": "1", "move": "3@8", "instance": "prb343", "distance_to_goal": "NA", "progress": "NA", "move_number": "3", "optimal_length": "14", "subject": "A191V7PT3DQKDP:3PMBY0YE28B43VMUKKJ6EDF85RV9C8"}
{"meta_move": "drag_end", "rt": "552.0", "trial_number": "1", "pre_actions": "1", "move": "2@9", "instance": "prb343", "distance_to_goal": "NA", "progress": "NA", "move_number": "4", "optimal_length": "14", "subject": "A191V7PT3DQKDP:3PMBY0YE28B43VMUKKJ6EDF85RV9C8"}
{"meta_move": "drag_end", "rt": "873.0", "trial_number": "1", "pre_actions": "1", "move": "1@25", "instance": "prb343", "distance_to_goal": "NA", "progress": "NA", "move_number": "5", "optimal_length": "14", "subject": "A191V7PT3DQKDP:3PMBY0YE28B43VMUKKJ6EDF85RV9C8"}
{"meta_move": "drag_end", "rt": "800.0", "trial_number": "1", "pre_actions": "1", "move": "2@21", "instance": "prb343", "distance_to_goal": "NA", "progress": "NA", "move_number": "6", "optimal_length": "14", "subject": "A191V7PT3DQKDP:3PMBY0YE28B43VMUKKJ6EDF85RV9C8"}
{"meta_move": "drag_end", "rt": "1371.0", "trial_number": "1", "pre_actions": "1", "move": "6@28", "instance": "prb343", "distance_to_goal": "NA", "progress": "NA", "move_number": "7", "optimal_length": "14", "subject": "A191V7PT3DQKDP:3PMBY0YE28B43VMUKKJ6EDF85RV9C8"}
{"meta_move": "drag_end", "rt": "749.0", "trial_number": "1", "pre_actions": "1", "move": "7@3", "instance": "prb343", "distance_to_goal": "NA", "progress": "NA", "move_number": "8", "optimal_length": "14", "subject": "A191V7PT3DQKDP:3PMBY0YE28B43VMUKKJ6EDF85RV9C8"}
{"meta_move": "drag_end", "rt": "863.0", "trial_number": "1", "pre_actions": "1", "move": "3@2", "instance": "prb343", "distance_to_goal": "NA", "progress": "NA", "move_number": "9", "optimal_length": "14", "subject": "A191V7PT3DQKDP:3PMBY0YE28B43VMUKKJ6EDF85RV9C8"}
{"meta_move": "drag_end", "rt": "1063.0", "trial_number": "1", "pre_actions": "1", "move": "2@9", "instance": "prb343", "distance_to_goal": "NA", "progress": "NA", "move_number": "10", "optimal_length": "14", "subject": "A191V7PT3DQKDP:3PMBY0YE28B43VMUKKJ6EDF85RV9C8"}
{"meta_move": "drag_end", "rt": "1185.0", "trial_number": "1", "pre_actions": "1", "move": "1@26", "instance": "prb343", "distance_to_goal": "NA", "progress": "NA", "move_number": "11", "optimal_length": "14", "subject": "A191V7PT3DQKDP:3PMBY0YE28B43VMUKKJ6EDF85RV9C8"}
{"meta_move": "drag_end", "rt": "1463.0", "trial_number": "1", "pre_actions": "1", "move": "6@10", "instance": "prb343", "distance_to_goal": "NA", "progress": "NA", "move_number": "12", "optimal_length": "14", "subject": "A191V7PT3DQKDP:3PMBY0YE28B43VMUKKJ6EDF85RV9C8"}
{"meta_move": "drag_end", "rt": "826.0", "trial_number": "1", "pre_actions": "1", "move": "1@28", "instance": "prb343", "distance_to_goal": "NA", "progress": "NA", "move_number": "13", "optimal_length": "14", "subject": "A191V7PT3DQKDP:3PMBY0YE28B43VMUKKJ6EDF85RV9C8"}
{"meta_move": "drag_end", "rt": "808.0", "trial_number": "1", "pre_actions": "1", "move": "2@21", "instance": "prb343", "distance_to_goal": "NA", "progress": "NA", "move_number": "14", "optimal_length": "14", "subject": "A191V7PT3DQKDP:3PMBY0YE28B43VMUKKJ6EDF85RV9C8"}
{"meta_move": "drag_end", "rt": "798.0", "trial_number": "1", "pre_actions": "1", "move": "3@20", "instance": "prb343", "distance_to_goal": "NA", "progress": "NA", "move_number": "15", "optimal_length": "14", "subject": "A191V7PT3DQKDP:3PMBY0YE28B43VMUKKJ6EDF85RV9C8"}
{"meta_move": "drag_end", "rt": "1490.0", "trial_number": "1", "pre_actions": "1", "move": "6@16", "instance": "prb343", "distance_to_goal": "NA", "progress": "NA", "move_number": "16", "optimal_length": "14", "subject": "A191V7PT3DQKDP:3PMBY0YE28B43VMUKKJ6EDF85RV9C8"}
{"meta_move": "drag_end", "rt": "774.0", "trial_number": "1", "pre_actions": "1", "move": "r@14", "instance": "prb343", "distance_to_goal": "NA", "progress": "NA", "move_number": "17", "optimal_length": "14", "subject": "A191V7PT3DQKDP:3PMBY0YE28B43VMUKKJ6EDF85RV9C8"}
{"meta_move": "drag_end", "rt": "1736.0", "trial_number": "1", "pre_actions": "1", "move": "r@14", "instance": "prb343", "distance_to_goal": "NA", "progress": "NA", "move_number": "18", "optimal_length": "14", "subject": "A191V7PT3DQKDP:3PMBY0YE28B43VMUKKJ6EDF85RV9C8"}
{"meta_move": "drag_end", "rt": "984.0", "trial_number": "1", "pre_actions": "1", "move": "0@10", "instance": "prb343", "distance_to_goal": "NA", "progress": "NA", "move_number": "18", "optimal_length": "14", "subject": "A191V7PT3DQKDP:3PMBY0YE28B43VMUKKJ6EDF85RV9C8"}
{"meta_move": "drag_end", "rt": "2482.0", "trial_number": "1", "pre_actions": "1", "move": "5@6", "instance": "prb343", "distance_to_goal": "NA", "progress": "NA", "move_number": "19", "optimal_length": "14", "subject": "A191V7PT3DQKDP:3PMBY0YE28B43VMUKKJ6EDF85RV9C8"}
{"meta_move": "drag_end", "rt": "608.0", "trial_number": "1", "pre_actions": "1", "move": "r@13", "instance": "prb343", "distance_to_goal": "NA", "progress": "NA", "move_number": "20", "optimal_length": "14", "subject": "A191V7PT3DQKDP:3PMBY0YE28B43VMUKKJ6EDF85RV9C8"}
{"meta_move": "drag_end", "rt": "1422.0", "trial_number": "1", "pre_actions": "1", "move": "2@9", "instance": "prb343", "distance_to_goal": "NA", "progress": "NA", "move_number": "21", "optimal_length": "14", "subject": "A191V7PT3DQKDP:3PMBY0YE28B43VMUKKJ6EDF85RV9C8"}
{"meta_move": "drag_end", "rt": "2098.0", "trial_number": "1", "pre_actions": "1", "move": "5@24", "instance": "prb343", "distance_to_goal": "NA", "progress": "NA", "move_number": "22", "optimal_length": "14", "subject": "A191V7PT3DQKDP:3PMBY0YE28B43VMUKKJ6EDF85RV9C8"}
{"meta_move": "drag_end", "rt": "1438.0", "trial_number": "1", "pre_actions": "1", "move": "r@12", "instance": "prb343", "distance_to_goal": "NA", "progress": "NA", "move_number": "23", "optimal_length": "14", "subject": "A191V7PT3DQKDP:3PMBY0YE28B43VMUKKJ6EDF85RV9C8"}
{"meta_move": "drag_end", "rt": "1024.0", "trial_number": "1", "pre_actions": "1", "move": "3@2", "instance": "prb343", "distance_to_goal": "NA", "progress": "NA", "move_number": "24", "optimal_length": "14", "subject": "A191V7PT3DQKDP:3PMBY0YE28B43VMUKKJ6EDF85RV9C8"}
{"meta_move": "drag_end", "rt": "1296.0", "trial_number": "1", "pre_actions": "1", "move": "1@25", "instance": "prb343", "distance_to_goal": "NA", "progress": "NA", "move_number": "25", "optimal_length": "14", "subject": "A191V7PT3DQKDP:3PMBY0YE28B43VMUKKJ6EDF85RV9C8"}
{"meta_move": "drag_end", "rt": "5416.0", "trial_number": "1", "pre_actions": "1", "move": "1@28", "instance": "prb343", "distance_to_goal": "NA", "progress": "NA", "move_number": "26", "optimal_length": "14", "subject": "A191V7PT3DQKDP:3PMBY0YE28B43VMUKKJ6EDF85RV9C8"}
{"meta_move": "drag_end", "rt": "834.0", "trial_number": "1", "pre_actions": "1", "move": "3@20", "instance": "prb343", "distance_to_goal": "NA", "progress": "NA", "move_number": "27", "optimal_length": "14", "subject": "A191V7PT3DQKDP:3PMBY0YE28B43VMUKKJ6EDF85RV9C8"}
{"meta_move": "drag_end", "rt": "711.0", "trial_number": "1", "pre_actions": "1", "move": "2@21", "instance": "prb343", "distance_to_goal": "NA", "progress": "NA", "move_number": "28", "optimal_length": "14", "subject": "A191V7PT3DQKDP:3PMBY0YE28B43VMUKKJ6EDF85RV9C8"}
{"meta_move": "drag_end", "rt": "855.0", "trial_number": "1", "pre_actions": "1", "move": "0@6", "instance": "prb343", "distance_to_goal": "NA", "progress": "NA", "move_number": "29", "optimal_length": "14", "subject": "A191V7PT3DQKDP:3PMBY0YE28B43VMUKKJ6EDF85RV9C8"}
{"meta_move": "drag_end", "rt": "1952.0", "trial_number": "1", "pre_actions": "1", "move": "3@2", "instance": "prb343", "distance_to_goal": "NA", "progress": "NA", "move_number": "30", "optimal_length": "14", "subject": "A191V7PT3DQKDP:3PMBY0YE28B43VMUKKJ6EDF85RV9C8"}
{"meta_move": "drag_end", "rt": "696.0", "trial_number": "1", "pre_actions": "1", "move": "2@9", "instance": "prb343", "distance_to_goal": "NA", "progress": "NA", "move_number": "31", "optimal_length": "14", "subject": "A191V7PT3DQKDP:3PMBY0YE28B43VMUKKJ6EDF85RV9C8"}
{"meta_move": "drag_end", "rt": "1672.0", "trial_number": "1", "pre_actions": "1", "move": "1@26", "instance": "prb343", "distance_to_goal": "NA", "progress": "NA", "move_number": "32", "optimal_length": "14", "subject": "A191V7PT3DQKDP:3PMBY0YE28B43VMUKKJ6EDF85RV9C8"}
{"meta_move": "drag_end", "rt": "1120.0", "trial_number": "1", "pre_actions": "1", "move": "6@10", "instance": "prb343", "distance_to_goal": "NA", "progress": "NA", "move_number": "33", "optimal_length": "14", "subject": "A191V7PT3DQKDP:3PMBY0YE28B43VMUKKJ6EDF85RV9C8"}
{"meta_move": "drag_end", "rt": "1758.0", "trial_number": "1", "pre_actions": "1", "move": "1@28", "instance": "prb343", "distance_to_goal": "NA", "progress": "NA", "move_number": "34", "optimal_length": "14", "subject": "A191V7PT3DQKDP:3PMBY0YE28B43VMUKKJ6EDF85RV9C8"}
{"meta_move": "drag_end", "rt": "624.0", "trial_number": "1", "pre_actions": "1", "move": "2@21", "instance": "prb343", "distance_to_goal": "NA", "progress": "NA", "move_number": "35", "optimal_length": "14", "subject": "A191V7PT3DQKDP:3PMBY0YE28B43VMUKKJ6EDF85RV9C8"}
{"meta_move": "drag_end", "rt": "601.0", "trial_number": "1", "pre_actions": "1", "move": "3@20", "instance": "prb343", "distance_to_goal": "NA", "progress": "NA", "move_number": "36", "optimal_length": "14", "subject": "A191V7PT3DQKDP:3PMBY0YE28B43VMUKKJ6EDF85RV9C8"}
{"meta_move": "drag_end", "rt": "1606.0", "trial_number": "1", "pre_actions": "1", "move": "7@2", "instance": "prb343", "distance_to_goal": "NA", "progress": "NA", "move_number": "37", "optimal_length": "14", "subject": "A191V7PT3DQKDP:3PMBY0YE28B43VMUKKJ6EDF85RV9C8"}
{"meta_move": "drag_end", "rt": "3808.0", "trial_number": "1", "pre_actions": "1", "move": "6@10", "instance": "prb343", "distance_to_goal": "NA", "progress": "NA", "move_number": "38", "optimal_length": "14", "subject": "A191V7PT3DQKDP:3PMBY0YE28B43VMUKKJ6EDF85RV9C8"}
{"meta_move": "drag_end", "rt": "4392.0", "trial_number": "1", "pre_actions": "1", "move": "r@13", "instance": "prb343", "distance_to_goal": "NA", "progress": "NA", "move_number": "38", "optimal_length": "14", "subject": "A191V7PT3DQKDP:3PMBY0YE28B43VMUKKJ6EDF85RV9C8"}
{"meta_move": "drag_end", "rt": "1248.0", "trial_number": "1", "pre_actions": "1", "move": "5@12", "instance": "prb343", "distance_to_goal": "NA", "progress": "NA", "move_number": "39", "optimal_length": "14", "subject": "A191V7PT3DQKDP:3PMBY0YE28B43VMUKKJ6EDF85RV9C8"}
{"meta_move": "drag_end", "rt": "1968.0", "trial_number": "1", "pre_actions": "1", "move": "2@9", "instance": "prb343", "distance_to_goal": "NA", "progress": "NA", "move_number": "40", "optimal_length": "14", "subject": "A191V7PT3DQKDP:3PMBY0YE28B43VMUKKJ6EDF85RV9C8"}
{"meta_move": "drag_end", "rt": "1440.0", "trial_number": "1", "pre_actions": "1", "move": "7@3", "instance": "prb343", "distance_to_goal": "NA", "progress": "NA", "move_number": "41", "optimal_length": "14", "subject": "A191V7PT3DQKDP:3PMBY0YE28B43VMUKKJ6EDF85RV9C8"}
{"meta_move": "drag_end", "rt": "2632.0", "trial_number": "1", "pre_actions": "1", "move": "0@7", "instance": "prb343", "distance_to_goal": "NA", "progress": "NA", "move_number": "42", "optimal_length": "14", "subject": "A191V7PT3DQKDP:3PMBY0YE28B43VMUKKJ6EDF85RV9C8"}
{"meta_move": "drag_end", "rt": "384.0", "trial_number": "1", "pre_actions": "1", "move": "4@1", "instance": "prb343", "distance_to_goal": "NA", "progress": "NA", "move_number": "43", "optimal_length": "14", "subject": "A191V7PT3DQKDP:3PMBY0YE28B43VMUKKJ6EDF85RV9C8"}
{"meta_move": "drag_end", "rt": "617.0", "trial_number": "1", "pre_actions": "1", "move": "5@0", "instance": "prb343", "distance_to_goal": "NA", "progress": "NA", "move_number": "44", "optimal_length": "14", "subject": "A191V7PT3DQKDP:3PMBY0YE28B43VMUKKJ6EDF85RV9C8"}
{"meta_move": "drag_end", "rt": "736.0", "trial_number": "1", "pre_actions": "1", "move": "r@12", "instance": "prb343", "distance_to_goal": "NA", "progress": "NA", "move_number": "45", "optimal_length": "14", "subject": "A191V7PT3DQKDP:3PMBY0YE28B43VMUKKJ6EDF85RV9C8"}
{"meta_move": "drag_end", "rt": "759.0", "trial_number": "1", "pre_actions": "1", "move": "3@14", "instance": "prb343", "distance_to_goal": "NA", "progress": "NA", "move_number": "46", "optimal_length": "14", "subject": "A191V7PT3DQKDP:3PMBY0YE28B43VMUKKJ6EDF85RV9C8"}
{"meta_move": "drag_end", "rt": "625.0", "trial_number": "1", "pre_actions": "1", "move": "1@27", "instance": "prb343", "distance_to_goal": "NA", "progress": "NA", "move_number": "47", "optimal_length": "14", "subject": "A191V7PT3DQKDP:3PMBY0YE28B43VMUKKJ6EDF85RV9C8"}
{"meta_move": "drag_end", "rt": "3199.0", "trial_number": "1", "pre_actions": "1", "move": "1@28", "instance": "prb343", "distance_to_goal": "NA", "progress": "NA", "move_number": "48", "optimal_length": "14", "subject": "A191V7PT3DQKDP:3PMBY0YE28B43VMUKKJ6EDF85RV9C8"}
{"meta_move": "drag_end", "rt": "736.0", "trial_number": "1", "pre_actions": "1", "move": "2@21", "instance": "prb343", "distance_to_goal": "NA", "progress": "NA", "move_number": "49", "optimal_length": "14", "subject": "A191V7PT3DQKDP:3PMBY0YE28B43VMUKKJ6EDF85RV9C8"}
{"meta_move": "drag_end", "rt": "528.0", "trial_number": "1", "pre_actions": "1", "move": "3@20", "instance": "prb343", "distance_to_goal": "NA", "progress": "NA", "move_number": "50", "optimal_length": "14", "subject": "A191V7PT3DQKDP:3PMBY0YE28B43VMUKKJ6EDF85RV9C8"}
{"meta_move": "drag_end", "rt": "1370.0", "trial_number": "1", "pre_actions": "1", "move": "6@16", "instance": "prb343", "distance_to_goal": "NA", "progress": "NA", "move_number": "51", "optimal_length": "14", "subject": "A191V7PT3DQKDP:3PMBY0YE28B43VMUKKJ6EDF85RV9C8"}
{"meta_move": "drag_end", "rt": "7910.0", "trial_number": "1", "pre_actions": "1", "move": "r@13", "instance": "prb343", "distance_to_goal": "NA", "progress": "NA", "move_number": "52", "optimal_length": "14", "subject": "A191V7PT3DQKDP:3PMBY0YE28B43VMUKKJ6EDF85RV9C8"}
{"meta_move": "drag_end", "rt": "2376.0", "trial_number": "1", "pre_actions": "1", "move": "5@12", "instance": "prb343", "distance_to_goal": "NA", "progress": "NA", "move_number": "53", "optimal_length": "14", "subject": "A191V7PT3DQKDP:3PMBY0YE28B43VMUKKJ6EDF85RV9C8"}
{"meta_move": "drag_end", "rt": "3112.0", "trial_number": "1", "pre_actions": "1", "move": "6@10", "instance": "prb343", "distance_to_goal": "NA", "progress": "NA", "move_number": "54", "optimal_length": "14", "subject": "A191V7PT3DQKDP:3PMBY0YE28B43VMUKKJ6EDF85RV9C8"}
{"meta_move": "drag_end", "rt": "783.0", "trial_number": "1", "pre_actions": "1", "move": "4@0", "instance": "prb343", "distance_to_goal": "NA", "progress": "NA", "move_number": "55", "optimal_length": "14", "subject": "A191V7PT3DQKDP:3PMBY0YE28B43VMUKKJ6EDF85RV9C8"}
{"meta_move": "drag_end", "rt": "528.0", "trial_number": "1", "pre_actions": "1", "move": "0@6", "instance": "prb343", "distance_to_goal": "NA", "progress": "NA", "move_number": "56", "optimal_length": "14", "subject": "A191V7PT3DQKDP:3PMBY0YE28B43VMUKKJ6EDF85RV9C8"}
{"meta_move": "drag_end", "rt": "1080.0", "trial_number": "1", "pre_actions": "1", "move": "5@18", "instance": "prb343", "distance_to_goal": "NA", "progress": "NA", "move_number": "57", "optimal_length": "14", "subject": "A191V7PT3DQKDP:3PMBY0YE28B43VMUKKJ6EDF85RV9C8"}
{"meta_move": "drag_end", "rt": "626.0", "trial_number": "1", "pre_actions": "1", "move": "r@12", "instance": "prb343", "distance_to_goal": "NA", "progress": "NA", "move_number": "58", "optimal_length": "14", "subject": "A191V7PT3DQKDP:3PMBY0YE28B43VMUKKJ6EDF85RV9C8"}
{"meta_move": "drag_end", "rt": "806.0", "trial_number": "1", "pre_actions": "1", "move": "3@2", "instance": "prb343", "distance_to_goal": "NA", "progress": "NA", "move_number": "59", "optimal_length": "14", "subject": "A191V7PT3DQKDP:3PMBY0YE28B43VMUKKJ6EDF85RV9C8"}
{"meta_move": "drag_end", "rt": "664.0", "trial_number": "1", "pre_actions": "1", "move": "2@9", "instance": "prb343", "distance_to_goal": "NA", "progress": "NA", "move_number": "60", "optimal_length": "14", "subject": "A191V7PT3DQKDP:3PMBY0YE28B43VMUKKJ6EDF85RV9C8"}
{"meta_move": "drag_end", "rt": "880.0", "trial_number": "1", "pre_actions": "1", "move": "1@25", "instance": "prb343", "distance_to_goal": "NA", "progress": "NA", "move_number": "61", "optimal_length": "14", "subject": "A191V7PT3DQKDP:3PMBY0YE28B43VMUKKJ6EDF85RV9C8"}
{"meta_move": "drag_end", "rt": "848.0", "trial_number": "1", "pre_actions": "1", "move": "2@21", "instance": "prb343", "distance_to_goal": "NA", "progress": "NA", "move_number": "62", "optimal_length": "14", "subject": "A191V7PT3DQKDP:3PMBY0YE28B43VMUKKJ6EDF85RV9C8"}
{"meta_move": "drag_end", "rt": "816.0", "trial_number": "1", "pre_actions": "1", "move": "6@28", "instance": "prb343", "distance_to_goal": "NA", "progress": "NA", "move_number": "63", "optimal_length": "14", "subject": "A191V7PT3DQKDP:3PMBY0YE28B43VMUKKJ6EDF85RV9C8"}
{"meta_move": "drag_end", "rt": "7936.0", "trial_number": "1", "pre_actions": "1", "move": "3@8", "instance": "prb343", "distance_to_goal": "NA", "progress": "NA", "move_number": "64", "optimal_length": "14", "subject": "A191V7PT3DQKDP:3PMBY0YE28B43VMUKKJ6EDF85RV9C8"}
{"meta_move": "drag_end", "rt": "1624.0", "trial_number": "1", "pre_actions": "1", "move": "2@9", "instance": "prb343", "distance_to_goal": "NA", "progress": "NA", "move_number": "65", "optimal_length": "14", "subject": "A191V7PT3DQKDP:3PMBY0YE28B43VMUKKJ6EDF85RV9C8"}
{"meta_move": "drag_end", "rt": "2623.0", "trial_number": "1", "pre_actions": "1", "move": "1@26", "instance": "prb343", "distance_to_goal": "NA", "progress": "NA", "move_number": "66", "optimal_length": "14", "subject": "A191V7PT3DQKDP:3PMBY0YE28B43VMUKKJ6EDF85RV9C8"}
{"meta_move": "drag_end", "rt": "4054.0", "trial_number": "1", "pre_actions": "1", "move": "5@24", "instance": "prb343", "distance_to_goal": "NA", "progress": "NA", "move_number": "67", "optimal_length": "14", "subject": "A191V7PT3DQKDP:3PMBY0YE28B43VMUKKJ6EDF85RV9C8"}
{"meta_move": "drag_end", "rt": "1946.0", "trial_number": "1", "pre_actions": "1", "move": "4@1", "instance": "prb343", "distance_to_goal": "NA", "progress": "NA", "move_number": "68", "optimal_length": "14", "subject": "A191V7PT3DQKDP:3PMBY0YE28B43VMUKKJ6EDF85RV9C8"}
{"meta_move": "drag_end", "rt": "1822.0", "trial_number": "1", "pre_actions": "1", "move": "1@25", "instance": "prb343", "distance_to_goal": "NA", "progress": "NA", "move_number": "69", "optimal_length": "14", "subject": "A191V7PT3DQKDP:3PMBY0YE28B43VMUKKJ6EDF85RV9C8"}
{"meta_move": "drag_end", "rt": "936.0", "trial_number": "1", "pre_actions": "1", "move": "2@21", "instance": "prb343", "distance_to_goal": "NA", "progress": "NA", "move_number": "70", "optimal_length": "14", "subject": "A191V7PT3DQKDP:3PMBY0YE28B43VMUKKJ6EDF85RV9C8"}
{"meta_move": "drag_end", "rt": "2112.0", "trial_number": "1", "pre_actions": "1", "move": "5@18", "instance": "prb343", "distance_to_goal": "NA", "progress": "NA", "move_number": "71", "optimal_length": "14", "subject": "A191V7PT3DQKDP:3PMBY0YE28B43VMUKKJ6EDF85RV9C8"}
{"meta_move": "drag_end", "rt": "1352.0", "trial_number": "1", "pre_actions": "1", "move": "4@0", "instance": "prb343", "distance_to_goal": "NA", "progress": "NA", "move_number": "72", "optimal_length": "14", "subject": "A191V7PT3DQKDP:3PMBY0YE28B43VMUKKJ6EDF85RV9C8"}
{"meta_move": "drag_end", "rt": "688.0", "trial_number": "1", "pre_actions": "1", "move": "3@2", "instance": "prb343", "distance_to_goal": "NA", "progress": "NA", "move_number": "73", "optimal_length": "14", "subject": "A191V7PT3DQKDP:3PMBY0YE28B43VMUKKJ6EDF85RV9C8"}
{"meta_move": "drag_end", "rt": "2275.0", "trial_number": "1", "pre_actions": "1", "move": "6@16", "instance": "prb343", "distance_to_goal": "NA", "progress": "NA", "move_number": "74", "optimal_length": "14", "subject": "A191V7PT3DQKDP:3PMBY0YE28B43VMUKKJ6EDF85RV9C8"}
{"meta_move": "drag_end", "rt": "565.0", "trial_number": "1", "pre_actions": "1", "move": "2@9", "instance": "prb343", "distance_to_goal": "NA", "progress": "NA", "move_number": "75", "optimal_length": "14", "subject": "A191V7PT3DQKDP:3PMBY0YE28B43VMUKKJ6EDF85RV9C8"}
{"meta_move": "drag_end", "rt": "1208.0", "trial_number": "1", "pre_actions": "1", "move": "1@27", "instance": "prb343", "distance_to_goal": "NA", "progress": "NA", "move_number": "76", "optimal_length": "14", "subject": "A191V7PT3DQKDP:3PMBY0YE28B43VMUKKJ6EDF85RV9C8"}
{"meta_move": "drag_end", "rt": "1320.0", "trial_number": "1", "pre_actions": "1", "move": "5@24", "instance": "prb343", "distance_to_goal": "NA", "progress": "NA", "move_number": "77", "optimal_length": "14", "subject": "A191V7PT3DQKDP:3PMBY0YE28B43VMUKKJ6EDF85RV9C8"}
{"meta_move": "drag_end", "rt": "720.0", "trial_number": "1", "pre_actions": "1", "move": "3@20", "instance": "prb343", "distance_to_goal": "NA", "progress": "NA", "move_number": "78", "optimal_length": "14", "subject": "A191V7PT3DQKDP:3PMBY0YE28B43VMUKKJ6EDF85RV9C8"}
{"meta_move": "drag_end", "rt": "914.0", "trial_number": "1", "pre_actions": "1", "move": "r@13", "instance": "prb343", "distance_to_goal": "NA", "progress": "NA", "move_number": "79", "optimal_length": "14", "subject": "A191V7PT3DQKDP:3PMBY0YE28B43VMUKKJ6EDF85RV9C8"}
{"meta_move": "drag_end", "rt": "1062.0", "trial_number": "1", "pre_actions": "1", "move": "0@7", "instance": "prb343", "distance_to_goal": "NA", "progress": "NA", "move_number": "80", "optimal_length": "14", "subject": "A191V7PT3DQKDP:3PMBY0YE28B43VMUKKJ6EDF85RV9C8"}
{"meta_move": "drag_end", "rt": "1152.0", "trial_number": "1", "pre_actions": "1", "move": "5@6", "instance": "prb343", "distance_to_goal": "NA", "progress": "NA", "move_number": "81", "optimal_length": "14", "subject": "A191V7PT3DQKDP:3PMBY0YE28B43VMUKKJ6EDF85RV9C8"}
{"meta_move": "drag_end", "rt": "5280.0", "trial_number": "1", "pre_actions": "1", "move": "1@28", "instance": "prb343", "distance_to_goal": "NA", "progress": "NA", "move_number": "82", "optimal_length": "14", "subject": "A191V7PT3DQKDP:3PMBY0YE28B43VMUKKJ6EDF85RV9C8"}
{"meta_move": "drag_end", "rt": "825.0", "trial_number": "1", "pre_actions": "1", "move": "2@21", "instance": "prb343", "distance_to_goal": "NA", "progress": "NA", "move_number": "83", "optimal_length": "14", "subject": "A191V7PT3DQKDP:3PMBY0YE28B43VMUKKJ6EDF85RV9C8"}
{"meta_move": "drag_end", "rt": "975.0", "trial_number": "1", "pre_actions": "1", "move": "r@14", "instance": "prb343", "distance_to_goal": "NA", "progress": "NA", "move_number": "84", "optimal_length": "14", "subject": "A191V7PT3DQKDP:3PMBY0YE28B43VMUKKJ6EDF85RV9C8"}
{"meta_move": "drag_end", "rt": "2728.0", "trial_number": "1", "pre_actions": "1", "move": "0@10", "instance": "prb343", "distance_to_goal": "NA", "progress": "NA", "move_number": "85", "optimal_length": "14", "subject": "A191V7PT3DQKDP:3PMBY0YE28B43VMUKKJ6EDF85RV9C8"}
{"meta_move": "drag_end", "rt": "3303.0", "trial_number": "1", "pre_actions": "1", "move": "7@3", "instance": "prb343", "distance_to_goal": "NA", "progress": "NA", "move_number": "86", "optimal_length": "14", "subject": "A191V7PT3DQKDP:3PMBY0YE28B43VMUKKJ6EDF85RV9C8"}
{"meta_move": "drag_end", "rt": "7352.0", "trial_number": "1", "pre_actions": "1", "move": "5@18", "instance": "prb343", "distance_to_goal": "NA", "progress": "NA", "move_number": "86", "optimal_length": "14", "subject": "A191V7PT3DQKDP:3PMBY0YE28B43VMUKKJ6EDF85RV9C8"}
{"meta_move": "drag_end", "rt": "714.0", "trial_number": "1", "pre_actions": "1", "move": "r@12", "instance": "prb343", "distance_to_goal": "NA", "progress": "NA", "move_number": "87", "optimal_length": "14", "subject": "A191V7PT3DQKDP:3PMBY0YE28B43VMUKKJ6EDF85RV9C8"}
{"meta_move": "drag_end", "rt": "2814.0", "trial_number": "1", "pre_actions": "1", "move": "3@20", "instance": "prb343", "distance_to_goal": "NA", "progress": "NA", "move_number": "88", "optimal_length": "14", "subject": "A191V7PT3DQKDP:3PMBY0YE28B43VMUKKJ6EDF85RV9C8"}
{"meta_move": "drag_end", "rt": "2016.0", "trial_number": "1", "pre_actions": "1", "move": "2@9", "instance": "prb343", "distance_to_goal": "NA", "progress": "NA", "move_number": "88", "optimal_length": "14", "subject": "A191V7PT3DQKDP:3PMBY0YE28B43VMUKKJ6EDF85RV9C8"}
{"meta_move": "drag_end", "rt": "1714.0", "trial_number": "1", "pre_actions": "1", "move": "1@27", "instance": "prb343", "distance_to_goal": "NA", "progress": "NA", "move_number": "89", "optimal_length": "14", "subject": "A191V7PT3DQKDP:3PMBY0YE28B43VMUKKJ6EDF85RV9C8"}
{"meta_move": "drag_end", "rt": "662.0", "trial_number": "1", "pre_actions": "1", "move": "3@2", "instance": "prb343", "distance_to_goal": "NA", "progress": "NA", "move_number": "90", "optimal_length": "14", "subject": "A191V7PT3DQKDP:3PMBY0YE28B43VMUKKJ6EDF85RV9C8"}
{"meta_move": "drag_end", "rt": "800.0", "trial_number": "1", "pre_actions": "1", "move": "1@25", "instance": "prb343", "distance_to_goal": "NA", "progress": "NA", "move_number": "91", "optimal_length": "14", "subject": "A191V7PT3DQKDP:3PMBY0YE28B43VMUKKJ6EDF85RV9C8"}
{"meta_move": "drag_end", "rt": "1616.0", "trial_number": "1", "pre_actions": "1", "move": "6@28", "instance": "prb343", "distance_to_goal": "NA", "progress": "NA", "move_number": "92", "optimal_length": "14", "subject": "A191V7PT3DQKDP:3PMBY0YE28B43VMUKKJ6EDF85RV9C8"}
{"meta_move": "drag_end", "rt": "4104.0", "trial_number": "1", "pre_actions": "1", "move": "2@21", "instance": "prb343", "distance_to_goal": "NA", "progress": "NA", "move_number": "93", "optimal_length": "14", "subject": "A191V7PT3DQKDP:3PMBY0YE28B43VMUKKJ6EDF85RV9C8"}
{"meta_move": "drag_end", "rt": "2049.0", "trial_number": "1", "pre_actions": "1", "move": "3@2", "instance": "prb343", "distance_to_goal": "NA", "progress": "NA", "move_number": "94", "optimal_length": "14", "subject": "A191V7PT3DQKDP:3PMBY0YE28B43VMUKKJ6EDF85RV9C8"}
{"meta_move": "drag_end", "rt": "7837.0", "trial_number": "1", "pre_actions": "1", "move": "2@9", "instance": "prb343", "distance_to_goal": "NA", "progress": "NA", "move_number": "94", "optimal_length": "14", "subject": "A191V7PT3DQKDP:3PMBY0YE28B43VMUKKJ6EDF85RV9C8"}
{"meta_move": "drag_end", "rt": "751.0", "trial_number": "1", "pre_actions": "1", "move": "6@16", "instance": "prb343", "distance_to_goal": "NA", "progress": "NA", "move_number": "95", "optimal_length": "14", "subject": "A191V7PT3DQKDP:3PMBY0YE28B43VMUKKJ6EDF85RV9C8"}
{"meta_move": "drag_end", "rt": "1297.0", "trial_number": "1", "pre_actions": "1", "move": "1@27", "instance": "prb343", "distance_to_goal": "NA", "progress": "NA", "move_number": "96", "optimal_length": "14", "subject": "A191V7PT3DQKDP:3PMBY0YE28B43VMUKKJ6EDF85RV9C8"}
{"meta_move": "drag_end", "rt": "1431.0", "trial_number": "1", "pre_actions": "1", "move": "3@20", "instance": "prb343", "distance_to_goal": "NA", "progress": "NA", "move_number": "97", "optimal_length": "14", "subject": "A191V7PT3DQKDP:3PMBY0YE28B43VMUKKJ6EDF85RV9C8"}
{"meta_move": "drag_end", "rt": "928.0", "trial_number": "1", "pre_actions": "1", "move": "r@13", "instance": "prb343", "distance_to_goal": "NA", "progress": "NA", "move_number": "98", "optimal_length": "14", "subject": "A191V7PT3DQKDP:3PMBY0YE28B43VMUKKJ6EDF85RV9C8"}
{"meta_move": "drag_end", "rt": "2464.0", "trial_number": "1", "pre_actions": "1", "move": "5@6", "instance": "prb343", "distance_to_goal": "NA", "progress": "NA", "move_number": "99", "optimal_length": "14", "subject": "A191V7PT3DQKDP:3PMBY0YE28B43VMUKKJ6EDF85RV9C8"}
{"meta_move": "drag_end", "rt": "457.0", "trial_number": "1", "pre_actions": "1", "move": "4@1", "instance": "prb343", "distance_to_goal": "NA", "progress": "NA", "move_number": "100", "optimal_length": "14", "subject": "A191V7PT3DQKDP:3PMBY0YE28B43VMUKKJ6EDF85RV9C8"}
{"meta_move": "drag_end", "rt": "551.0", "trial_number": "1", "pre_actions": "1", "move": "5@0", "instance": "prb343", "distance_to_goal": "NA", "progress": "NA", "move_number": "101", "optimal_length": "14", "subject": "A191V7PT3DQKDP:3PMBY0YE28B43VMUKKJ6EDF85RV9C8"}
{"meta_move": "drag_end", "rt": "561.0", "trial_number": "1", "pre_actions": "1", "move": "r@12", "instance": "prb343", "distance_to_goal": "NA", "progress": "NA", "move_number": "102", "optimal_length": "14", "subject": "A191V7PT3DQKDP:3PMBY0YE28B43VMUKKJ6EDF85RV9C8"}
{"meta_move": "drag_end", "rt": "655.0", "trial_number": "1", "pre_actions": "1", "move": "3@8", "instance": "prb343", "distance_to_goal": "NA", "progress": "NA", "move_number": "103", "optimal_length": "14", "subject": "A191V7PT3DQKDP:3PMBY0YE28B43VMUKKJ6EDF85RV9C8"}
{"meta_move": "drag_end", "rt": "626.0", "trial_number": "1", "pre_actions": "1", "move": "1@24", "instance": "prb343", "distance_to_goal": "NA", "progress": "NA", "move_number": "104", "optimal_length": "14", "subject": "A191V7PT3DQKDP:3PMBY0YE28B43VMUKKJ6EDF85RV9C8"}
{"meta_move": "drag_end", "rt": "592.0", "trial_number": "1", "pre_actions": "1", "move": "3@20", "instance": "prb343", "distance_to_goal": "NA", "progress": "NA", "move_number": "105", "optimal_length": "14", "subject": "A191V7PT3DQKDP:3PMBY0YE28B43VMUKKJ6EDF85RV9C8"}
{"meta_move": "drag_end", "rt": "528.0", "trial_number": "1", "pre_actions": "1", "move": "2@21", "instance": "prb343", "distance_to_goal": "NA", "progress": "NA", "move_number": "106", "optimal_length": "14", "subject": "A191V7PT3DQKDP:3PMBY0YE28B43VMUKKJ6EDF85RV9C8"}
{"meta_move": "drag_end", "rt": "488.0", "trial_number": "1", "pre_actions": "1", "move": "6@28", "instance": "prb343", "distance_to_goal": "NA", "progress": "NA", "move_number": "107", "optimal_length": "14", "subject": "A191V7PT3DQKDP:3PMBY0YE28B43VMUKKJ6EDF85RV9C8"}
{"meta_move": "win", "rt": "579.0", "trial_number": "1", "pre_actions": "1", "move": "r@12", "instance": "prb343", "distance_to_goal": "1", "progress": "NA", "move_number": "108", "optimal_length": "14", "subject": "A191V7PT3DQKDP:3PMBY0YE28B43VMUKKJ6EDF85RV9C8"}
{"meta_move": "drag_end", "rt": "179.0", "trial_number": "0", "pre_actions": "0", "move": "r@16", "instance": "prb343", "distance_to_goal": "NA", "progress": "NA", "move_number": "108", "optimal_length": "14", "subject": "A191V7PT3DQKDP:3PMBY0YE28B43VMUKKJ6EDF85RV9C8"}
{"meta_move": "drag_end", "rt": "3106.0", "trial_number": "1", "pre_actions": "1", "move": "3@20", "instance": "prb343", "distance_to_goal": "NA", "progress": "NA", "move_number": "0", "optimal_length": "14", "subject": "A1F4N58CAX8IMK:3TS1AR6UQRM7SOIBWPBN8N9589Y7FV"}
{"meta_move": "drag_end", "rt": "825.0", "trial_number": "1", "pre_actions": "1", "move": "0@6", "instance": "prb343", "distance_to_goal": "NA", "progress": "NA", "move_number": "1", "optimal_length": "14", "subject": "A1F4N58CAX8IMK:3TS1AR6UQRM7SOIBWPBN8N9589Y7FV"}
{"meta_move": "drag_end", "rt": "775.0", "trial_number": "1", "pre_actions": "1", "move": "6@10", "instance": "prb343", "distance_to_goal": "NA", "progress": "NA", "move_number": "2", "optimal_length": "14", "subject": "A1F4N58CAX8IMK:3TS1AR6UQRM7SOIBWPBN8N9589Y7FV"}
{"meta_move": "drag_end", "rt": "1480.0", "trial_number": "1", "pre_actions": "1", "move": "7@3", "instance": "prb343", "distance_to_goal": "NA", "progress": "NA", "move_number": "3", "optimal_length": "14", "subject": "A1F4N58CAX8IMK:3TS1AR6UQRM7SOIBWPBN8N9589Y7FV"}
{"meta_move": "drag_end", "rt": "2185.0", "trial_number": "1", "pre_actions": "1", "move": "5@18", "instance": "prb343", "distance_to_goal": "NA", "progress": "NA", "move_number": "4", "optimal_length": "14", "subject": "A1F4N58CAX8IMK:3TS1AR6UQRM7SOIBWPBN8N9589Y7FV"}
{"meta_move": "drag_end", "rt": "600.0", "trial_number": "1", "pre_actions": "1", "move": "3@2", "instance": "prb343", "distance_to_goal": "NA", "progress": "NA", "move_number": "5", "optimal_length": "14", "subject": "A1F4N58CAX8IMK:3TS1AR6UQRM7SOIBWPBN8N9589Y7FV"}
{"meta_move": "drag_end", "rt": "535.0", "trial_number": "1", "pre_actions": "1", "move": "2@9", "instance": "prb343", "distance_to_goal": "NA", "progress": "NA", "move_number": "6", "optimal_length": "14", "subject": "A1F4N58CAX8IMK:3TS1AR6UQRM7SOIBWPBN8N9589Y7FV"}
{"meta_move": "drag_end", "rt": "1064.0", "trial_number": "1", "pre_actions": "1", "move": "1@25", "instance": "prb343", "distance_to_goal": "NA", "progress": "NA", "move_number": "7", "optimal_length": "14", "subject": "A1F4N58CAX8IMK:3TS1AR6UQRM7SOIBWPBN8N9589Y7FV"}
{"meta_move": "drag_end", "rt": "864.0", "trial_number": "1", "pre_actions": "1", "move": "6@28", "instance": "prb343", "distance_to_goal": "NA", "progress": "NA", "move_number": "8", "optimal_length": "14", "subject": "A1F4N58CAX8IMK:3TS1AR6UQRM7SOIBWPBN8N9589Y7FV"}
{"meta_move": "drag_end", "rt": "841.0", "trial_number": "1", "pre_actions": "1", "move": "2@21", "instance": "prb343", "distance_to_goal": "NA", "progress": "NA", "move_number": "9", "optimal_length": "14", "subject": "A1F4N58CAX8IMK:3TS1AR6UQRM7SOIBWPBN8N9589Y7FV"}
{"meta_move": "drag_end", "rt": "4751.0", "trial_number": "1", "pre_actions": "1", "move": "6@10", "instance": "prb343", "distance_to_goal": "NA", "progress": "NA", "move_number": "10", "optimal_length": "14", "subject": "A1F4N58CAX8IMK:3TS1AR6UQRM7SOIBWPBN8N9589Y7FV"}
{"meta_move": "drag_end", "rt": "1128.0", "trial_number": "1", "pre_actions": "1", "move": "2@9", "instance": "prb343", "distance_to_goal": "NA", "progress": "NA", "move_number": "11", "optimal_length": "14", "subject": "A1F4N58CAX8IMK:3TS1AR6UQRM7SOIBWPBN8N9589Y7FV"}
{"meta_move": "drag_end", "rt": "736.0", "trial_number": "1", "pre_actions": "1", "move": "1@28", "instance": "prb343", "distance_to_goal": "NA", "progress": "NA", "move_number": "12", "optimal_length": "14", "subject": "A1F4N58CAX8IMK:3TS1AR6UQRM7SOIBWPBN8N9589Y7FV"}
{"meta_move": "drag_end", "rt": "856.0", "trial_number": "1", "pre_actions": "1", "move": "3@20", "instance": "prb343", "distance_to_goal": "NA", "progress": "NA", "move_number": "13", "optimal_length": "14", "subject": "A1F4N58CAX8IMK:3TS1AR6UQRM7SOIBWPBN8N9589Y7FV"}
{"meta_move": "drag_end", "rt": "705.0", "trial_number": "1", "pre_actions": "1", "move": "r@13", "instance": "prb343", "distance_to_goal": "NA", "progress": "NA", "move_number": "14", "optimal_length": "14", "subject": "A1F4N58CAX8IMK:3TS1AR6UQRM7SOIBWPBN8N9589Y7FV"}
{"meta_move": "drag_end", "rt": "919.0", "trial_number": "1", "pre_actions": "1", "move": "5@12", "instance": "prb343", "distance_to_goal": "NA", "progress": "NA", "move_number": "15", "optimal_length": "14", "subject": "A1F4N58CAX8IMK:3TS1AR6UQRM7SOIBWPBN8N9589Y7FV"}
{"meta_move": "drag_end", "rt": "1024.0", "trial_number": "1", "pre_actions": "1", "move": "6@16", "instance": "prb343", "distance_to_goal": "NA", "progress": "NA", "move_number": "16", "optimal_length": "14", "subject": "A1F4N58CAX8IMK:3TS1AR6UQRM7SOIBWPBN8N9589Y7FV"}
{"meta_move": "drag_end", "rt": "801.0", "trial_number": "1", "pre_actions": "1", "move": "6@10", "instance": "prb343", "distance_to_goal": "NA", "progress": "NA", "move_number": "17", "optimal_length": "14", "subject": "A1F4N58CAX8IMK:3TS1AR6UQRM7SOIBWPBN8N9589Y7FV"}
{"meta_move": "drag_end", "rt": "656.0", "trial_number": "1", "pre_actions": "1", "move": "2@21", "instance": "prb343", "distance_to_goal": "NA", "progress": "NA", "move_number": "18", "optimal_length": "14", "subject": "A1F4N58CAX8IMK:3TS1AR6UQRM7SOIBWPBN8N9589Y7FV"}
{"meta_move": "drag_end", "rt": "807.0", "trial_number": "1", "pre_actions": "1", "move": "r@14", "instance": "prb343", "distance_to_goal": "NA", "progress": "NA", "move_number": "19", "optimal_length": "14", "subject": "A1F4N58CAX8IMK:3TS1AR6UQRM7SOIBWPBN8N9589Y7FV"}
{"meta_move": "drag_end", "rt": "840.0", "trial_number": "1", "pre_actions": "1", "move": "6@16", "instance": "prb343", "distance_to_goal": "NA", "progress": "NA", "move_number": "20", "optimal_length": "14", "subject": "A1F4N58CAX8IMK:3TS1AR6UQRM7SOIBWPBN8N9589Y7FV"}
{"meta_move": "drag_end", "rt": "808.0", "trial_number": "1", "pre_actions": "1", "move": "r@14", "instance": "prb343", "distance_to_goal": "NA", "progress": "NA", "move_number": "21", "optimal_length": "14", "subject": "A1F4N58CAX8IMK:3TS1AR6UQRM7SOIBWPBN8N9589Y7FV"}
{"meta_move": "drag_end", "rt": "704.0", "trial_number": "1", "pre_actions": "1", "move": "7@2", "instance": "prb343", "distance_to_goal": "NA", "progress": "NA", "move_number": "21", "optimal_length": "14", "subject": "A1F4N58CAX8IMK:3TS1AR6UQRM7SOIBWPBN8N9589Y7FV"}
{"meta_move": "drag_end", "rt": "792.0", "trial_number": "1", "pre_actions": "1", "move": "6@10", "instance": "prb343", "distance_to_goal": "NA", "progress": "NA", "move_number": "22", "optimal_length": "14", "subject": "A1F4N58CAX8IMK:3TS1AR6UQRM7SOIBWPBN8N9589Y7FV"}
{"meta_move": "drag_end", "rt": "785.0", "trial_number": "1", "pre_actions": "1", "move": "3@20", "instance": "prb343", "distance_to_goal": "NA", "progress": "NA", "move_number": "23", "optimal_length": "14", "subject": "A1F4N58CAX8IMK:3TS1AR6UQRM7SOIBWPBN8N9589Y7FV"}
{"meta_move": "drag_end", "rt": "407.0", "trial_number": "1", "pre_actions": "1", "move": "r@13", "instance": "prb343", "distance_to_goal": "NA", "progress": "NA", "move_number": "23", "optimal_length": "14", "subject": "A1F4N58CAX8IMK:3TS1AR6UQRM7SOIBWPBN8N9589Y7FV"}
{"meta_move": "drag_end", "rt": "904.0", "trial_number": "1", "pre_actions": "1", "move": "2@9", "instance": "prb343", "distance_to_goal": "NA", "progress": "NA", "move_number": "24", "optimal_length": "14", "subject": "A1F4N58CAX8IMK:3TS1AR6UQRM7SOIBWPBN8N9589Y7FV"}
{"meta_move": "drag_end", "rt": "720.0", "trial_number": "1", "pre_actions": "1", "move": "3@20", "instance": "prb343", "distance_to_goal": "NA", "progress": "NA", "move_number": "25", "optimal_length": "14", "subject": "A1F4N58CAX8IMK:3TS1AR6UQRM7SOIBWPBN8N9589Y7FV"}
{"meta_move": "drag_end", "rt": "673.0", "trial_number": "1", "pre_actions": "1", "move": "1@27", "instance": "prb343", "distance_to_goal": "NA", "progress": "NA", "move_number": "25", "optimal_length": "14", "subject": "A1F4N58CAX8IMK:3TS1AR6UQRM7SOIBWPBN8N9589Y7FV"}
{"meta_move": "drag_end", "rt": "591.0", "trial_number": "1", "pre_actions": "1", "move": "6@16", "instance": "prb343", "distance_to_goal": "NA", "progress": "NA", "move_number": "26", "optimal_length": "14", "subject": "A1F4N58CAX8IMK:3TS1AR6UQRM7SOIBWPBN8N9589Y7FV"}
{"meta_move": "drag_end", "rt": "872.0", "trial_number": "1", "pre_actions": "1", "move": "7@3", "instance": "prb343", "distance_to_goal": "NA", "progress": "NA", "move_number": "27", "optimal_length": "14", "subject": "A1F4N58CAX8IMK:3TS1AR6UQRM7SOIBWPBN8N9589Y7FV"}
{"meta_move": "drag_end", "rt": "753.0", "trial_number": "1", "pre_actions": "1", "move": "2@9", "instance": "prb343", "distance_to_goal": "NA", "progress": "NA", "move_number": "28", "optimal_length": "14", "subject": "A1F4N58CAX8IMK:3TS1AR6UQRM7SOIBWPBN8N9589Y7FV"}
{"meta_move": "drag_end", "rt": "960.0", "trial_number": "1", "pre_actions": "1", "move": "1@28", "instance": "prb343", "distance_to_goal": "NA", "progress": "NA", "move_number": "28", "optimal_length": "14", "subject": "A1F4N58CAX8IMK:3TS1AR6UQRM7SOIBWPBN8N9589Y7FV"}
{"meta_move": "drag_end", "rt": "776.0", "trial_number": "1", "pre_actions": "1", "move": "2@21", "instance": "prb343", "distance_to_goal": "NA", "progress": "NA", "move_number": "29", "optimal_length": "14", "subject": "A1F4N58CAX8IMK:3TS1AR6UQRM7SOIBWPBN8N9589Y7FV"}
{"meta_move": "drag_end", "rt": "903.0", "trial_number": "1", "pre_actions": "1", "move": "6@10", "instance": "prb343", "distance_to_goal": "NA", "progress": "NA", "move_number": "30", "optimal_length": "14", "subject": "A1F4N58CAX8IMK:3TS1AR6UQRM7SOIBWPBN8N9589Y7FV"}
{"meta_move": "drag_end", "rt": "880.0", "trial_number": "1", "pre_actions": "1", "move": "r@14", "instance": "prb343", "distance_to_goal": "NA", "progress": "NA", "move_number": "31", "optimal_length": "14", "subject": "A1F4N58CAX8IMK:3TS1AR6UQRM7SOIBWPBN8N9589Y7FV"}
{"meta_move": "drag_end", "rt": "3233.0", "trial_number": "1", "pre_actions": "1", "move": "7@2", "instance": "prb343", "distance_to_goal": "NA", "progress": "NA", "move_number": "32", "optimal_length": "14", "subject": "A1F4N58CAX8IMK:3TS1AR6UQRM7SOIBWPBN8N9589Y7FV"}
{"meta_move": "drag_end", "rt": "1031.0", "trial_number": "1", "pre_actions": "1", "move": "7@3", "instance": "prb343", "distance_to_goal": "NA", "progress": "NA", "move_number": "33", "optimal_length": "14", "subject": "A1F4N58CAX8IMK:3TS1AR6UQRM7SOIBWPBN8N9589Y7FV"}
{"meta_move": "drag_end", "rt": "952.0", "trial_number": "1", "pre_actions": "1", "move": "3@20", "instance": "prb343", "distance_to_goal": "NA", "progress": "NA", "move_number": "34", "optimal_length": "14", "subject": "A1F4N58CAX8IMK:3TS1AR6UQRM7SOIBWPBN8N9589Y7FV"}
{"meta_move": "drag_end", "rt": "649.0", "trial_number": "1", "pre_actions": "1", "move": "2@21", "instance": "prb343", "distance_to_goal": "NA", "progress": "NA", "move_number": "34", "optimal_length": "14", "subject": "A1F4N58CAX8IMK:3TS1AR6UQRM7SOIBWPBN8N9589Y7FV"}
{"meta_move": "drag_end", "rt": "496.0", "trial_number": "1", "pre_actions": "1", "move": "1@28", "instance": "prb343", "distance_to_goal": "NA", "progress": "NA", "move_number": "34", "optimal_length": "14", "subject": "A1F4N58CAX8IMK:3TS1AR6UQRM7SOIBWPBN8N9589Y7FV"}
{"meta_move": "drag_end", "rt": "632.0", "trial_number": "1", "pre_actions": "1", "move": "6@16", "instance": "prb343", "distance_to_goal": "NA", "progress": "NA", "move_number": "34", "optimal_length": "14", "subject": "A1F4N58CAX8IMK:3TS1AR6UQRM7SOIBWPBN8N9589Y7FV"}
{"meta_move": "drag_end", "rt": "599.0", "trial_number": "1", "pre_actions": "1", "move": "r@14", "instance": "prb343", "distance_to_goal": "NA", "progress": "NA", "move_number": "35", "optimal_length": "14", "subject": "A1F4N58CAX8IMK:3TS1AR6UQRM7SOIBWPBN8N9589Y7FV"}
{"meta_move": "drag_end", "rt": "4200.0", "trial_number": "1", "pre_actions": "1", "move": "0@10", "instance": "prb343", "distance_to_goal": "NA", "progress": "NA", "move_number": "35", "optimal_length": "14", "subject": "A1F4N58CAX8IMK:3TS1AR6UQRM7SOIBWPBN8N9589Y7FV"}
{"meta_move": "drag_end", "rt": "704.0", "trial_number": "1", "pre_actions": "1", "move": "5@6", "instance": "prb343", "distance_to_goal": "NA", "progress": "NA", "move_number": "36", "optimal_length": "14", "subject": "A1F4N58CAX8IMK:3TS1AR6UQRM7SOIBWPBN8N9589Y7FV"}
{"meta_move": "drag_end", "rt": "728.0", "trial_number": "1", "pre_actions": "1", "move": "r@13", "instance": "prb343", "distance_to_goal": "NA", "progress": "NA", "move_number": "37", "optimal_length": "14", "subject": "A1F4N58CAX8IMK:3TS1AR6UQRM7SOIBWPBN8N9589Y7FV"}
{"meta_move": "drag_end", "rt": "1608.0", "trial_number": "1", "pre_actions": "1", "move": "0@7", "instance": "prb343", "distance_to_goal": "NA", "progress": "NA", "move_number": "38", "optimal_length": "14", "subject": "A1F4N58CAX8IMK:3TS1AR6UQRM7SOIBWPBN8N9589Y7FV"}
{"meta_move": "drag_end", "rt": "1072.0", "trial_number": "1", "pre_actions": "1", "move": "6@16", "instance": "prb343", "distance_to_goal": "NA", "progress": "NA", "move_number": "39", "optimal_length": "14", "subject": "A1F4N58CAX8IMK:3TS1AR6UQRM7SOIBWPBN8N9589Y7FV"}
{"meta_move": "drag_end", "rt": "544.0", "trial_number": "1", "pre_actions": "1", "move": "2@9", "instance": "prb343", "distance_to_goal": "NA", "progress": "NA", "move_number": "39", "optimal_length": "14", "subject": "A1F4N58CAX8IMK:3TS1AR6UQRM7SOIBWPBN8N9589Y7FV"}
{"meta_move": "drag_end", "rt": "752.0", "trial_number": "1", "pre_actions": "1", "move": "1@27", "instance": "prb343", "distance_to_goal": "NA", "progress": "NA", "move_number": "40", "optimal_length": "14", "subject": "A1F4N58CAX8IMK:3TS1AR6UQRM7SOIBWPBN8N9589Y7FV"}
{"meta_move": "drag_end", "rt": "1024.0", "trial_number": "1", "pre_actions": "1", "move": "6@16", "instance": "prb343", "distance_to_goal": "NA", "progress": "NA", "move_number": "41", "optimal_length": "14", "subject": "A1F4N58CAX8IMK:3TS1AR6UQRM7SOIBWPBN8N9589Y7FV"}
{"meta_move": "drag_end", "rt": "872.0", "trial_number": "1", "pre_actions": "1", "move": "1@28", "instance": "prb343", "distance_to_goal": "NA", "progress": "NA", "move_number": "41", "optimal_length": "14", "subject": "A1F4N58CAX8IMK:3TS1AR6UQRM7SOIBWPBN8N9589Y7FV"}
{"meta_move": "drag_end", "rt": "872.0", "trial_number": "1", "pre_actions": "1", "move": "2@21", "instance": "prb343", "distance_to_goal": "NA", "progress": "NA", "move_number": "42", "optimal_length": "14", "subject": "A1F4N58CAX8IMK:3TS1AR6UQRM7SOIBWPBN8N9589Y7FV"}
{"meta_move": "drag_end", "rt": "656.0", "trial_number": "1", "pre_actions": "1", "move": "6@10", "instance": "prb343", "distance_to_goal": "NA", "progress": "NA", "move_number": "43", "optimal_length": "14", "subject": "A1F4N58CAX8IMK:3TS1AR6UQRM7SOIBWPBN8N9589Y7FV"}
{"meta_move": "drag_end", "rt": "536.0", "trial_number": "1", "pre_actions": "1", "move": "r@14", "instance": "prb343", "distance_to_goal": "NA", "progress": "NA", "move_number": "44", "optimal_length": "14", "subject": "A1F4N58CAX8IMK:3TS1AR6UQRM7SOIBWPBN8N9589Y7FV"}
{"meta_move": "drag_end", "rt": "722.0", "trial_number": "1", "pre_actions": "1", "move": "3@20", "instance": "prb343", "distance_to_goal": "NA", "progress": "NA", "move_number": "45", "optimal_length": "14", "subject": "A1F4N58CAX8IMK:3TS1AR6UQRM7SOIBWPBN8N9589Y7FV"}
{"meta_move": "drag_end", "rt": "638.0", "trial_number": "1", "pre_actions": "1", "move": "0@7", "instance": "prb343", "distance_to_goal": "NA", "progress": "NA", "move_number": "45", "optimal_length": "14", "subject": "A1F4N58CAX8IMK:3TS1AR6UQRM7SOIBWPBN8N9589Y7FV"}
{"meta_move": "drag_end", "rt": "1632.0", "trial_number": "1", "pre_actions": "1", "move": "3@20", "instance": "prb343", "distance_to_goal": "NA", "progress": "NA", "move_number": "45", "optimal_length": "14", "subject": "A1F4N58CAX8IMK:3TS1AR6UQRM7SOIBWPBN8N9589Y7FV"}
{"meta_move": "drag_end", "rt": "1032.0", "trial_number": "1", "pre_actions": "1", "move": "6@16", "instance": "prb343", "distance_to_goal": "NA", "progress": "NA", "move_number": "45", "optimal_length": "14", "subject": "A1F4N58CAX8IMK:3TS1AR6UQRM7SOIBWPBN8N9589Y7FV"}
{"meta_move": "drag_end", "rt": "824.0", "trial_number": "1", "pre_actions": "1", "move": "0@10", "instance": "prb343", "distance_to_goal": "NA", "progress": "NA", "move_number": "46", "optimal_length": "14", "subject": "A1F4N58CAX8IMK:3TS1AR6UQRM7SOIBWPBN8N9589Y7FV"}
{"meta_move": "drag_end", "rt": "880.0", "trial_number": "1", "pre_actions": "1", "move": "5@24", "instance": "prb343", "distance_to_goal": "NA", "progress": "NA", "move_number": "47", "optimal_length": "14", "subject": "A1F4N58CAX8IMK:3TS1AR6UQRM7SOIBWPBN8N9589Y7FV"}
{"meta_move": "drag_end", "rt": "632.0", "trial_number": "1", "pre_actions": "1", "move": "r@12", "instance": "prb343", "distance_to_goal": "NA", "progress": "NA", "move_number": "48", "optimal_length": "14", "subject": "A1F4N58CAX8IMK:3TS1AR6UQRM7SOIBWPBN8N9589Y7FV"}
{"meta_move": "drag_end", "rt": "824.0", "trial_number": "1", "pre_actions": "1", "move": "3@2", "instance": "prb343", "distance_to_goal": "NA", "progress": "NA", "move_number": "49", "optimal_length": "14", "subject": "A1F4N58CAX8IMK:3TS1AR6UQRM7SOIBWPBN8N9589Y7FV"}
{"meta_move": "drag_end", "rt": "1664.0", "trial_number": "1", "pre_actions": "1", "move": "3@20", "instance": "prb343", "distance_to_goal": "NA", "progress": "NA", "move_number": "50", "optimal_length": "14", "subject": "A1F4N58CAX8IMK:3TS1AR6UQRM7SOIBWPBN8N9589Y7FV"}
{"meta_move": "drag_end", "rt": "560.0", "trial_number": "1", "pre_actions": "1", "move": "2@9", "instance": "prb343", "distance_to_goal": "NA", "progress": "NA", "move_number": "51", "optimal_length": "14", "subject": "A1F4N58CAX8IMK:3TS1AR6UQRM7SOIBWPBN8N9589Y7FV"}
{"meta_move": "drag_end", "rt": "584.0", "trial_number": "1", "pre_actions": "1", "move": "r@13", "instance": "prb343", "distance_to_goal": "NA", "progress": "NA", "move_number": "52", "optimal_length": "14", "subject": "A1F4N58CAX8IMK:3TS1AR6UQRM7SOIBWPBN8N9589Y7FV"}
{"meta_move": "drag_end", "rt": "736.0", "trial_number": "1", "pre_actions": "1", "move": "5@6", "instance": "prb343", "distance_to_goal": "NA", "progress": "NA", "move_number": "53", "optimal_length": "14", "subject": "A1F4N58CAX8IMK:3TS1AR6UQRM7SOIBWPBN8N9589Y7FV"}
{"meta_move": "drag_end", "rt": "1256.0", "trial_number": "1", "pre_actions": "1", "move": "1@27", "instance": "prb343", "distance_to_goal": "NA", "progress": "NA", "move_number": "54", "optimal_length": "14", "subject": "A1F4N58CAX8IMK:3TS1AR6UQRM7SOIBWPBN8N9589Y7FV"}
{"meta_move": "drag_end", "rt": "1191.0", "trial_number": "1", "pre_actions": "1", "move": "1@28", "instance": "prb343", "distance_to_goal": "NA", "progress": "NA", "move_number": "55", "optimal_length": "14", "subject": "A1F4N58CAX8IMK:3TS1AR6UQRM7SOIBWPBN8N9589Y7FV"}
{"meta_move": "drag_end", "rt": "632.0", "trial_number": "1", "pre_actions": "1", "move": "2@21", "instance": "prb343", "distance_to_goal": "NA", "progress": "NA", "move_number": "56", "optimal_length": "14", "subject": "A1F4N58CAX8IMK:3TS1AR6UQRM7SOIBWPBN8N9589Y7FV"}
{"meta_move": "drag_end", "rt": "728.0", "trial_number": "1", "pre_actions": "1", "move": "0@7", "instance": "prb343", "distance_to_goal": "NA", "progress": "NA", "move_number": "57", "optimal_length": "14", "subject": "A1F4N58CAX8IMK:3TS1AR6UQRM7SOIBWPBN8N9589Y7FV"}
{"meta_move": "drag_end", "rt": "1728.0", "trial_number": "1", "pre_actions": "1", "move": "7@2", "instance": "prb343", "distance_to_goal": "NA", "progress": "NA", "move_number": "58", "optimal_length": "14", "subject": "A1F4N58CAX8IMK:3TS1AR6UQRM7SOIBWPBN8N9589Y7FV"}
{"meta_move": "drag_end", "rt": "816.0", "trial_number": "1", "pre_actions": "1", "move": "6@10", "instance": "prb343", "distance_to_goal": "NA", "progress": "NA", "move_number": "59", "optimal_length": "14", "subject": "A1F4N58CAX8IMK:3TS1AR6UQRM7SOIBWPBN8N9589Y7FV"}
{"meta_move": "drag_end", "rt": "984.0", "trial_number": "1", "pre_actions": "1", "move": "2@9", "instance": "prb343", "distance_to_goal": "NA", "progress": "NA", "move_number": "60", "optimal_length": "14", "subject": "A1F4N58CAX8IMK:3TS1AR6UQRM7SOIBWPBN8N9589Y7FV"}
{"meta_move": "drag_end", "rt": "1200.0", "trial_number": "1", "pre_actions": "1", "move": "3@20", "instance": "prb343", "distance_to_goal": "NA", "progress": "NA", "move_number": "61", "optimal_length": "14", "subject": "A1F4N58CAX8IMK:3TS1AR6UQRM7SOIBWPBN8N9589Y7FV"}
{"meta_move": "drag_end", "rt": "488.0", "trial_number": "1", "pre_actions": "1", "move": "5@24", "instance": "prb343", "distance_to_goal": "NA", "progress": "NA", "move_number": "61", "optimal_length": "14", "subject": "A1F4N58CAX8IMK:3TS1AR6UQRM7SOIBWPBN8N9589Y7FV"}
{"meta_move": "drag_end", "rt": "888.0", "trial_number": "1", "pre_actions": "1", "move": "0@6", "instance": "prb343", "distance_to_goal": "NA", "progress": "NA", "move_number": "62", "optimal_length": "14", "subject": "A1F4N58CAX8IMK:3TS1AR6UQRM7SOIBWPBN8N9589Y7FV"}
{"meta_move": "drag_end", "rt": "1112.0", "trial_number": "1", "pre_actions": "1", "move": "r@12", "instance": "prb343", "distance_to_goal": "NA", "progress": "NA", "move_number": "63", "optimal_length": "14", "subject": "A1F4N58CAX8IMK:3TS1AR6UQRM7SOIBWPBN8N9589Y7FV"}
{"meta_move": "drag_end", "rt": "1160.0", "trial_number": "1", "pre_actions": "1", "move": "3@8", "instance": "prb343", "distance_to_goal": "NA", "progress": "NA", "move_number": "64", "optimal_length": "14", "subject": "A1F4N58CAX8IMK:3TS1AR6UQRM7SOIBWPBN8N9589Y7FV"}
{"meta_move": "drag_end", "rt": "808.0", "trial_number": "1", "pre_actions": "1", "move": "1@25", "instance": "prb343", "distance_to_goal": "NA", "progress": "NA", "move_number": "65", "optimal_length": "14", "subject": "A1F4N58CAX8IMK:3TS1AR6UQRM7SOIBWPBN8N9589Y7FV"}
{"meta_move": "drag_end", "rt": "768.0", "trial_number": "1", "pre_actions": "1", "move": "6@28", "instance": "prb343", "distance_to_goal": "NA", "progress": "NA", "move_number": "66", "optimal_length": "14", "subject": "A1F4N58CAX8IMK:3TS1AR6UQRM7SOIBWPBN8N9589Y7FV"}
{"meta_move": "drag_end", "rt": "584.0", "trial_number": "1", "pre_actions": "1", "move": "2@21", "instance": "prb343", "distance_to_goal": "NA", "progress": "NA", "move_number": "67", "optimal_length": "14", "subject": "A1F4N58CAX8IMK:3TS1AR6UQRM7SOIBWPBN8N9589Y7FV"}
{"meta_move": "drag_end", "rt": "1176.0", "trial_number": "1", "pre_actions": "1", "move": "5@18", "instance": "prb343", "distance_to_goal": "NA", "progress": "NA", "move_number": "68", "optimal_length": "14", "subject": "A1F4N58CAX8IMK:3TS1AR6UQRM7SOIBWPBN8N9589Y7FV"}
{"meta_move": "drag_end", "rt": "664.0", "trial_number": "1", "pre_actions": "1", "move": "1@25", "instance": "prb343", "distance_to_goal": "NA", "progress": "NA", "move_number": "69", "optimal_length": "14", "subject": "A1F4N58CAX8IMK:3TS1AR6UQRM7SOIBWPBN8N9589Y7FV"}
{"meta_move": "drag_end", "rt": "592.0", "trial_number": "1", "pre_actions": "1", "move": "7@3", "instance": "prb343", "distance_to_goal": "NA", "progress": "NA", "move_number": "69", "optimal_length": "14", "subject": "A1F4N58CAX8IMK:3TS1AR6UQRM7SOIBWPBN8N9589Y7FV"}
{"meta_move": "drag_end", "rt": "760.0", "trial_number": "1", "pre_actions": "1", "move": "3@2", "instance": "prb343", "distance_to_goal": "NA", "progress": "NA", "move_number": "70", "optimal_length": "14", "subject": "A1F4N58CAX8IMK:3TS1AR6UQRM7SOIBWPBN8N9589Y7FV"}
{"meta_move": "drag_end", "rt": "736.0", "trial_number": "1", "pre_actions": "1", "move": "r@12", "instance": "prb343", "distance_to_goal": "NA", "progress": "NA", "move_number": "71", "optimal_length": "14", "subject": "A1F4N58CAX8IMK:3TS1AR6UQRM7SOIBWPBN8N9589Y7FV"}
{"meta_move": "drag_end", "rt": "1208.0", "trial_number": "1", "pre_actions": "1", "move": "2@9", "instance": "prb343", "distance_to_goal": "NA", "progress": "NA", "move_number": "71", "optimal_length": "14", "subject": "A1F4N58CAX8IMK:3TS1AR6UQRM7SOIBWPBN8N9589Y7FV"}
{"meta_move": "drag_end", "rt": "1160.0", "trial_number": "1", "pre_actions": "1", "move": "6@10", "instance": "prb343", "distance_to_goal": "NA", "progress": "NA", "move_number": "72", "optimal_length": "14", "subject": "A1F4N58CAX8IMK:3TS1AR6UQRM7SOIBWPBN8N9589Y7FV"}
{"meta_move": "drag_end", "rt": "880.0", "trial_number": "1", "pre_actions": "1", "move": "1@28", "instance": "prb343", "distance_to_goal": "NA", "progress": "NA", "move_number": "73", "optimal_length": "14", "subject": "A1F4N58CAX8IMK:3TS1AR6UQRM7SOIBWPBN8N9589Y7FV"}
{"meta_move": "drag_end", "rt": "904.0", "trial_number": "1", "pre_actions": "1", "move": "3@20", "instance": "prb343", "distance_to_goal": "NA", "progress": "NA", "move_number": "74", "optimal_length": "14", "subject": "A1F4N58CAX8IMK:3TS1AR6UQRM7SOIBWPBN8N9589Y7FV"}
{"meta_move": "drag_end", "rt": "1056.0", "trial_number": "1", "pre_actions": "1", "move": "r@13", "instance": "prb343", "distance_to_goal": "NA", "progress": "NA", "move_number": "75", "optimal_length": "14", "subject": "A1F4N58CAX8IMK:3TS1AR6UQRM7SOIBWPBN8N9589Y7FV"}
{"meta_move": "drag_end", "rt": "616.0", "trial_number": "1", "pre_actions": "1", "move": "2@21", "instance": "prb343", "distance_to_goal": "NA", "progress": "NA", "move_number": "76", "optimal_length": "14", "subject": "A1F4N58CAX8IMK:3TS1AR6UQRM7SOIBWPBN8N9589Y7FV"}
{"meta_move": "drag_end", "rt": "2664.0", "trial_number": "1", "pre_actions": "1", "move": "6@16", "instance": "prb343", "distance_to_goal": "NA", "progress": "NA", "move_number": "77", "optimal_length": "14", "subject": "A1F4N58CAX8IMK:3TS1AR6UQRM7SOIBWPBN8N9589Y7FV"}
{"meta_move": "drag_end", "rt": "776.0", "trial_number": "1", "pre_actions": "1", "move": "r@14", "instance": "prb343", "distance_to_goal": "NA", "progress": "NA", "move_number": "78", "optimal_length": "14", "subject": "A1F4N58CAX8IMK:3TS1AR6UQRM7SOIBWPBN8N9589Y7FV"}
{"meta_move": "drag_end", "rt": "2200.0", "trial_number": "1", "pre_actions": "1", "move": "7@2", "instance": "prb343", "distance_to_goal": "NA", "progress": "NA", "move_number": "79", "optimal_length": "14", "subject": "A1F4N58CAX8IMK:3TS1AR6UQRM7SOIBWPBN8N9589Y7FV"}
{"meta_move": "drag_end", "rt": "1584.0", "trial_number": "1", "pre_actions": "1", "move": "0@10", "instance": "prb343", "distance_to_goal": "NA", "progress": "NA", "move_number": "80", "optimal_length": "14", "subject": "A1F4N58CAX8IMK:3TS1AR6UQRM7SOIBWPBN8N9589Y7FV"}
{"meta_move": "drag_end", "rt": "808.0", "trial_number": "1", "pre_actions": "1", "move": "4@0", "instance": "prb343", "distance_to_goal": "NA", "progress": "NA", "move_number": "81", "optimal_length": "14", "subject": "A1F4N58CAX8IMK:3TS1AR6UQRM7SOIBWPBN8N9589Y7FV"}
{"meta_move": "drag_end", "rt": "1312.0", "trial_number": "1", "pre_actions": "1", "move": "0@6", "instance": "prb343", "distance_to_goal": "NA", "progress": "NA", "move_number": "81", "optimal_length": "14", "subject": "A1F4N58CAX8IMK:3TS1AR6UQRM7SOIBWPBN8N9589Y7FV"}
{"meta_move": "drag_end", "rt": "976.0", "trial_number": "1", "pre_actions": "1", "move": "6@10", "instance": "prb343", "distance_to_goal": "NA", "progress": "NA", "move_number": "82", "optimal_length": "14", "subject": "A1F4N58CAX8IMK:3TS1AR6UQRM7SOIBWPBN8N9589Y7FV"}
{"meta_move": "drag_end", "rt": "632.0", "trial_number": "1", "pre_actions": "1", "move": "3@20", "instance": "prb343", "distance_to_goal": "NA", "progress": "NA", "move_number": "83", "optimal_length": "14", "subject": "A1F4N58CAX8IMK:3TS1AR6UQRM7SOIBWPBN8N9589Y7FV"}
{"meta_move": "drag_end", "rt": "792.0", "trial_number": "1", "pre_actions": "1", "move": "1@28", "instance": "prb343", "distance_to_goal": "NA", "progress": "NA", "move_number": "83", "optimal_length": "14", "subject": "A1F4N58CAX8IMK:3TS1AR6UQRM7SOIBWPBN8N9589Y7FV"}
{"meta_move": "drag_end", "rt": "2543.0", "trial_number": "1", "pre_actions": "1", "move": "3@8", "instance": "prb343", "distance_to_goal": "NA", "progress": "NA", "move_number": "0", "optimal_length": "14", "subject": "A1LR0VQIHQUJAM:3YW4XOSQKRTI0K0Z2YPDTDJVFABU1I"}
{"meta_move": "drag_end", "rt": "1198.0", "trial_number": "1", "pre_actions": "1", "move": "7@3", "instance": "prb343", "distance_to_goal": "NA", "progress": "NA", "move_number": "1", "optimal_length": "14", "subject": "A1LR0VQIHQUJAM:3YW4XOSQKRTI0K0Z2YPDTDJVFABU1I"}
{"meta_move": "drag_end", "rt": "463.0", "trial_number": "1", "pre_actions": "1", "move": "3@2", "instance": "prb343", "distance_to_goal": "NA", "progress": "NA", "move_number": "2", "optimal_length": "14", "subject": "A1LR0VQIHQUJAM:3YW4XOSQKRTI0K0Z2YPDTDJVFABU1I"}
{"meta_move": "drag_end", "rt": "1497.0", "trial_number": "1", "pre_actions": "1", "move": "2@9", "instance": "prb343", "distance_to_goal": "NA", "progress": "NA", "move_number": "3", "optimal_length": "14", "subject": "A1LR0VQIHQUJAM:3YW4XOSQKRTI0K0Z2YPDTDJVFABU1I"}
{"meta_move": "drag_end", "rt": "1165.0", "trial_number": "1", "pre_actions": "1", "move": "1@25", "instance": "prb343", "distance_to_goal": "NA", "progress": "NA", "move_number": "4", "optimal_length": "14", "subject": "A1LR0VQIHQUJAM:3YW4XOSQKRTI0K0Z2YPDTDJVFABU1I"}
{"meta_move": "drag_end", "rt": "593.0", "trial_number": "1", "pre_actions": "1", "move": "2@21", "instance": "prb343", "distance_to_goal": "NA", "progress": "NA", "move_number": "5", "optimal_length": "14", "subject": "A1LR0VQIHQUJAM:3YW4XOSQKRTI0K0Z2YPDTDJVFABU1I"}
{"meta_move": "drag_end", "rt": "1010.0", "trial_number": "1", "pre_actions": "1", "move": "6@28", "instance": "prb343", "distance_to_goal": "NA", "progress": "NA", "move_number": "6", "optimal_length": "14", "subject": "A1LR0VQIHQUJAM:3YW4XOSQKRTI0K0Z2YPDTDJVFABU1I"}
{"meta_move": "drag_end", "rt": "1169.0", "trial_number": "1", "pre_actions": "1", "move": "3@8", "instance": "prb343", "distance_to_goal": "NA", "progress": "NA", "move_number": "7", "optimal_length": "14", "subject": "A1LR0VQIHQUJAM:3YW4XOSQKRTI0K0Z2YPDTDJVFABU1I"}
{"meta_move": "drag_end", "rt": "1970.0", "trial_number": "1", "pre_actions": "1", "move": "3@2", "instance": "prb343", "distance_to_goal": "NA", "progress": "NA", "move_number": "8", "optimal_length": "14", "subject": "A1LR0VQIHQUJAM:3YW4XOSQKRTI0K0Z2YPDTDJVFABU1I"}
{"meta_move": "drag_end", "rt": "5204.0", "trial_number": "1", "pre_actions": "1", "move": "2@9", "instance": "prb343", "distance_to_goal": "NA", "progress": "NA", "move_number": "9", "optimal_length": "14", "subject": "A1LR0VQIHQUJAM:3YW4XOSQKRTI0K0Z2YPDTDJVFABU1I"}
{"meta_move": "drag_end", "rt": "590.0", "trial_number": "1", "pre_actions": "1", "move": "6@16", "instance": "prb343", "distance_to_goal": "NA", "progress": "NA", "move_number": "10", "optimal_length": "14", "subject": "A1LR0VQIHQUJAM:3YW4XOSQKRTI0K0Z2YPDTDJVFABU1I"}
{"meta_move": "drag_end", "rt": "779.0", "trial_number": "1", "pre_actions": "1", "move": "1@27", "instance": "prb343", "distance_to_goal": "NA", "progress": "NA", "move_number": "11", "optimal_length": "14", "subject": "A1LR0VQIHQUJAM:3YW4XOSQKRTI0K0Z2YPDTDJVFABU1I"}
{"meta_move": "drag_end", "rt": "538.0", "trial_number": "1", "pre_actions": "1", "move": "3@20", "instance": "prb343", "distance_to_goal": "NA", "progress": "NA", "move_number": "12", "optimal_length": "14", "subject": "A1LR0VQIHQUJAM:3YW4XOSQKRTI0K0Z2YPDTDJVFABU1I"}
{"meta_move": "drag_end", "rt": "2200.0", "trial_number": "1", "pre_actions": "1", "move": "1@28", "instance": "prb343", "distance_to_goal": "NA", "progress": "NA", "move_number": "13", "optimal_length": "14", "subject": "A1LR0VQIHQUJAM:3YW4XOSQKRTI0K0Z2YPDTDJVFABU1I"}
{"meta_move": "drag_end", "rt": "457.0", "trial_number": "1", "pre_actions": "1", "move": "2@21", "instance": "prb343", "distance_to_goal": "NA", "progress": "NA", "move_number": "14", "optimal_length": "14", "subject": "A1LR0VQIHQUJAM:3YW4XOSQKRTI0K0Z2YPDTDJVFABU1I"}
{"meta_move": "drag_end", "rt": "2462.0", "trial_number": "1", "pre_actions": "1", "move": "0@6", "instance": "prb343", "distance_to_goal": "NA", "progress": "NA", "move_number": "15", "optimal_length": "14", "subject": "A1LR0VQIHQUJAM:3YW4XOSQKRTI0K0Z2YPDTDJVFABU1I"}
{"meta_move": "drag_end", "rt": "1849.0", "trial_number": "1", "pre_actions": "1", "move": "6@10", "instance": "prb343", "distance_to_goal": "NA", "progress": "NA", "move_number": "16", "optimal_length": "14", "subject": "A1LR0VQIHQUJAM:3YW4XOSQKRTI0K0Z2YPDTDJVFABU1I"}
{"meta_move": "drag_end", "rt": "553.0", "trial_number": "1", "pre_actions": "1", "move": "7@2", "instance": "prb343", "distance_to_goal": "NA", "progress": "NA", "move_number": "17", "optimal_length": "14", "subject": "A1LR0VQIHQUJAM:3YW4XOSQKRTI0K0Z2YPDTDJVFABU1I"}
{"meta_move": "drag_end", "rt": "6815.0", "trial_number": "1", "pre_actions": "1", "move": "r@14", "instance": "prb343", "distance_to_goal": "NA", "progress": "NA", "move_number": "18", "optimal_length": "14", "subject": "A1LR0VQIHQUJAM:3YW4XOSQKRTI0K0Z2YPDTDJVFABU1I"}
{"meta_move": "drag_end", "rt": "784.0", "trial_number": "1", "pre_actions": "1", "move": "5@12", "instance": "prb343", "distance_to_goal": "NA", "progress": "NA", "move_number": "19", "optimal_length": "14", "subject": "A1LR0VQIHQUJAM:3YW4XOSQKRTI0K0Z2YPDTDJVFABU1I"}
{"meta_move": "drag_end", "rt": "1075.0", "trial_number": "1", "pre_actions": "1", "move": "r@13", "instance": "prb343", "distance_to_goal": "NA", "progress": "NA", "move_number": "20", "optimal_length": "14", "subject": "A1LR0VQIHQUJAM:3YW4XOSQKRTI0K0Z2YPDTDJVFABU1I"}
{"meta_move": "drag_end", "rt": "589.0", "trial_number": "1", "pre_actions": "1", "move": "2@9", "instance": "prb343", "distance_to_goal": "NA", "progress": "NA", "move_number": "21", "optimal_length": "14", "subject": "A1LR0VQIHQUJAM:3YW4XOSQKRTI0K0Z2YPDTDJVFABU1I"}
{"meta_move": "drag_end", "rt": "740.0", "trial_number": "1", "pre_actions": "1", "move": "1@27", "instance": "prb343", "distance_to_goal": "NA", "progress": "NA", "move_number": "22", "optimal_length": "14", "subject": "A1LR0VQIHQUJAM:3YW4XOSQKRTI0K0Z2YPDTDJVFABU1I"}
{"meta_move": "drag_end", "rt": "2244.0", "trial_number": "1", "pre_actions": "1", "move": "5@18", "instance": "prb343", "distance_to_goal": "NA", "progress": "NA", "move_number": "23", "optimal_length": "14", "subject": "A1LR0VQIHQUJAM:3YW4XOSQKRTI0K0Z2YPDTDJVFABU1I"}
{"meta_move": "drag_end", "rt": "530.0", "trial_number": "1", "pre_actions": "1", "move": "r@12", "instance": "prb343", "distance_to_goal": "NA", "progress": "NA", "move_number": "24", "optimal_length": "14", "subject": "A1LR0VQIHQUJAM:3YW4XOSQKRTI0K0Z2YPDTDJVFABU1I"}
{"meta_move": "drag_end", "rt": "500.0", "trial_number": "1", "pre_actions": "1", "move": "3@8", "instance": "prb343", "distance_to_goal": "NA", "progress": "NA", "move_number": "25", "optimal_length": "14", "subject": "A1LR0VQIHQUJAM:3YW4XOSQKRTI0K0Z2YPDTDJVFABU1I"}
{"meta_move": "drag_end", "rt": "771.0", "trial_number": "1", "pre_actions": "1", "move": "1@25", "instance": "prb343", "distance_to_goal": "NA", "progress": "NA", "move_number": "26", "optimal_length": "14", "subject": "A1LR0VQIHQUJAM:3YW4XOSQKRTI0K0Z2YPDTDJVFABU1I"}
{"meta_move": "drag_end", "rt": "1744.0", "trial_number": "1", "pre_actions": "1", "move": "2@21", "instance": "prb343", "distance_to_goal": "NA", "progress": "NA", "move_number": "27", "optimal_length": "14", "subject": "A1LR0VQIHQUJAM:3YW4XOSQKRTI0K0Z2YPDTDJVFABU1I"}
{"meta_move": "drag_end", "rt": "820.0", "trial_number": "1", "pre_actions": "1", "move": "6@28", "instance": "prb343", "distance_to_goal": "NA", "progress": "NA", "move_number": "28", "optimal_length": "14", "subject": "A1LR0VQIHQUJAM:3YW4XOSQKRTI0K0Z2YPDTDJVFABU1I"}
{"meta_move": "drag_end", "rt": "721.0", "trial_number": "1", "pre_actions": "1", "move": "7@3", "instance": "prb343", "distance_to_goal": "NA", "progress": "NA", "move_number": "29", "optimal_length": "14", "subject": "A1LR0VQIHQUJAM:3YW4XOSQKRTI0K0Z2YPDTDJVFABU1I"}
{"meta_move": "drag_end", "rt": "612.0", "trial_number": "1", "pre_actions": "1", "move": "3@2", "instance": "prb343", "distance_to_goal": "NA", "progress": "NA", "move_number": "30", "optimal_length": "14", "subject": "A1LR0VQIHQUJAM:3YW4XOSQKRTI0K0Z2YPDTDJVFABU1I"}
{"meta_move": "drag_end", "rt": "3642.0", "trial_number": "1", "pre_actions": "1", "move": "2@9", "instance": "prb343", "distance_to_goal": "NA", "progress": "NA", "move_number": "31", "optimal_length": "14", "subject": "A1LR0VQIHQUJAM:3YW4XOSQKRTI0K0Z2YPDTDJVFABU1I"}
{"meta_move": "drag_end", "rt": "5090.0", "trial_number": "1", "pre_actions": "1", "move": "5@24", "instance": "prb343", "distance_to_goal": "NA", "progress": "NA", "move_number": "32", "optimal_length": "14", "subject": "A1LR0VQIHQUJAM:3YW4XOSQKRTI0K0Z2YPDTDJVFABU1I"}
{"meta_move": "drag_end", "rt": "1908.0", "trial_number": "1", "pre_actions": "1", "move": "2@21", "instance": "prb343", "distance_to_goal": "NA", "progress": "NA", "move_number": "33", "optimal_length": "14", "subject": "A1LR0VQIHQUJAM:3YW4XOSQKRTI0K0Z2YPDTDJVFABU1I"}
{"meta_move": "drag_end", "rt": "810.0", "trial_number": "1", "pre_actions": "1", "move": "3@8", "instance": "prb343", "distance_to_goal": "NA", "progress": "NA", "move_number": "34", "optimal_length": "14", "subject": "A1LR0VQIHQUJAM:3YW4XOSQKRTI0K0Z2YPDTDJVFABU1I"}
{"meta_move": "drag_end", "rt": "960.0", "trial_number": "1", "pre_actions": "1", "move": "4@1", "instance": "prb343", "distance_to_goal": "NA", "progress": "NA", "move_number": "35", "optimal_length": "14", "subject": "A1LR0VQIHQUJAM:3YW4XOSQKRTI0K0Z2YPDTDJVFABU1I"}
{"meta_move": "drag_end", "rt": "3180.0", "trial_number": "1", "pre_actions": "1", "move": "2@9", "instance": "prb343", "distance_to_goal": "NA", "progress": "NA", "move_number": "36", "optimal_length": "14", "subject": "A1LR0VQIHQUJAM:3YW4XOSQKRTI0K0Z2YPDTDJVFABU1I"}
{"meta_move": "drag_end", "rt": "444.0", "trial_number": "1", "pre_actions": "1", "move": "6@10", "instance": "prb343", "distance_to_goal": "NA", "progress": "NA", "move_number": "37", "optimal_length": "14", "subject": "A1LR0VQIHQUJAM:3YW4XOSQKRTI0K0Z2YPDTDJVFABU1I"}
{"meta_move": "drag_end", "rt": "646.0", "trial_number": "1", "pre_actions": "1", "move": "1@28", "instance": "prb343", "distance_to_goal": "NA", "progress": "NA", "move_number": "38", "optimal_length": "14", "subject": "A1LR0VQIHQUJAM:3YW4XOSQKRTI0K0Z2YPDTDJVFABU1I"}
{"meta_move": "drag_end", "rt": "791.0", "trial_number": "1", "pre_actions": "1", "move": "3@20", "instance": "prb343", "distance_to_goal": "NA", "progress": "NA", "move_number": "39", "optimal_length": "14", "subject": "A1LR0VQIHQUJAM:3YW4XOSQKRTI0K0Z2YPDTDJVFABU1I"}
{"meta_move": "drag_end", "rt": "508.0", "trial_number": "1", "pre_actions": "1", "move": "2@21", "instance": "prb343", "distance_to_goal": "NA", "progress": "NA", "move_number": "40", "optimal_length": "14", "subject": "A1LR0VQIHQUJAM:3YW4XOSQKRTI0K0Z2YPDTDJVFABU1I"}
{"meta_move": "drag_end", "rt": "2673.0", "trial_number": "1", "pre_actions": "1", "move": "r@14", "instance": "prb343", "distance_to_goal": "NA", "progress": "NA", "move_number": "41", "optimal_length": "14", "subject": "A1LR0VQIHQUJAM:3YW4XOSQKRTI0K0Z2YPDTDJVFABU1I"}
{"meta_move": "drag_end", "rt": "1965.0", "trial_number": "1", "pre_actions": "1", "move": "4@0", "instance": "prb343", "distance_to_goal": "NA", "progress": "NA", "move_number": "42", "optimal_length": "14", "subject": "A1LR0VQIHQUJAM:3YW4XOSQKRTI0K0Z2YPDTDJVFABU1I"}
{"meta_move": "drag_end", "rt": "438.0", "trial_number": "1", "pre_actions": "1", "move": "7@2", "instance": "prb343", "distance_to_goal": "NA", "progress": "NA", "move_number": "43", "optimal_length": "14", "subject": "A1LR0VQIHQUJAM:3YW4XOSQKRTI0K0Z2YPDTDJVFABU1I"}
{"meta_move": "drag_end", "rt": "9283.0", "trial_number": "1", "pre_actions": "1", "move": "r@13", "instance": "prb343", "distance_to_goal": "NA", "progress": "NA", "move_number": "44", "optimal_length": "14", "subject": "A1LR0VQIHQUJAM:3YW4XOSQKRTI0K0Z2YPDTDJVFABU1I"}
{"meta_move": "drag_end", "rt": "517.0", "trial_number": "1", "pre_actions": "1", "move": "2@9", "instance": "prb343", "distance_to_goal": "NA", "progress": "NA", "move_number": "45", "optimal_length": "14", "subject": "A1LR0VQIHQUJAM:3YW4XOSQKRTI0K0Z2YPDTDJVFABU1I"}
{"meta_move": "drag_end", "rt": "1115.0", "trial_number": "1", "pre_actions": "1", "move": "1@27", "instance": "prb343", "distance_to_goal": "NA", "progress": "NA", "move_number": "46", "optimal_length": "14", "subject": "A1LR0VQIHQUJAM:3YW4XOSQKRTI0K0Z2YPDTDJVFABU1I"}
{"meta_move": "drag_end", "rt": "1023.0", "trial_number": "1", "pre_actions": "1", "move": "6@16", "instance": "prb343", "distance_to_goal": "NA", "progress": "NA", "move_number": "47", "optimal_length": "14", "subject": "A1LR0VQIHQUJAM:3YW4XOSQKRTI0K0Z2YPDTDJVFABU1I"}
{"meta_move": "drag_end", "rt": "2565.0", "trial_number": "1", "pre_actions": "1", "move": "5@12", "instance": "prb343", "distance_to_goal": "NA", "progress": "NA", "move_number": "48", "optimal_length": "14", "subject": "A1LR0VQIHQUJAM:3YW4XOSQKRTI0K0Z2YPDTDJVFABU1I"}
{"meta_move": "drag_end", "rt": "1381.0", "trial_number": "1", "pre_actions": "1", "move": "0@7", "instance": "prb343", "distance_to_goal": "NA", "progress": "NA", "move_number": "49", "optimal_length": "14", "subject": "A1LR0VQIHQUJAM:3YW4XOSQKRTI0K0Z2YPDTDJVFABU1I"}
{"meta_move": "drag_end", "rt": "1425.0", "trial_number": "1", "pre_actions": "1", "move": "5@6", "instance": "prb343", "distance_to_goal": "NA", "progress": "NA", "move_number": "50", "optimal_length": "14", "subject": "A1LR0VQIHQUJAM:3YW4XOSQKRTI0K0Z2YPDTDJVFABU1I"}
{"meta_move": "drag_end", "rt": "2161.0", "trial_number": "1", "pre_actions": "1", "move": "1@28", "instance": "prb343", "distance_to_goal": "NA", "progress": "NA", "move_number": "51", "optimal_length": "14", "subject": "A1LR0VQIHQUJAM:3YW4XOSQKRTI0K0Z2YPDTDJVFABU1I"}
{"meta_move": "drag_end", "rt": "1523.0", "trial_number": "1", "pre_actions": "1", "move": "5@24", "instance": "prb343", "distance_to_goal": "NA", "progress": "NA", "move_number": "52", "optimal_length": "14", "subject": "A1LR0VQIHQUJAM:3YW4XOSQKRTI0K0Z2YPDTDJVFABU1I"}
{"meta_move": "drag_end", "rt": "2293.0", "trial_number": "1", "pre_actions": "1", "move": "0@6", "instance": "prb343", "distance_to_goal": "NA", "progress": "NA", "move_number": "53", "optimal_length": "14", "subject": "A1LR0VQIHQUJAM:3YW4XOSQKRTI0K0Z2YPDTDJVFABU1I"}
{"meta_move": "drag_end", "rt": "1685.0", "trial_number": "1", "pre_actions": "1", "move": "r@12", "instance": "prb343", "distance_to_goal": "NA", "progress": "NA", "move_number": "54", "optimal_length": "14", "subject": "A1LR0VQIHQUJAM:3YW4XOSQKRTI0K0Z2YPDTDJVFABU1I"}
{"meta_move": "drag_end", "rt": "440.0", "trial_number": "1", "pre_actions": "1", "move": "3@8", "instance": "prb343", "distance_to_goal": "NA", "progress": "NA", "move_number": "55", "optimal_length": "14", "subject": "A1LR0VQIHQUJAM:3YW4XOSQKRTI0K0Z2YPDTDJVFABU1I"}
{"meta_move": "drag_end", "rt": "970.0", "trial_number": "1", "pre_actions": "1", "move": "2@21", "instance": "prb343", "distance_to_goal": "NA", "progress": "NA", "move_number": "56", "optimal_length": "14", "subject": "A1LR0VQIHQUJAM:3YW4XOSQKRTI0K0Z2YPDTDJVFABU1I"}
{"meta_move": "drag_end", "rt": "1638.0", "trial_number": "1", "pre_actions": "1", "move": "2@9", "instance": "prb343", "distance_to_goal": "NA", "progress": "NA", "move_number": "57", "optimal_length": "14", "subject": "A1LR0VQIHQUJAM:3YW4XOSQKRTI0K0Z2YPDTDJVFABU1I"}
{"meta_move": "drag_end", "rt": "789.0", "trial_number": "1", "pre_actions": "1", "move": "1@25", "instance": "prb343", "distance_to_goal": "NA", "progress": "NA", "move_number": "58", "optimal_length": "14", "subject": "A1LR0VQIHQUJAM:3YW4XOSQKRTI0K0Z2YPDTDJVFABU1I"}
{"meta_move": "drag_end", "rt": "727.0", "trial_number": "1", "pre_actions": "1", "move": "2@21", "instance": "prb343", "distance_to_goal": "NA", "progress": "NA", "move_number": "59", "optimal_length": "14", "subject": "A1LR0VQIHQUJAM:3YW4XOSQKRTI0K0Z2YPDTDJVFABU1I"}
{"meta_move": "drag_end", "rt": "553.0", "trial_number": "1", "pre_actions": "1", "move": "6@28", "instance": "prb343", "distance_to_goal": "NA", "progress": "NA", "move_number": "60", "optimal_length": "14", "subject": "A1LR0VQIHQUJAM:3YW4XOSQKRTI0K0Z2YPDTDJVFABU1I"}
{"meta_move": "drag_end", "rt": "4912.0", "trial_number": "1", "pre_actions": "1", "move": "5@24", "instance": "prb343", "distance_to_goal": "NA", "progress": "NA", "move_number": "61", "optimal_length": "14", "subject": "A1LR0VQIHQUJAM:3YW4XOSQKRTI0K0Z2YPDTDJVFABU1I"}
{"meta_move": "drag_end", "rt": "49307.0", "trial_number": "1", "pre_actions": "1", "move": "3@20", "instance": "prb343", "distance_to_goal": "NA", "progress": "NA", "move_number": "0", "optimal_length": "14", "subject": "A214HWAW1PYWO8:34BBWHLWHBJ6SUL255PK30LEGY5IWG"}
{"meta_move": "drag_end", "rt": "1418.0", "trial_number": "1", "pre_actions": "1", "move": "0@6", "instance": "prb343", "distance_to_goal": "NA", "progress": "NA", "move_number": "1", "optimal_length": "14", "subject": "A214HWAW1PYWO8:34BBWHLWHBJ6SUL255PK30LEGY5IWG"}
{"meta_move": "drag_end", "rt": "2982.0", "trial_number": "1", "pre_actions": "1", "move": "3@8", "instance": "prb343", "distance_to_goal": "NA", "progress": "NA", "move_number": "2", "optimal_length": "14", "subject": "A214HWAW1PYWO8:34BBWHLWHBJ6SUL255PK30LEGY5IWG"}
{"meta_move": "drag_end", "rt": "342.0", "trial_number": "1", "pre_actions": "1", "move": "3@20", "instance": "prb343", "distance_to_goal": "NA", "progress": "NA", "move_number": "3", "optimal_length": "14", "subject": "A214HWAW1PYWO8:34BBWHLWHBJ6SUL255PK30LEGY5IWG"}
{"meta_move": "drag_end", "rt": "634.0", "trial_number": "1", "pre_actions": "1", "move": "7@3", "instance": "prb343", "distance_to_goal": "NA", "progress": "NA", "move_number": "4", "optimal_length": "14", "subject": "A214HWAW1PYWO8:34BBWHLWHBJ6SUL255PK30LEGY5IWG"}
{"meta_move": "drag_end", "rt": "991.0", "trial_number": "1", "pre_actions": "1", "move": "3@2", "instance": "prb343", "distance_to_goal": "NA", "progress": "NA", "move_number": "5", "optimal_length": "14", "subject": "A214HWAW1PYWO8:34BBWHLWHBJ6SUL255PK30LEGY5IWG"}
{"meta_move": "drag_end", "rt": "2838.0", "trial_number": "1", "pre_actions": "1", "move": "2@9", "instance": "prb343", "distance_to_goal": "NA", "progress": "NA", "move_number": "6", "optimal_length": "14", "subject": "A214HWAW1PYWO8:34BBWHLWHBJ6SUL255PK30LEGY5IWG"}
{"meta_move": "drag_end", "rt": "1581.0", "trial_number": "1", "pre_actions": "1", "move": "1@25", "instance": "prb343", "distance_to_goal": "NA", "progress": "NA", "move_number": "7", "optimal_length": "14", "subject": "A214HWAW1PYWO8:34BBWHLWHBJ6SUL255PK30LEGY5IWG"}
{"meta_move": "drag_end", "rt": "5683.0", "trial_number": "1", "pre_actions": "1", "move": "6@28", "instance": "prb343", "distance_to_goal": "NA", "progress": "NA", "move_number": "8", "optimal_length": "14", "subject": "A214HWAW1PYWO8:34BBWHLWHBJ6SUL255PK30LEGY5IWG"}
{"meta_move": "drag_end", "rt": "2655.0", "trial_number": "1", "pre_actions": "1", "move": "6@10", "instance": "prb343", "distance_to_goal": "NA", "progress": "NA", "move_number": "9", "optimal_length": "14", "subject": "A214HWAW1PYWO8:34BBWHLWHBJ6SUL255PK30LEGY5IWG"}
{"meta_move": "drag_end", "rt": "2215.0", "trial_number": "1", "pre_actions": "1", "move": "1@28", "instance": "prb343", "distance_to_goal": "NA", "progress": "NA", "move_number": "10", "optimal_length": "14", "subject": "A214HWAW1PYWO8:34BBWHLWHBJ6SUL255PK30LEGY5IWG"}
{"meta_move": "drag_end", "rt": "1479.0", "trial_number": "1", "pre_actions": "1", "move": "3@20", "instance": "prb343", "distance_to_goal": "NA", "progress": "NA", "move_number": "11", "optimal_length": "14", "subject": "A214HWAW1PYWO8:34BBWHLWHBJ6SUL255PK30LEGY5IWG"}
{"meta_move": "drag_end", "rt": "582.0", "trial_number": "1", "pre_actions": "1", "move": "2@21", "instance": "prb343", "distance_to_goal": "NA", "progress": "NA", "move_number": "12", "optimal_length": "14", "subject": "A214HWAW1PYWO8:34BBWHLWHBJ6SUL255PK30LEGY5IWG"}
{"meta_move": "drag_end", "rt": "3824.0", "trial_number": "1", "pre_actions": "1", "move": "3@20", "instance": "prb343", "distance_to_goal": "NA", "progress": "NA", "move_number": "13", "optimal_length": "14", "subject": "A214HWAW1PYWO8:34BBWHLWHBJ6SUL255PK30LEGY5IWG"}
{"meta_move": "drag_end", "rt": "1406.0", "trial_number": "1", "pre_actions": "1", "move": "r@13", "instance": "prb343", "distance_to_goal": "NA", "progress": "NA", "move_number": "13", "optimal_length": "14", "subject": "A214HWAW1PYWO8:34BBWHLWHBJ6SUL255PK30LEGY5IWG"}
{"meta_move": "drag_end", "rt": "553.0", "trial_number": "1", "pre_actions": "1", "move": "0@7", "instance": "prb343", "distance_to_goal": "NA", "progress": "NA", "move_number": "14", "optimal_length": "14", "subject": "A214HWAW1PYWO8:34BBWHLWHBJ6SUL255PK30LEGY5IWG"}
{"meta_move": "drag_end", "rt": "400.0", "trial_number": "1", "pre_actions": "1", "move": "4@1", "instance": "prb343", "distance_to_goal": "NA", "progress": "NA", "move_number": "15", "optimal_length": "14", "subject": "A214HWAW1PYWO8:34BBWHLWHBJ6SUL255PK30LEGY5IWG"}
{"meta_move": "drag_end", "rt": "673.0", "trial_number": "1", "pre_actions": "1", "move": "5@0", "instance": "prb343", "distance_to_goal": "NA", "progress": "NA", "move_number": "16", "optimal_length": "14", "subject": "A214HWAW1PYWO8:34BBWHLWHBJ6SUL255PK30LEGY5IWG"}
{"meta_move": "drag_end", "rt": "626.0", "trial_number": "1", "pre_actions": "1", "move": "r@12", "instance": "prb343", "distance_to_goal": "NA", "progress": "NA", "move_number": "17", "optimal_length": "14", "subject": "A214HWAW1PYWO8:34BBWHLWHBJ6SUL255PK30LEGY5IWG"}
{"meta_move": "drag_end", "rt": "687.0", "trial_number": "1", "pre_actions": "1", "move": "2@9", "instance": "prb343", "distance_to_goal": "NA", "progress": "NA", "move_number": "18", "optimal_length": "14", "subject": "A214HWAW1PYWO8:34BBWHLWHBJ6SUL255PK30LEGY5IWG"}
{"meta_move": "drag_end", "rt": "1671.0", "trial_number": "1", "pre_actions": "1", "move": "2@21", "instance": "prb343", "distance_to_goal": "NA", "progress": "NA", "move_number": "19", "optimal_length": "14", "subject": "A214HWAW1PYWO8:34BBWHLWHBJ6SUL255PK30LEGY5IWG"}
{"meta_move": "drag_end", "rt": "3785.0", "trial_number": "1", "pre_actions": "1", "move": "r@12", "instance": "prb343", "distance_to_goal": "NA", "progress": "NA", "move_number": "20", "optimal_length": "14", "subject": "A214HWAW1PYWO8:34BBWHLWHBJ6SUL255PK30LEGY5IWG"}
{"meta_move": "drag_end", "rt": "1642.0", "trial_number": "1", "pre_actions": "1", "move": "2@21", "instance": "prb343", "distance_to_goal": "NA", "progress": "NA", "move_number": "20", "optimal_length": "14", "subject": "A214HWAW1PYWO8:34BBWHLWHBJ6SUL255PK30LEGY5IWG"}
{"meta_move": "drag_end", "rt": "938.0", "trial_number": "1", "pre_actions": "1", "move": "6@16", "instance": "prb343", "distance_to_goal": "NA", "progress": "NA", "move_number": "20", "optimal_length": "14", "subject": "A214HWAW1PYWO8:34BBWHLWHBJ6SUL255PK30LEGY5IWG"}
{"meta_move": "drag_end", "rt": "624.0", "trial_number": "1", "pre_actions": "1", "move": "0@10", "instance": "prb343", "distance_to_goal": "NA", "progress": "NA", "move_number": "21", "optimal_length": "14", "subject": "A214HWAW1PYWO8:34BBWHLWHBJ6SUL255PK30LEGY5IWG"}
{"meta_move": "drag_end", "rt": "614.0", "trial_number": "1", "pre_actions": "1", "move": "3@8", "instance": "prb343", "distance_to_goal": "NA", "progress": "NA", "move_number": "22", "optimal_length": "14", "subject": "A214HWAW1PYWO8:34BBWHLWHBJ6SUL255PK30LEGY5IWG"}
{"meta_move": "drag_end", "rt": "441.0", "trial_number": "1", "pre_actions": "1", "move": "2@9", "instance": "prb343", "distance_to_goal": "NA", "progress": "NA", "move_number": "23", "optimal_length": "14", "subject": "A214HWAW1PYWO8:34BBWHLWHBJ6SUL255PK30LEGY5IWG"}
{"meta_move": "drag_end", "rt": "631.0", "trial_number": "1", "pre_actions": "1", "move": "1@24", "instance": "prb343", "distance_to_goal": "NA", "progress": "NA", "move_number": "24", "optimal_length": "14", "subject": "A214HWAW1PYWO8:34BBWHLWHBJ6SUL255PK30LEGY5IWG"}
{"meta_move": "drag_end", "rt": "622.0", "trial_number": "1", "pre_actions": "1", "move": "3@20", "instance": "prb343", "distance_to_goal": "NA", "progress": "NA", "move_number": "25", "optimal_length": "14", "subject": "A214HWAW1PYWO8:34BBWHLWHBJ6SUL255PK30LEGY5IWG"}
{"meta_move": "drag_end", "rt": "452.0", "trial_number": "1", "pre_actions": "1", "move": "2@21", "instance": "prb343", "distance_to_goal": "NA", "progress": "NA", "move_number": "26", "optimal_length": "14", "subject": "A214HWAW1PYWO8:34BBWHLWHBJ6SUL255PK30LEGY5IWG"}
{"meta_move": "drag_end", "rt": "409.0", "trial_number": "1", "pre_actions": "1", "move": "6@28", "instance": "prb343", "distance_to_goal": "NA", "progress": "NA", "move_number": "27", "optimal_length": "14", "subject": "A214HWAW1PYWO8:34BBWHLWHBJ6SUL255PK30LEGY5IWG"}
{"meta_move": "win", "rt": "565.0", "trial_number": "1", "pre_actions": "1", "move": "r@12", "instance": "prb343", "distance_to_goal": "1", "progress": "NA", "move_number": "28", "optimal_length": "14", "subject": "A214HWAW1PYWO8:34BBWHLWHBJ6SUL255PK30LEGY5IWG"}
{"meta_move": "drag_end", "rt": "77.0", "trial_number": "0", "pre_actions": "0", "move": "r@16", "instance": "prb343", "distance_to_goal": "NA", "progress": "NA", "move_number": "28", "optimal_length": "14", "subject": "A214HWAW1PYWO8:34BBWHLWHBJ6SUL255PK30LEGY5IWG"}
{"meta_move": "drag_end", "rt": "1679.0", "trial_number": "1", "pre_actions": "1", "move": "0@6", "instance": "prb343", "distance_to_goal": "NA", "progress": "NA", "move_number": "0", "optimal_length": "14", "subject": "A23437BMZ5T1FH:3IHR8NYAM89M0EPM8U9LH53ZJDTP4U"}
{"meta_move": "drag_end", "rt": "2396.0", "trial_number": "1", "pre_actions": "1", "move": "3@20", "instance": "prb343", "distance_to_goal": "NA", "progress": "NA", "move_number": "1", "optimal_length": "14", "subject": "A23437BMZ5T1FH:3IHR8NYAM89M0EPM8U9LH53ZJDTP4U"}
{"meta_move": "drag_end", "rt": "1937.0", "trial_number": "1", "pre_actions": "1", "move": "2@9", "instance": "prb343", "distance_to_goal": "NA", "progress": "NA", "move_number": "2", "optimal_length": "14", "subject": "A23437BMZ5T1FH:3IHR8NYAM89M0EPM8U9LH53ZJDTP4U"}
{"meta_move": "drag_end", "rt": "547.0", "trial_number": "1", "pre_actions": "1", "move": "1@27", "instance": "prb343", "distance_to_goal": "NA", "progress": "NA", "move_number": "3", "optimal_length": "14", "subject": "A23437BMZ5T1FH:3IHR8NYAM89M0EPM8U9LH53ZJDTP4U"}
{"meta_move": "drag_end", "rt": "618.0", "trial_number": "1", "pre_actions": "1", "move": "6@16", "instance": "prb343", "distance_to_goal": "NA", "progress": "NA", "move_number": "4", "optimal_length": "14", "subject": "A23437BMZ5T1FH:3IHR8NYAM89M0EPM8U9LH53ZJDTP4U"}
{"meta_move": "drag_end", "rt": "670.0", "trial_number": "1", "pre_actions": "1", "move": "3@8", "instance": "prb343", "distance_to_goal": "NA", "progress": "NA", "move_number": "4", "optimal_length": "14", "subject": "A23437BMZ5T1FH:3IHR8NYAM89M0EPM8U9LH53ZJDTP4U"}
{"meta_move": "drag_end", "rt": "597.0", "trial_number": "1", "pre_actions": "1", "move": "1@25", "instance": "prb343", "distance_to_goal": "NA", "progress": "NA", "move_number": "5", "optimal_length": "14", "subject": "A23437BMZ5T1FH:3IHR8NYAM89M0EPM8U9LH53ZJDTP4U"}
{"meta_move": "drag_end", "rt": "624.0", "trial_number": "1", "pre_actions": "1", "move": "2@21", "instance": "prb343", "distance_to_goal": "NA", "progress": "NA", "move_number": "6", "optimal_length": "14", "subject": "A23437BMZ5T1FH:3IHR8NYAM89M0EPM8U9LH53ZJDTP4U"}
{"meta_move": "drag_end", "rt": "600.0", "trial_number": "1", "pre_actions": "1", "move": "6@28", "instance": "prb343", "distance_to_goal": "NA", "progress": "NA", "move_number": "7", "optimal_length": "14", "subject": "A23437BMZ5T1FH:3IHR8NYAM89M0EPM8U9LH53ZJDTP4U"}
{"meta_move": "drag_end", "rt": "1392.0", "trial_number": "1", "pre_actions": "1", "move": "5@24", "instance": "prb343", "distance_to_goal": "NA", "progress": "NA", "move_number": "8", "optimal_length": "14", "subject": "A23437BMZ5T1FH:3IHR8NYAM89M0EPM8U9LH53ZJDTP4U"}
{"meta_move": "drag_end", "rt": "1399.0", "trial_number": "1", "pre_actions": "1", "move": "7@3", "instance": "prb343", "distance_to_goal": "NA", "progress": "NA", "move_number": "8", "optimal_length": "14", "subject": "A23437BMZ5T1FH:3IHR8NYAM89M0EPM8U9LH53ZJDTP4U"}
