{"meta_move": "drag_end", "rt": "2174.0", "trial_number": "2", "pre_actions": "1", "move": "0@15", "instance": "prb38725", "distance_to_goal": "NA", "progress": "NA", "move_number": "0", "optimal_length": "14", "subject": "A12723JDRPT207:3U84XHCDIDLGEIRSV37N835DT5LZ4W"}
{"meta_move": "drag_end", "rt": "1577.0", "trial_number": "2", "pre_actions": "1", "move": "4@0", "instance": "prb38725", "distance_to_goal": "NA", "progress": "NA", "move_number": "0", "optimal_length": "14", "subject": "A12723JDRPT207:3U84XHCDIDLGEIRSV37N835DT5LZ4W"}
{"meta_move": "drag_end", "rt": "1646.0", "trial_number": "2", "pre_actions": "1", "move": "5@8", "instance": "prb38725", "distance_to_goal": "NA", "progress": "NA", "move_number": "1", "optimal_length": "14", "subject": "A12723JDRPT207:3U84XHCDIDLGEIRSV37N835DT5LZ4W"}
{"meta_move": "drag_end", "rt": "1572.0", "trial_number": "2", "pre_actions": "1", "move": "0@3", "instance": "prb38725", "distance_to_goal": "NA", "progress": "NA", "move_number": "1", "optimal_length": "14", "subject": "A12723JDRPT207:3U84XHCDIDLGEIRSV37N835DT5LZ4W"}
{"meta_move": "drag_end", "rt": "1063.0", "trial_number": "2", "pre_actions": "1", "move": "2@28", "instance": "prb38725", "distance_to_goal": "NA", "progress": "NA", "move_number": "2", "optimal_length": "14", "subject": "A12723JDRPT207:3U84XHCDIDLGEIRSV37N835DT5LZ4W"}
{"meta_move": "drag_end", "rt": "874.0", "trial_number": "2", "pre_actions": "1", "move": "5@20", "instance": "prb38725", "distance_to_goal": "NA", "progress": "NA", "move_number": "3", "optimal_length": "14", "subject": "A12723JDRPT207:3U84XHCDIDLGEIRSV37N835DT5LZ4W"}
{"meta_move": "drag_end", "rt": "1618.0", "trial_number": "2", "pre_actions": "1", "move": "6@34", "instance": "prb38725", "distance_to_goal": "NA", "progress": "NA", "move_number": "4", "optimal_length": "14", "subject": "A12723JDRPT207:3U84XHCDIDLGEIRSV37N835DT5LZ4W"}
{"meta_move": "drag_end", "rt": "1090.0", "trial_number": "2", "pre_actions": "1", "move": "0@21", "instance": "prb38725", "distance_to_goal": "NA", "progress": "NA", "move_number": "5", "optimal_length": "14", "subject": "A12723JDRPT207:3U84XHCDIDLGEIRSV37N835DT5LZ4W"}
{"meta_move": "drag_end", "rt": "1424.0", "trial_number": "2", "pre_actions": "1", "move": "0@3", "instance": "prb38725", "distance_to_goal": "NA", "progress": "NA", "move_number": "6", "optimal_length": "14", "subject": "A12723JDRPT207:3U84XHCDIDLGEIRSV37N835DT5LZ4W"}
{"meta_move": "drag_end", "rt": "865.0", "trial_number": "2", "pre_actions": "1", "move": "5@2", "instance": "prb38725", "distance_to_goal": "NA", "progress": "NA", "move_number": "7", "optimal_length": "14", "subject": "A12723JDRPT207:3U84XHCDIDLGEIRSV37N835DT5LZ4W"}
{"meta_move": "drag_end", "rt": "1224.0", "trial_number": "2", "pre_actions": "1", "move": "2@25", "instance": "prb38725", "distance_to_goal": "NA", "progress": "NA", "move_number": "8", "optimal_length": "14", "subject": "A12723JDRPT207:3U84XHCDIDLGEIRSV37N835DT5LZ4W"}
{"meta_move": "drag_end", "rt": "1633.0", "trial_number": "2", "pre_actions": "1", "move": "6@30", "instance": "prb38725", "distance_to_goal": "NA", "progress": "NA", "move_number": "9", "optimal_length": "14", "subject": "A12723JDRPT207:3U84XHCDIDLGEIRSV37N835DT5LZ4W"}
{"meta_move": "drag_end", "rt": "1592.0", "trial_number": "2", "pre_actions": "1", "move": "0@21", "instance": "prb38725", "distance_to_goal": "NA", "progress": "NA", "move_number": "10", "optimal_length": "14", "subject": "A12723JDRPT207:3U84XHCDIDLGEIRSV37N835DT5LZ4W"}
{"meta_move": "drag_end", "rt": "1367.0", "trial_number": "2", "pre_actions": "1", "move": "3@23", "instance": "prb38725", "distance_to_goal": "NA", "progress": "NA", "move_number": "11", "optimal_length": "14", "subject": "A12723JDRPT207:3U84XHCDIDLGEIRSV37N835DT5LZ4W"}
{"meta_move": "drag_end", "rt": "829.0", "trial_number": "2", "pre_actions": "1", "move": "0@3", "instance": "prb38725", "distance_to_goal": "NA", "progress": "NA", "move_number": "12", "optimal_length": "14", "subject": "A12723JDRPT207:3U84XHCDIDLGEIRSV37N835DT5LZ4W"}
{"meta_move": "drag_end", "rt": "1058.0", "trial_number": "2", "pre_actions": "1", "move": "2@27", "instance": "prb38725", "distance_to_goal": "NA", "progress": "NA", "move_number": "13", "optimal_length": "14", "subject": "A12723JDRPT207:3U84XHCDIDLGEIRSV37N835DT5LZ4W"}
{"meta_move": "drag_end", "rt": "849.0", "trial_number": "2", "pre_actions": "1", "move": "6@33", "instance": "prb38725", "distance_to_goal": "NA", "progress": "NA", "move_number": "14", "optimal_length": "14", "subject": "A12723JDRPT207:3U84XHCDIDLGEIRSV37N835DT5LZ4W"}
{"meta_move": "drag_end", "rt": "1161.0", "trial_number": "2", "pre_actions": "1", "move": "5@20", "instance": "prb38725", "distance_to_goal": "NA", "progress": "NA", "move_number": "15", "optimal_length": "14", "subject": "A12723JDRPT207:3U84XHCDIDLGEIRSV37N835DT5LZ4W"}
{"meta_move": "drag_end", "rt": "1381.0", "trial_number": "2", "pre_actions": "1", "move": "r@13", "instance": "prb38725", "distance_to_goal": "NA", "progress": "NA", "move_number": "16", "optimal_length": "14", "subject": "A12723JDRPT207:3U84XHCDIDLGEIRSV37N835DT5LZ4W"}
{"meta_move": "drag_end", "rt": "1908.0", "trial_number": "2", "pre_actions": "1", "move": "0@9", "instance": "prb38725", "distance_to_goal": "NA", "progress": "NA", "move_number": "17", "optimal_length": "14", "subject": "A12723JDRPT207:3U84XHCDIDLGEIRSV37N835DT5LZ4W"}
{"meta_move": "drag_end", "rt": "2020.0", "trial_number": "2", "pre_actions": "1", "move": "3@11", "instance": "prb38725", "distance_to_goal": "NA", "progress": "NA", "move_number": "18", "optimal_length": "14", "subject": "A12723JDRPT207:3U84XHCDIDLGEIRSV37N835DT5LZ4W"}
{"meta_move": "drag_end", "rt": "789.0", "trial_number": "2", "pre_actions": "1", "move": "2@28", "instance": "prb38725", "distance_to_goal": "NA", "progress": "NA", "move_number": "19", "optimal_length": "14", "subject": "A12723JDRPT207:3U84XHCDIDLGEIRSV37N835DT5LZ4W"}
{"meta_move": "drag_end", "rt": "715.0", "trial_number": "2", "pre_actions": "1", "move": "6@34", "instance": "prb38725", "distance_to_goal": "NA", "progress": "NA", "move_number": "20", "optimal_length": "14", "subject": "A12723JDRPT207:3U84XHCDIDLGEIRSV37N835DT5LZ4W"}
{"meta_move": "drag_end", "rt": "1043.0", "trial_number": "2", "pre_actions": "1", "move": "0@21", "instance": "prb38725", "distance_to_goal": "NA", "progress": "NA", "move_number": "21", "optimal_length": "14", "subject": "A12723JDRPT207:3U84XHCDIDLGEIRSV37N835DT5LZ4W"}
{"meta_move": "drag_end", "rt": "8901.0", "trial_number": "1", "pre_actions": "1", "move": "6@34", "instance": "prb38725", "distance_to_goal": "NA", "progress": "NA", "move_number": "0", "optimal_length": "14", "subject": "A15781PHGW377Y:3YW4XOSQKRTI0K0Z2YPDTDJVFABU1I"}
{"meta_move": "drag_end", "rt": "1125.0", "trial_number": "1", "pre_actions": "1", "move": "0@21", "instance": "prb38725", "distance_to_goal": "NA", "progress": "NA", "move_number": "1", "optimal_length": "14", "subject": "A15781PHGW377Y:3YW4XOSQKRTI0K0Z2YPDTDJVFABU1I"}
{"meta_move": "drag_end", "rt": "1439.0", "trial_number": "1", "pre_actions": "1", "move": "4@0", "instance": "prb38725", "distance_to_goal": "NA", "progress": "NA", "move_number": "2", "optimal_length": "14", "subject": "A15781PHGW377Y:3YW4XOSQKRTI0K0Z2YPDTDJVFABU1I"}
{"meta_move": "drag_end", "rt": "1848.0", "trial_number": "1", "pre_actions": "1", "move": "5@2", "instance": "prb38725", "distance_to_goal": "NA", "progress": "NA", "move_number": "3", "optimal_length": "14", "subject": "A15781PHGW377Y:3YW4XOSQKRTI0K0Z2YPDTDJVFABU1I"}
{"meta_move": "drag_end", "rt": "1206.0", "trial_number": "1", "pre_actions": "1", "move": "0@3", "instance": "prb38725", "distance_to_goal": "NA", "progress": "NA", "move_number": "4", "optimal_length": "14", "subject": "A15781PHGW377Y:3YW4XOSQKRTI0K0Z2YPDTDJVFABU1I"}
{"meta_move": "drag_end", "rt": "1865.0", "trial_number": "1", "pre_actions": "1", "move": "2@28", "instance": "prb38725", "distance_to_goal": "NA", "progress": "NA", "move_number": "5", "optimal_length": "14", "subject": "A15781PHGW377Y:3YW4XOSQKRTI0K0Z2YPDTDJVFABU1I"}
{"meta_move": "drag_end", "rt": "1802.0", "trial_number": "1", "pre_actions": "1", "move": "5@20", "instance": "prb38725", "distance_to_goal": "NA", "progress": "NA", "move_number": "6", "optimal_length": "14", "subject": "A15781PHGW377Y:3YW4XOSQKRTI0K0Z2YPDTDJVFABU1I"}
{"meta_move": "drag_end", "rt": "1191.0", "trial_number": "1", "pre_actions": "1", "move": "0@21", "instance": "prb38725", "distance_to_goal": "NA", "progress": "NA", "move_number": "7", "optimal_length": "14", "subject": "A15781PHGW377Y:3YW4XOSQKRTI0K0Z2YPDTDJVFABU1I"}
{"meta_move": "drag_end", "rt": "2285.0", "trial_number": "1", "pre_actions": "1", "move": "5@2", "instance": "prb38725", "distance_to_goal": "NA", "progress": "NA", "move_number": "8", "optimal_length": "14", "subject": "A15781PHGW377Y:3YW4XOSQKRTI0K0Z2YPDTDJVFABU1I"}
{"meta_move": "drag_end", "rt": "910.0", "trial_number": "1", "pre_actions": "1", "move": "0@3", "instance": "prb38725", "distance_to_goal": "NA", "progress": "NA", "move_number": "9", "optimal_length": "14", "subject": "A15781PHGW377Y:3YW4XOSQKRTI0K0Z2YPDTDJVFABU1I"}
{"meta_move": "drag_end", "rt": "1314.0", "trial_number": "1", "pre_actions": "1", "move": "6@30", "instance": "prb38725", "distance_to_goal": "NA", "progress": "NA", "move_number": "10", "optimal_length": "14", "subject": "A15781PHGW377Y:3YW4XOSQKRTI0K0Z2YPDTDJVFABU1I"}
{"meta_move": "drag_end", "rt": "1987.0", "trial_number": "1", "pre_actions": "1", "move": "5@20", "instance": "prb38725", "distance_to_goal": "NA", "progress": "NA", "move_number": "11", "optimal_length": "14", "subject": "A15781PHGW377Y:3YW4XOSQKRTI0K0Z2YPDTDJVFABU1I"}
{"meta_move": "drag_end", "rt": "734.0", "trial_number": "1", "pre_actions": "1", "move": "r@13", "instance": "prb38725", "distance_to_goal": "NA", "progress": "NA", "move_number": "12", "optimal_length": "14", "subject": "A15781PHGW377Y:3YW4XOSQKRTI0K0Z2YPDTDJVFABU1I"}
{"meta_move": "drag_end", "rt": "1022.0", "trial_number": "1", "pre_actions": "1", "move": "1@6", "instance": "prb38725", "distance_to_goal": "NA", "progress": "NA", "move_number": "13", "optimal_length": "14", "subject": "A15781PHGW377Y:3YW4XOSQKRTI0K0Z2YPDTDJVFABU1I"}
{"meta_move": "drag_end", "rt": "2776.0", "trial_number": "1", "pre_actions": "1", "move": "4@1", "instance": "prb38725", "distance_to_goal": "NA", "progress": "NA", "move_number": "14", "optimal_length": "14", "subject": "A15781PHGW377Y:3YW4XOSQKRTI0K0Z2YPDTDJVFABU1I"}
{"meta_move": "drag_end", "rt": "715.0", "trial_number": "1", "pre_actions": "1", "move": "1@0", "instance": "prb38725", "distance_to_goal": "NA", "progress": "NA", "move_number": "15", "optimal_length": "14", "subject": "A15781PHGW377Y:3YW4XOSQKRTI0K0Z2YPDTDJVFABU1I"}
{"meta_move": "drag_end", "rt": "820.0", "trial_number": "1", "pre_actions": "1", "move": "r@12", "instance": "prb38725", "distance_to_goal": "NA", "progress": "NA", "move_number": "16", "optimal_length": "14", "subject": "A15781PHGW377Y:3YW4XOSQKRTI0K0Z2YPDTDJVFABU1I"}
{"meta_move": "drag_end", "rt": "1142.0", "trial_number": "1", "pre_actions": "1", "move": "5@8", "instance": "prb38725", "distance_to_goal": "NA", "progress": "NA", "move_number": "17", "optimal_length": "14", "subject": "A15781PHGW377Y:3YW4XOSQKRTI0K0Z2YPDTDJVFABU1I"}
{"meta_move": "drag_end", "rt": "1216.0", "trial_number": "1", "pre_actions": "1", "move": "2@24", "instance": "prb38725", "distance_to_goal": "NA", "progress": "NA", "move_number": "18", "optimal_length": "14", "subject": "A15781PHGW377Y:3YW4XOSQKRTI0K0Z2YPDTDJVFABU1I"}
{"meta_move": "drag_end", "rt": "905.0", "trial_number": "1", "pre_actions": "1", "move": "r@12", "instance": "prb38725", "distance_to_goal": "NA", "progress": "NA", "move_number": "19", "optimal_length": "14", "subject": "A15781PHGW377Y:3YW4XOSQKRTI0K0Z2YPDTDJVFABU1I"}
{"meta_move": "drag_end", "rt": "645.0", "trial_number": "1", "pre_actions": "1", "move": "5@20", "instance": "prb38725", "distance_to_goal": "NA", "progress": "NA", "move_number": "19", "optimal_length": "14", "subject": "A15781PHGW377Y:3YW4XOSQKRTI0K0Z2YPDTDJVFABU1I"}
{"meta_move": "drag_end", "rt": "1102.0", "trial_number": "1", "pre_actions": "1", "move": "0@21", "instance": "prb38725", "distance_to_goal": "NA", "progress": "NA", "move_number": "20", "optimal_length": "14", "subject": "A15781PHGW377Y:3YW4XOSQKRTI0K0Z2YPDTDJVFABU1I"}
{"meta_move": "drag_end", "rt": "895.0", "trial_number": "1", "pre_actions": "1", "move": "3@23", "instance": "prb38725", "distance_to_goal": "NA", "progress": "NA", "move_number": "21", "optimal_length": "14", "subject": "A15781PHGW377Y:3YW4XOSQKRTI0K0Z2YPDTDJVFABU1I"}
{"meta_move": "win", "rt": "814.0", "trial_number": "1", "pre_actions": "1", "move": "r@12", "instance": "prb38725", "distance_to_goal": "1", "progress": "NA", "move_number": "22", "optimal_length": "14", "subject": "A15781PHGW377Y:3YW4XOSQKRTI0K0Z2YPDTDJVFABU1I"}
{"meta_move": "drag_end", "rt": "145.0", "trial_number": "0", "pre_actions": "0", "move": "r@16", "instance": "prb38725", "distance_to_goal": "NA", "progress": "NA", "move_number": "22", "optimal_length": "14", "subject": "A15781PHGW377Y:3YW4XOSQKRTI0K0Z2YPDTDJVFABU1I"}
{"meta_move": "drag_end", "rt": "2436.0", "trial_number": "1", "pre_actions": "1", "move": "3@23", "instance": "prb38725", "distance_to_goal": "NA", "progress": "NA", "move_number": "0", "optimal_length": "14", "subject": "A15FXHC1CVNW31:3TS1AR6UQRM7SOIBWPBN8N9589Y7FV"}
{"meta_move": "drag_end", "rt": "1435.0", "trial_number": "1", "pre_actions": "1", "move": "7@4", "instance": "prb38725", "distance_to_goal": "NA", "progress": "NA", "move_number": "1", "optimal_length": "14", "subject": "A15FXHC1CVNW31:3TS1AR6UQRM7SOIBWPBN8N9589Y7FV"}
{"meta_move": "drag_end", "rt": "710.0", "trial_number": "1", "pre_actions": "1", "move": "6@30", "instance": "prb38725", "distance_to_goal": "NA", "progress": "NA", "move_number": "1", "optimal_length": "14", "subject": "A15FXHC1CVNW31:3TS1AR6UQRM7SOIBWPBN8N9589Y7FV"}
{"meta_move": "drag_end", "rt": "629.0", "trial_number": "1", "pre_actions": "1", "move": "0@21", "instance": "prb38725", "distance_to_goal": "NA", "progress": "NA", "move_number": "2", "optimal_length": "14", "subject": "A15FXHC1CVNW31:3TS1AR6UQRM7SOIBWPBN8N9589Y7FV"}
{"meta_move": "drag_end", "rt": "1506.0", "trial_number": "1", "pre_actions": "1", "move": "4@2", "instance": "prb38725", "distance_to_goal": "NA", "progress": "NA", "move_number": "3", "optimal_length": "14", "subject": "A15FXHC1CVNW31:3TS1AR6UQRM7SOIBWPBN8N9589Y7FV"}
{"meta_move": "drag_end", "rt": "1160.0", "trial_number": "1", "pre_actions": "1", "move": "0@9", "instance": "prb38725", "distance_to_goal": "NA", "progress": "NA", "move_number": "4", "optimal_length": "14", "subject": "A15FXHC1CVNW31:3TS1AR6UQRM7SOIBWPBN8N9589Y7FV"}
{"meta_move": "drag_end", "rt": "687.0", "trial_number": "1", "pre_actions": "1", "move": "2@27", "instance": "prb38725", "distance_to_goal": "NA", "progress": "NA", "move_number": "5", "optimal_length": "14", "subject": "A15FXHC1CVNW31:3TS1AR6UQRM7SOIBWPBN8N9589Y7FV"}
{"meta_move": "drag_end", "rt": "699.0", "trial_number": "1", "pre_actions": "1", "move": "5@20", "instance": "prb38725", "distance_to_goal": "NA", "progress": "NA", "move_number": "6", "optimal_length": "14", "subject": "A15FXHC1CVNW31:3TS1AR6UQRM7SOIBWPBN8N9589Y7FV"}
{"meta_move": "drag_end", "rt": "845.0", "trial_number": "1", "pre_actions": "1", "move": "4@0", "instance": "prb38725", "distance_to_goal": "NA", "progress": "NA", "move_number": "7", "optimal_length": "14", "subject": "A15FXHC1CVNW31:3TS1AR6UQRM7SOIBWPBN8N9589Y7FV"}
{"meta_move": "drag_end", "rt": "984.0", "trial_number": "1", "pre_actions": "1", "move": "7@2", "instance": "prb38725", "distance_to_goal": "NA", "progress": "NA", "move_number": "8", "optimal_length": "14", "subject": "A15FXHC1CVNW31:3TS1AR6UQRM7SOIBWPBN8N9589Y7FV"}
{"meta_move": "drag_end", "rt": "558.0", "trial_number": "1", "pre_actions": "1", "move": "7@4", "instance": "prb38725", "distance_to_goal": "NA", "progress": "NA", "move_number": "9", "optimal_length": "14", "subject": "A15FXHC1CVNW31:3TS1AR6UQRM7SOIBWPBN8N9589Y7FV"}
{"meta_move": "drag_end", "rt": "836.0", "trial_number": "1", "pre_actions": "1", "move": "0@3", "instance": "prb38725", "distance_to_goal": "NA", "progress": "NA", "move_number": "10", "optimal_length": "14", "subject": "A15FXHC1CVNW31:3TS1AR6UQRM7SOIBWPBN8N9589Y7FV"}
{"meta_move": "drag_end", "rt": "1294.0", "trial_number": "1", "pre_actions": "1", "move": "3@11", "instance": "prb38725", "distance_to_goal": "NA", "progress": "NA", "move_number": "11", "optimal_length": "14", "subject": "A15FXHC1CVNW31:3TS1AR6UQRM7SOIBWPBN8N9589Y7FV"}
{"meta_move": "drag_end", "rt": "735.0", "trial_number": "1", "pre_actions": "1", "move": "2@28", "instance": "prb38725", "distance_to_goal": "NA", "progress": "NA", "move_number": "12", "optimal_length": "14", "subject": "A15FXHC1CVNW31:3TS1AR6UQRM7SOIBWPBN8N9589Y7FV"}
{"meta_move": "drag_end", "rt": "725.0", "trial_number": "1", "pre_actions": "1", "move": "0@21", "instance": "prb38725", "distance_to_goal": "NA", "progress": "NA", "move_number": "13", "optimal_length": "14", "subject": "A15FXHC1CVNW31:3TS1AR6UQRM7SOIBWPBN8N9589Y7FV"}
{"meta_move": "drag_end", "rt": "1495.0", "trial_number": "1", "pre_actions": "1", "move": "7@2", "instance": "prb38725", "distance_to_goal": "NA", "progress": "NA", "move_number": "14", "optimal_length": "14", "subject": "A15FXHC1CVNW31:3TS1AR6UQRM7SOIBWPBN8N9589Y7FV"}
{"meta_move": "drag_end", "rt": "986.0", "trial_number": "1", "pre_actions": "1", "move": "3@5", "instance": "prb38725", "distance_to_goal": "NA", "progress": "NA", "move_number": "15", "optimal_length": "14", "subject": "A15FXHC1CVNW31:3TS1AR6UQRM7SOIBWPBN8N9589Y7FV"}
{"meta_move": "drag_end", "rt": "3399.0", "trial_number": "1", "pre_actions": "1", "move": "r@15", "instance": "prb38725", "distance_to_goal": "NA", "progress": "NA", "move_number": "16", "optimal_length": "14", "subject": "A15FXHC1CVNW31:3TS1AR6UQRM7SOIBWPBN8N9589Y7FV"}
{"meta_move": "drag_end", "rt": "936.0", "trial_number": "1", "pre_actions": "1", "move": "5@8", "instance": "prb38725", "distance_to_goal": "NA", "progress": "NA", "move_number": "17", "optimal_length": "14", "subject": "A15FXHC1CVNW31:3TS1AR6UQRM7SOIBWPBN8N9589Y7FV"}
{"meta_move": "drag_end", "rt": "662.0", "trial_number": "1", "pre_actions": "1", "move": "7@3", "instance": "prb38725", "distance_to_goal": "NA", "progress": "NA", "move_number": "18", "optimal_length": "14", "subject": "A15FXHC1CVNW31:3TS1AR6UQRM7SOIBWPBN8N9589Y7FV"}
{"meta_move": "drag_end", "rt": "492.0", "trial_number": "1", "pre_actions": "1", "move": "5@2", "instance": "prb38725", "distance_to_goal": "NA", "progress": "NA", "move_number": "19", "optimal_length": "14", "subject": "A15FXHC1CVNW31:3TS1AR6UQRM7SOIBWPBN8N9589Y7FV"}
{"meta_move": "drag_end", "rt": "2512.0", "trial_number": "1", "pre_actions": "1", "move": "1@6", "instance": "prb38725", "distance_to_goal": "NA", "progress": "NA", "move_number": "20", "optimal_length": "14", "subject": "A15FXHC1CVNW31:3TS1AR6UQRM7SOIBWPBN8N9589Y7FV"}
{"meta_move": "drag_end", "rt": "2229.0", "trial_number": "1", "pre_actions": "1", "move": "5@20", "instance": "prb38725", "distance_to_goal": "NA", "progress": "NA", "move_number": "21", "optimal_length": "14", "subject": "A15FXHC1CVNW31:3TS1AR6UQRM7SOIBWPBN8N9589Y7FV"}
{"meta_move": "drag_end", "rt": "900.0", "trial_number": "1", "pre_actions": "1", "move": "r@13", "instance": "prb38725", "distance_to_goal": "NA", "progress": "NA", "move_number": "22", "optimal_length": "14", "subject": "A15FXHC1CVNW31:3TS1AR6UQRM7SOIBWPBN8N9589Y7FV"}
{"meta_move": "drag_end", "rt": "970.0", "trial_number": "1", "pre_actions": "1", "move": "0@15", "instance": "prb38725", "distance_to_goal": "NA", "progress": "NA", "move_number": "23", "optimal_length": "14", "subject": "A15FXHC1CVNW31:3TS1AR6UQRM7SOIBWPBN8N9589Y7FV"}
{"meta_move": "drag_end", "rt": "2001.0", "trial_number": "1", "pre_actions": "1", "move": "3@11", "instance": "prb38725", "distance_to_goal": "NA", "progress": "NA", "move_number": "24", "optimal_length": "14", "subject": "A15FXHC1CVNW31:3TS1AR6UQRM7SOIBWPBN8N9589Y7FV"}
{"meta_move": "drag_end", "rt": "954.0", "trial_number": "1", "pre_actions": "1", "move": "7@4", "instance": "prb38725", "distance_to_goal": "NA", "progress": "NA", "move_number": "25", "optimal_length": "14", "subject": "A15FXHC1CVNW31:3TS1AR6UQRM7SOIBWPBN8N9589Y7FV"}
{"meta_move": "drag_end", "rt": "868.0", "trial_number": "1", "pre_actions": "1", "move": "0@3", "instance": "prb38725", "distance_to_goal": "NA", "progress": "NA", "move_number": "26", "optimal_length": "14", "subject": "A15FXHC1CVNW31:3TS1AR6UQRM7SOIBWPBN8N9589Y7FV"}
{"meta_move": "drag_end", "rt": "696.0", "trial_number": "1", "pre_actions": "1", "move": "2@27", "instance": "prb38725", "distance_to_goal": "NA", "progress": "NA", "move_number": "27", "optimal_length": "14", "subject": "A15FXHC1CVNW31:3TS1AR6UQRM7SOIBWPBN8N9589Y7FV"}
{"meta_move": "drag_end", "rt": "622.0", "trial_number": "1", "pre_actions": "1", "move": "3@23", "instance": "prb38725", "distance_to_goal": "NA", "progress": "NA", "move_number": "28", "optimal_length": "14", "subject": "A15FXHC1CVNW31:3TS1AR6UQRM7SOIBWPBN8N9589Y7FV"}
{"meta_move": "drag_end", "rt": "913.0", "trial_number": "1", "pre_actions": "1", "move": "0@9", "instance": "prb38725", "distance_to_goal": "NA", "progress": "NA", "move_number": "29", "optimal_length": "14", "subject": "A15FXHC1CVNW31:3TS1AR6UQRM7SOIBWPBN8N9589Y7FV"}
{"meta_move": "drag_end", "rt": "747.0", "trial_number": "1", "pre_actions": "1", "move": "7@2", "instance": "prb38725", "distance_to_goal": "NA", "progress": "NA", "move_number": "30", "optimal_length": "14", "subject": "A15FXHC1CVNW31:3TS1AR6UQRM7SOIBWPBN8N9589Y7FV"}
{"meta_move": "drag_end", "rt": "2002.0", "trial_number": "1", "pre_actions": "1", "move": "3@5", "instance": "prb38725", "distance_to_goal": "NA", "progress": "NA", "move_number": "31", "optimal_length": "14", "subject": "A15FXHC1CVNW31:3TS1AR6UQRM7SOIBWPBN8N9589Y7FV"}
{"meta_move": "drag_end", "rt": "1458.0", "trial_number": "1", "pre_actions": "1", "move": "2@27", "instance": "prb38725", "distance_to_goal": "NA", "progress": "NA", "move_number": "32", "optimal_length": "14", "subject": "A15FXHC1CVNW31:3TS1AR6UQRM7SOIBWPBN8N9589Y7FV"}
{"meta_move": "drag_end", "rt": "1592.0", "trial_number": "1", "pre_actions": "1", "move": "7@3", "instance": "prb38725", "distance_to_goal": "NA", "progress": "NA", "move_number": "32", "optimal_length": "14", "subject": "A15FXHC1CVNW31:3TS1AR6UQRM7SOIBWPBN8N9589Y7FV"}
{"meta_move": "drag_end", "rt": "1704.0", "trial_number": "1", "pre_actions": "1", "move": "3@11", "instance": "prb38725", "distance_to_goal": "NA", "progress": "NA", "move_number": "33", "optimal_length": "14", "subject": "A15FXHC1CVNW31:3TS1AR6UQRM7SOIBWPBN8N9589Y7FV"}
{"meta_move": "drag_end", "rt": "590.0", "trial_number": "1", "pre_actions": "1", "move": "7@4", "instance": "prb38725", "distance_to_goal": "NA", "progress": "NA", "move_number": "34", "optimal_length": "14", "subject": "A15FXHC1CVNW31:3TS1AR6UQRM7SOIBWPBN8N9589Y7FV"}
{"meta_move": "drag_end", "rt": "615.0", "trial_number": "1", "pre_actions": "1", "move": "0@3", "instance": "prb38725", "distance_to_goal": "NA", "progress": "NA", "move_number": "35", "optimal_length": "14", "subject": "A15FXHC1CVNW31:3TS1AR6UQRM7SOIBWPBN8N9589Y7FV"}
{"meta_move": "drag_end", "rt": "1634.0", "trial_number": "1", "pre_actions": "1", "move": "2@28", "instance": "prb38725", "distance_to_goal": "NA", "progress": "NA", "move_number": "36", "optimal_length": "14", "subject": "A15FXHC1CVNW31:3TS1AR6UQRM7SOIBWPBN8N9589Y7FV"}
{"meta_move": "drag_end", "rt": "1006.0", "trial_number": "1", "pre_actions": "1", "move": "0@21", "instance": "prb38725", "distance_to_goal": "NA", "progress": "NA", "move_number": "37", "optimal_length": "14", "subject": "A15FXHC1CVNW31:3TS1AR6UQRM7SOIBWPBN8N9589Y7FV"}
{"meta_move": "drag_end", "rt": "3223.0", "trial_number": "1", "pre_actions": "1", "move": "7@2", "instance": "prb38725", "distance_to_goal": "NA", "progress": "NA", "move_number": "38", "optimal_length": "14", "subject": "A15FXHC1CVNW31:3TS1AR6UQRM7SOIBWPBN8N9589Y7FV"}
{"meta_move": "drag_end", "rt": "2420.0", "trial_number": "1", "pre_actions": "1", "move": "0@9", "instance": "prb38725", "distance_to_goal": "NA", "progress": "NA", "move_number": "39", "optimal_length": "14", "subject": "A15FXHC1CVNW31:3TS1AR6UQRM7SOIBWPBN8N9589Y7FV"}
{"meta_move": "drag_end", "rt": "1743.0", "trial_number": "1", "pre_actions": "1", "move": "0@21", "instance": "prb38725", "distance_to_goal": "NA", "progress": "NA", "move_number": "40", "optimal_length": "14", "subject": "A15FXHC1CVNW31:3TS1AR6UQRM7SOIBWPBN8N9589Y7FV"}
{"meta_move": "drag_end", "rt": "718.0", "trial_number": "1", "pre_actions": "1", "move": "r@15", "instance": "prb38725", "distance_to_goal": "NA", "progress": "NA", "move_number": "41", "optimal_length": "14", "subject": "A15FXHC1CVNW31:3TS1AR6UQRM7SOIBWPBN8N9589Y7FV"}
{"meta_move": "drag_end", "rt": "2001.0", "trial_number": "1", "pre_actions": "1", "move": "1@18", "instance": "prb38725", "distance_to_goal": "NA", "progress": "NA", "move_number": "42", "optimal_length": "14", "subject": "A15FXHC1CVNW31:3TS1AR6UQRM7SOIBWPBN8N9589Y7FV"}
{"meta_move": "drag_end", "rt": "1772.0", "trial_number": "1", "pre_actions": "1", "move": "7@4", "instance": "prb38725", "distance_to_goal": "NA", "progress": "NA", "move_number": "43", "optimal_length": "14", "subject": "A15FXHC1CVNW31:3TS1AR6UQRM7SOIBWPBN8N9589Y7FV"}
{"meta_move": "drag_end", "rt": "1237.0", "trial_number": "1", "pre_actions": "1", "move": "4@0", "instance": "prb38725", "distance_to_goal": "NA", "progress": "NA", "move_number": "44", "optimal_length": "14", "subject": "A15FXHC1CVNW31:3TS1AR6UQRM7SOIBWPBN8N9589Y7FV"}
{"meta_move": "drag_end", "rt": "970.0", "trial_number": "1", "pre_actions": "1", "move": "5@2", "instance": "prb38725", "distance_to_goal": "NA", "progress": "NA", "move_number": "44", "optimal_length": "14", "subject": "A15FXHC1CVNW31:3TS1AR6UQRM7SOIBWPBN8N9589Y7FV"}
{"meta_move": "drag_end", "rt": "3508.0", "trial_number": "1", "pre_actions": "1", "move": "1@6", "instance": "prb38725", "distance_to_goal": "NA", "progress": "NA", "move_number": "45", "optimal_length": "14", "subject": "A15FXHC1CVNW31:3TS1AR6UQRM7SOIBWPBN8N9589Y7FV"}
{"meta_move": "drag_end", "rt": "2081.0", "trial_number": "1", "pre_actions": "1", "move": "5@20", "instance": "prb38725", "distance_to_goal": "NA", "progress": "NA", "move_number": "46", "optimal_length": "14", "subject": "A15FXHC1CVNW31:3TS1AR6UQRM7SOIBWPBN8N9589Y7FV"}
{"meta_move": "drag_end", "rt": "686.0", "trial_number": "1", "pre_actions": "1", "move": "r@13", "instance": "prb38725", "distance_to_goal": "NA", "progress": "NA", "move_number": "47", "optimal_length": "14", "subject": "A15FXHC1CVNW31:3TS1AR6UQRM7SOIBWPBN8N9589Y7FV"}
{"meta_move": "drag_end", "rt": "773.0", "trial_number": "1", "pre_actions": "1", "move": "0@3", "instance": "prb38725", "distance_to_goal": "NA", "progress": "NA", "move_number": "48", "optimal_length": "14", "subject": "A15FXHC1CVNW31:3TS1AR6UQRM7SOIBWPBN8N9589Y7FV"}
{"meta_move": "drag_end", "rt": "1777.0", "trial_number": "1", "pre_actions": "1", "move": "0@21", "instance": "prb38725", "distance_to_goal": "NA", "progress": "NA", "move_number": "49", "optimal_length": "14", "subject": "A15FXHC1CVNW31:3TS1AR6UQRM7SOIBWPBN8N9589Y7FV"}
{"meta_move": "drag_end", "rt": "1107.0", "trial_number": "1", "pre_actions": "1", "move": "r@15", "instance": "prb38725", "distance_to_goal": "NA", "progress": "NA", "move_number": "50", "optimal_length": "14", "subject": "A15FXHC1CVNW31:3TS1AR6UQRM7SOIBWPBN8N9589Y7FV"}
{"meta_move": "drag_end", "rt": "5785.0", "trial_number": "1", "pre_actions": "1", "move": "4@2", "instance": "prb38725", "distance_to_goal": "NA", "progress": "NA", "move_number": "51", "optimal_length": "14", "subject": "A15FXHC1CVNW31:3TS1AR6UQRM7SOIBWPBN8N9589Y7FV"}
{"meta_move": "drag_end", "rt": "1087.0", "trial_number": "1", "pre_actions": "1", "move": "1@0", "instance": "prb38725", "distance_to_goal": "NA", "progress": "NA", "move_number": "52", "optimal_length": "14", "subject": "A15FXHC1CVNW31:3TS1AR6UQRM7SOIBWPBN8N9589Y7FV"}
{"meta_move": "drag_end", "rt": "1445.0", "trial_number": "1", "pre_actions": "1", "move": "r@13", "instance": "prb38725", "distance_to_goal": "NA", "progress": "NA", "move_number": "53", "optimal_length": "14", "subject": "A15FXHC1CVNW31:3TS1AR6UQRM7SOIBWPBN8N9589Y7FV"}
{"meta_move": "drag_end", "rt": "2496.0", "trial_number": "1", "pre_actions": "1", "move": "4@1", "instance": "prb38725", "distance_to_goal": "NA", "progress": "NA", "move_number": "54", "optimal_length": "14", "subject": "A15FXHC1CVNW31:3TS1AR6UQRM7SOIBWPBN8N9589Y7FV"}
{"meta_move": "drag_end", "rt": "1860.0", "trial_number": "1", "pre_actions": "1", "move": "r@12", "instance": "prb38725", "distance_to_goal": "NA", "progress": "NA", "move_number": "55", "optimal_length": "14", "subject": "A15FXHC1CVNW31:3TS1AR6UQRM7SOIBWPBN8N9589Y7FV"}
{"meta_move": "drag_end", "rt": "2485.0", "trial_number": "1", "pre_actions": "1", "move": "r@15", "instance": "prb38725", "distance_to_goal": "NA", "progress": "NA", "move_number": "56", "optimal_length": "14", "subject": "A15FXHC1CVNW31:3TS1AR6UQRM7SOIBWPBN8N9589Y7FV"}
{"meta_move": "drag_end", "rt": "693.0", "trial_number": "1", "pre_actions": "1", "move": "1@18", "instance": "prb38725", "distance_to_goal": "NA", "progress": "NA", "move_number": "57", "optimal_length": "14", "subject": "A15FXHC1CVNW31:3TS1AR6UQRM7SOIBWPBN8N9589Y7FV"}
{"meta_move": "drag_end", "rt": "654.0", "trial_number": "1", "pre_actions": "1", "move": "4@0", "instance": "prb38725", "distance_to_goal": "NA", "progress": "NA", "move_number": "58", "optimal_length": "14", "subject": "A15FXHC1CVNW31:3TS1AR6UQRM7SOIBWPBN8N9589Y7FV"}
{"meta_move": "drag_end", "rt": "1332.0", "trial_number": "1", "pre_actions": "1", "move": "r@12", "instance": "prb38725", "distance_to_goal": "NA", "progress": "NA", "move_number": "59", "optimal_length": "14", "subject": "A15FXHC1CVNW31:3TS1AR6UQRM7SOIBWPBN8N9589Y7FV"}
{"meta_move": "drag_end", "rt": "694.0", "trial_number": "1", "pre_actions": "1", "move": "5@2", "instance": "prb38725", "distance_to_goal": "NA", "progress": "NA", "move_number": "60", "optimal_length": "14", "subject": "A15FXHC1CVNW31:3TS1AR6UQRM7SOIBWPBN8N9589Y7FV"}
{"meta_move": "drag_end", "rt": "686.0", "trial_number": "1", "pre_actions": "1", "move": "0@3", "instance": "prb38725", "distance_to_goal": "NA", "progress": "NA", "move_number": "61", "optimal_length": "14", "subject": "A15FXHC1CVNW31:3TS1AR6UQRM7SOIBWPBN8N9589Y7FV"}
{"meta_move": "drag_end", "rt": "1110.0", "trial_number": "1", "pre_actions": "1", "move": "2@25", "instance": "prb38725", "distance_to_goal": "NA", "progress": "NA", "move_number": "62", "optimal_length": "14", "subject": "A15FXHC1CVNW31:3TS1AR6UQRM7SOIBWPBN8N9589Y7FV"}
{"meta_move": "drag_end", "rt": "1333.0", "trial_number": "1", "pre_actions": "1", "move": "3@23", "instance": "prb38725", "distance_to_goal": "NA", "progress": "NA", "move_number": "63", "optimal_length": "14", "subject": "A15FXHC1CVNW31:3TS1AR6UQRM7SOIBWPBN8N9589Y7FV"}
{"meta_move": "drag_end", "rt": "3287.0", "trial_number": "1", "pre_actions": "1", "move": "0@21", "instance": "prb38725", "distance_to_goal": "NA", "progress": "NA", "move_number": "64", "optimal_length": "14", "subject": "A15FXHC1CVNW31:3TS1AR6UQRM7SOIBWPBN8N9589Y7FV"}
{"meta_move": "drag_end", "rt": "1357.0", "trial_number": "1", "pre_actions": "1", "move": "0@3", "instance": "prb38725", "distance_to_goal": "NA", "progress": "NA", "move_number": "65", "optimal_length": "14", "subject": "A15FXHC1CVNW31:3TS1AR6UQRM7SOIBWPBN8N9589Y7FV"}
{"meta_move": "drag_end", "rt": "763.0", "trial_number": "1", "pre_actions": "1", "move": "2@27", "instance": "prb38725", "distance_to_goal": "NA", "progress": "NA", "move_number": "66", "optimal_length": "14", "subject": "A15FXHC1CVNW31:3TS1AR6UQRM7SOIBWPBN8N9589Y7FV"}
{"meta_move": "drag_end", "rt": "3382.0", "trial_number": "1", "pre_actions": "1", "move": "6@33", "instance": "prb38725", "distance_to_goal": "NA", "progress": "NA", "move_number": "67", "optimal_length": "14", "subject": "A15FXHC1CVNW31:3TS1AR6UQRM7SOIBWPBN8N9589Y7FV"}
{"meta_move": "drag_end", "rt": "874.0", "trial_number": "1", "pre_actions": "1", "move": "5@20", "instance": "prb38725", "distance_to_goal": "NA", "progress": "NA", "move_number": "68", "optimal_length": "14", "subject": "A15FXHC1CVNW31:3TS1AR6UQRM7SOIBWPBN8N9589Y7FV"}
{"meta_move": "drag_end", "rt": "653.0", "trial_number": "1", "pre_actions": "1", "move": "r@13", "instance": "prb38725", "distance_to_goal": "NA", "progress": "NA", "move_number": "69", "optimal_length": "14", "subject": "A15FXHC1CVNW31:3TS1AR6UQRM7SOIBWPBN8N9589Y7FV"}
{"meta_move": "drag_end", "rt": "805.0", "trial_number": "1", "pre_actions": "1", "move": "1@6", "instance": "prb38725", "distance_to_goal": "NA", "progress": "NA", "move_number": "70", "optimal_length": "14", "subject": "A15FXHC1CVNW31:3TS1AR6UQRM7SOIBWPBN8N9589Y7FV"}
{"meta_move": "drag_end", "rt": "2648.0", "trial_number": "1", "pre_actions": "1", "move": "0@9", "instance": "prb38725", "distance_to_goal": "NA", "progress": "NA", "move_number": "71", "optimal_length": "14", "subject": "A15FXHC1CVNW31:3TS1AR6UQRM7SOIBWPBN8N9589Y7FV"}
{"meta_move": "drag_end", "rt": "1862.0", "trial_number": "1", "pre_actions": "1", "move": "0@3", "instance": "prb38725", "distance_to_goal": "NA", "progress": "NA", "move_number": "72", "optimal_length": "14", "subject": "A15FXHC1CVNW31:3TS1AR6UQRM7SOIBWPBN8N9589Y7FV"}
{"meta_move": "drag_end", "rt": "1480.0", "trial_number": "1", "pre_actions": "1", "move": "0@9", "instance": "prb38725", "distance_to_goal": "NA", "progress": "NA", "move_number": "73", "optimal_length": "14", "subject": "A15FXHC1CVNW31:3TS1AR6UQRM7SOIBWPBN8N9589Y7FV"}
{"meta_move": "drag_end", "rt": "758.0", "trial_number": "1", "pre_actions": "1", "move": "1@24", "instance": "prb38725", "distance_to_goal": "NA", "progress": "NA", "move_number": "74", "optimal_length": "14", "subject": "A15FXHC1CVNW31:3TS1AR6UQRM7SOIBWPBN8N9589Y7FV"}
{"meta_move": "drag_end", "rt": "638.0", "trial_number": "1", "pre_actions": "1", "move": "r@12", "instance": "prb38725", "distance_to_goal": "NA", "progress": "NA", "move_number": "75", "optimal_length": "14", "subject": "A15FXHC1CVNW31:3TS1AR6UQRM7SOIBWPBN8N9589Y7FV"}
{"meta_move": "drag_end", "rt": "843.0", "trial_number": "1", "pre_actions": "1", "move": "5@2", "instance": "prb38725", "distance_to_goal": "NA", "progress": "NA", "move_number": "76", "optimal_length": "14", "subject": "A15FXHC1CVNW31:3TS1AR6UQRM7SOIBWPBN8N9589Y7FV"}
{"meta_move": "drag_end", "rt": "498.0", "trial_number": "1", "pre_actions": "1", "move": "0@3", "instance": "prb38725", "distance_to_goal": "NA", "progress": "NA", "move_number": "77", "optimal_length": "14", "subject": "A15FXHC1CVNW31:3TS1AR6UQRM7SOIBWPBN8N9589Y7FV"}
{"meta_move": "drag_end", "rt": "2205.0", "trial_number": "1", "pre_actions": "1", "move": "2@27", "instance": "prb38725", "distance_to_goal": "NA", "progress": "NA", "move_number": "78", "optimal_length": "14", "subject": "A15FXHC1CVNW31:3TS1AR6UQRM7SOIBWPBN8N9589Y7FV"}
{"meta_move": "drag_end", "rt": "916.0", "trial_number": "1", "pre_actions": "1", "move": "1@18", "instance": "prb38725", "distance_to_goal": "NA", "progress": "NA", "move_number": "78", "optimal_length": "14", "subject": "A15FXHC1CVNW31:3TS1AR6UQRM7SOIBWPBN8N9589Y7FV"}
{"meta_move": "drag_end", "rt": "5153.0", "trial_number": "1", "pre_actions": "1", "move": "5@20", "instance": "prb38725", "distance_to_goal": "NA", "progress": "NA", "move_number": "79", "optimal_length": "14", "subject": "A15FXHC1CVNW31:3TS1AR6UQRM7SOIBWPBN8N9589Y7FV"}
{"meta_move": "drag_end", "rt": "1727.0", "trial_number": "1", "pre_actions": "1", "move": "r@13", "instance": "prb38725", "distance_to_goal": "NA", "progress": "NA", "move_number": "80", "optimal_length": "14", "subject": "A15FXHC1CVNW31:3TS1AR6UQRM7SOIBWPBN8N9589Y7FV"}
{"meta_move": "drag_end", "rt": "2365.0", "trial_number": "1", "pre_actions": "1", "move": "0@9", "instance": "prb38725", "distance_to_goal": "NA", "progress": "NA", "move_number": "81", "optimal_length": "14", "subject": "A15FXHC1CVNW31:3TS1AR6UQRM7SOIBWPBN8N9589Y7FV"}
{"meta_move": "drag_end", "rt": "1451.0", "trial_number": "1", "pre_actions": "1", "move": "4@2", "instance": "prb38725", "distance_to_goal": "NA", "progress": "NA", "move_number": "82", "optimal_length": "14", "subject": "A15FXHC1CVNW31:3TS1AR6UQRM7SOIBWPBN8N9589Y7FV"}
{"meta_move": "drag_end", "rt": "866.0", "trial_number": "1", "pre_actions": "1", "move": "1@0", "instance": "prb38725", "distance_to_goal": "NA", "progress": "NA", "move_number": "83", "optimal_length": "14", "subject": "A15FXHC1CVNW31:3TS1AR6UQRM7SOIBWPBN8N9589Y7FV"}
{"meta_move": "drag_end", "rt": "622.0", "trial_number": "1", "pre_actions": "1", "move": "r@12", "instance": "prb38725", "distance_to_goal": "NA", "progress": "NA", "move_number": "84", "optimal_length": "14", "subject": "A15FXHC1CVNW31:3TS1AR6UQRM7SOIBWPBN8N9589Y7FV"}
{"meta_move": "drag_end", "rt": "861.0", "trial_number": "1", "pre_actions": "1", "move": "5@8", "instance": "prb38725", "distance_to_goal": "NA", "progress": "NA", "move_number": "85", "optimal_length": "14", "subject": "A15FXHC1CVNW31:3TS1AR6UQRM7SOIBWPBN8N9589Y7FV"}
{"meta_move": "drag_end", "rt": "890.0", "trial_number": "1", "pre_actions": "1", "move": "2@24", "instance": "prb38725", "distance_to_goal": "NA", "progress": "NA", "move_number": "86", "optimal_length": "14", "subject": "A15FXHC1CVNW31:3TS1AR6UQRM7SOIBWPBN8N9589Y7FV"}
{"meta_move": "drag_end", "rt": "637.0", "trial_number": "1", "pre_actions": "1", "move": "6@30", "instance": "prb38725", "distance_to_goal": "NA", "progress": "NA", "move_number": "87", "optimal_length": "14", "subject": "A15FXHC1CVNW31:3TS1AR6UQRM7SOIBWPBN8N9589Y7FV"}
{"meta_move": "drag_end", "rt": "663.0", "trial_number": "1", "pre_actions": "1", "move": "5@20", "instance": "prb38725", "distance_to_goal": "NA", "progress": "NA", "move_number": "88", "optimal_length": "14", "subject": "A15FXHC1CVNW31:3TS1AR6UQRM7SOIBWPBN8N9589Y7FV"}
{"meta_move": "drag_end", "rt": "884.0", "trial_number": "1", "pre_actions": "1", "move": "0@21", "instance": "prb38725", "distance_to_goal": "NA", "progress": "NA", "move_number": "89", "optimal_length": "14", "subject": "A15FXHC1CVNW31:3TS1AR6UQRM7SOIBWPBN8N9589Y7FV"}
{"meta_move": "win", "rt": "593.0", "trial_number": "1", "pre_actions": "1", "move": "r@12", "instance": "prb38725", "distance_to_goal": "1", "progress": "NA", "move_number": "90", "optimal_length": "14", "subject": "A15FXHC1CVNW31:3TS1AR6UQRM7SOIBWPBN8N9589Y7FV"}
{"meta_move": "drag_end", "rt": "248.0", "trial_number": "0", "pre_actions": "0", "move": "r@16", "instance": "prb38725", "distance_to_goal": "NA", "progress": "NA", "move_number": "90", "optimal_length": "14", "subject": "A15FXHC1CVNW31:3TS1AR6UQRM7SOIBWPBN8N9589Y7FV"}
{"meta_move": "drag_end", "rt": "1877.0", "trial_number": "1", "pre_actions": "1", "move": "3@23", "instance": "prb38725", "distance_to_goal": "NA", "progress": "NA", "move_number": "0", "optimal_length": "14", "subject": "A16SJ5D3DKUEXJ:3TYCR1GOTDRCCQYD1V64UK7OE48LZS"}
{"meta_move": "drag_end", "rt": "964.0", "trial_number": "1", "pre_actions": "1", "move": "3@11", "instance": "prb38725", "distance_to_goal": "NA", "progress": "NA", "move_number": "1", "optimal_length": "14", "subject": "A16SJ5D3DKUEXJ:3TYCR1GOTDRCCQYD1V64UK7OE48LZS"}
{"meta_move": "drag_end", "rt": "1390.0", "trial_number": "1", "pre_actions": "1", "move": "6@34", "instance": "prb38725", "distance_to_goal": "NA", "progress": "NA", "move_number": "2", "optimal_length": "14", "subject": "A16SJ5D3DKUEXJ:3TYCR1GOTDRCCQYD1V64UK7OE48LZS"}
{"meta_move": "drag_end", "rt": "790.0", "trial_number": "1", "pre_actions": "1", "move": "0@3", "instance": "prb38725", "distance_to_goal": "NA", "progress": "NA", "move_number": "3", "optimal_length": "14", "subject": "A16SJ5D3DKUEXJ:3TYCR1GOTDRCCQYD1V64UK7OE48LZS"}
{"meta_move": "drag_end", "rt": "1008.0", "trial_number": "1", "pre_actions": "1", "move": "2@28", "instance": "prb38725", "distance_to_goal": "NA", "progress": "NA", "move_number": "4", "optimal_length": "14", "subject": "A16SJ5D3DKUEXJ:3TYCR1GOTDRCCQYD1V64UK7OE48LZS"}
{"meta_move": "drag_end", "rt": "894.0", "trial_number": "1", "pre_actions": "1", "move": "5@20", "instance": "prb38725", "distance_to_goal": "NA", "progress": "NA", "move_number": "5", "optimal_length": "14", "subject": "A16SJ5D3DKUEXJ:3TYCR1GOTDRCCQYD1V64UK7OE48LZS"}
{"meta_move": "drag_end", "rt": "715.0", "trial_number": "1", "pre_actions": "1", "move": "r@13", "instance": "prb38725", "distance_to_goal": "NA", "progress": "NA", "move_number": "6", "optimal_length": "14", "subject": "A16SJ5D3DKUEXJ:3TYCR1GOTDRCCQYD1V64UK7OE48LZS"}
{"meta_move": "drag_end", "rt": "714.0", "trial_number": "1", "pre_actions": "1", "move": "0@21", "instance": "prb38725", "distance_to_goal": "NA", "progress": "NA", "move_number": "7", "optimal_length": "14", "subject": "A16SJ5D3DKUEXJ:3TYCR1GOTDRCCQYD1V64UK7OE48LZS"}
{"meta_move": "drag_end", "rt": "1018.0", "trial_number": "1", "pre_actions": "1", "move": "r@15", "instance": "prb38725", "distance_to_goal": "NA", "progress": "NA", "move_number": "8", "optimal_length": "14", "subject": "A16SJ5D3DKUEXJ:3TYCR1GOTDRCCQYD1V64UK7OE48LZS"}
{"meta_move": "drag_end", "rt": "1100.0", "trial_number": "1", "pre_actions": "1", "move": "5@8", "instance": "prb38725", "distance_to_goal": "NA", "progress": "NA", "move_number": "9", "optimal_length": "14", "subject": "A16SJ5D3DKUEXJ:3TYCR1GOTDRCCQYD1V64UK7OE48LZS"}
{"meta_move": "drag_end", "rt": "1073.0", "trial_number": "1", "pre_actions": "1", "move": "2@28", "instance": "prb38725", "distance_to_goal": "NA", "progress": "NA", "move_number": "10", "optimal_length": "14", "subject": "A16SJ5D3DKUEXJ:3TYCR1GOTDRCCQYD1V64UK7OE48LZS"}
{"meta_move": "drag_end", "rt": "987.0", "trial_number": "1", "pre_actions": "1", "move": "5@20", "instance": "prb38725", "distance_to_goal": "NA", "progress": "NA", "move_number": "10", "optimal_length": "14", "subject": "A16SJ5D3DKUEXJ:3TYCR1GOTDRCCQYD1V64UK7OE48LZS"}
{"meta_move": "drag_end", "rt": "701.0", "trial_number": "1", "pre_actions": "1", "move": "r@12", "instance": "prb38725", "distance_to_goal": "NA", "progress": "NA", "move_number": "11", "optimal_length": "14", "subject": "A16SJ5D3DKUEXJ:3TYCR1GOTDRCCQYD1V64UK7OE48LZS"}
{"meta_move": "drag_end", "rt": "806.0", "trial_number": "1", "pre_actions": "1", "move": "0@3", "instance": "prb38725", "distance_to_goal": "NA", "progress": "NA", "move_number": "12", "optimal_length": "14", "subject": "A16SJ5D3DKUEXJ:3TYCR1GOTDRCCQYD1V64UK7OE48LZS"}
{"meta_move": "drag_end", "rt": "3821.0", "trial_number": "1", "pre_actions": "1", "move": "2@27", "instance": "prb38725", "distance_to_goal": "NA", "progress": "NA", "move_number": "13", "optimal_length": "14", "subject": "A16SJ5D3DKUEXJ:3TYCR1GOTDRCCQYD1V64UK7OE48LZS"}
{"meta_move": "drag_end", "rt": "505.0", "trial_number": "1", "pre_actions": "1", "move": "6@33", "instance": "prb38725", "distance_to_goal": "NA", "progress": "NA", "move_number": "14", "optimal_length": "14", "subject": "A16SJ5D3DKUEXJ:3TYCR1GOTDRCCQYD1V64UK7OE48LZS"}
{"meta_move": "drag_end", "rt": "828.0", "trial_number": "1", "pre_actions": "1", "move": "3@23", "instance": "prb38725", "distance_to_goal": "NA", "progress": "NA", "move_number": "15", "optimal_length": "14", "subject": "A16SJ5D3DKUEXJ:3TYCR1GOTDRCCQYD1V64UK7OE48LZS"}
{"meta_move": "drag_end", "rt": "1328.0", "trial_number": "1", "pre_actions": "1", "move": "0@9", "instance": "prb38725", "distance_to_goal": "NA", "progress": "NA", "move_number": "16", "optimal_length": "14", "subject": "A16SJ5D3DKUEXJ:3TYCR1GOTDRCCQYD1V64UK7OE48LZS"}
{"meta_move": "drag_end", "rt": "899.0", "trial_number": "1", "pre_actions": "1", "move": "4@0", "instance": "prb38725", "distance_to_goal": "NA", "progress": "NA", "move_number": "17", "optimal_length": "14", "subject": "A16SJ5D3DKUEXJ:3TYCR1GOTDRCCQYD1V64UK7OE48LZS"}
{"meta_move": "drag_end", "rt": "650.0", "trial_number": "1", "pre_actions": "1", "move": "7@2", "instance": "prb38725", "distance_to_goal": "NA", "progress": "NA", "move_number": "18", "optimal_length": "14", "subject": "A16SJ5D3DKUEXJ:3TYCR1GOTDRCCQYD1V64UK7OE48LZS"}
{"meta_move": "drag_end", "rt": "1209.0", "trial_number": "1", "pre_actions": "1", "move": "5@8", "instance": "prb38725", "distance_to_goal": "NA", "progress": "NA", "move_number": "19", "optimal_length": "14", "subject": "A16SJ5D3DKUEXJ:3TYCR1GOTDRCCQYD1V64UK7OE48LZS"}
{"meta_move": "drag_end", "rt": "1603.0", "trial_number": "1", "pre_actions": "1", "move": "5@20", "instance": "prb38725", "distance_to_goal": "NA", "progress": "NA", "move_number": "20", "optimal_length": "14", "subject": "A16SJ5D3DKUEXJ:3TYCR1GOTDRCCQYD1V64UK7OE48LZS"}
{"meta_move": "drag_end", "rt": "868.0", "trial_number": "1", "pre_actions": "1", "move": "7@4", "instance": "prb38725", "distance_to_goal": "NA", "progress": "NA", "move_number": "21", "optimal_length": "14", "subject": "A16SJ5D3DKUEXJ:3TYCR1GOTDRCCQYD1V64UK7OE48LZS"}
{"meta_move": "drag_end", "rt": "849.0", "trial_number": "1", "pre_actions": "1", "move": "0@3", "instance": "prb38725", "distance_to_goal": "NA", "progress": "NA", "move_number": "22", "optimal_length": "14", "subject": "A16SJ5D3DKUEXJ:3TYCR1GOTDRCCQYD1V64UK7OE48LZS"}
{"meta_move": "drag_end", "rt": "806.0", "trial_number": "1", "pre_actions": "1", "move": "r@13", "instance": "prb38725", "distance_to_goal": "NA", "progress": "NA", "move_number": "23", "optimal_length": "14", "subject": "A16SJ5D3DKUEXJ:3TYCR1GOTDRCCQYD1V64UK7OE48LZS"}
{"meta_move": "drag_end", "rt": "1188.0", "trial_number": "1", "pre_actions": "1", "move": "3@11", "instance": "prb38725", "distance_to_goal": "NA", "progress": "NA", "move_number": "24", "optimal_length": "14", "subject": "A16SJ5D3DKUEXJ:3TYCR1GOTDRCCQYD1V64UK7OE48LZS"}
{"meta_move": "drag_end", "rt": "1020.0", "trial_number": "1", "pre_actions": "1", "move": "2@28", "instance": "prb38725", "distance_to_goal": "NA", "progress": "NA", "move_number": "25", "optimal_length": "14", "subject": "A16SJ5D3DKUEXJ:3TYCR1GOTDRCCQYD1V64UK7OE48LZS"}
{"meta_move": "drag_end", "rt": "433.0", "trial_number": "1", "pre_actions": "1", "move": "6@34", "instance": "prb38725", "distance_to_goal": "NA", "progress": "NA", "move_number": "26", "optimal_length": "14", "subject": "A16SJ5D3DKUEXJ:3TYCR1GOTDRCCQYD1V64UK7OE48LZS"}
{"meta_move": "drag_end", "rt": "704.0", "trial_number": "1", "pre_actions": "1", "move": "0@21", "instance": "prb38725", "distance_to_goal": "NA", "progress": "NA", "move_number": "27", "optimal_length": "14", "subject": "A16SJ5D3DKUEXJ:3TYCR1GOTDRCCQYD1V64UK7OE48LZS"}
{"meta_move": "drag_end", "rt": "1085.0", "trial_number": "1", "pre_actions": "1", "move": "r@15", "instance": "prb38725", "distance_to_goal": "NA", "progress": "NA", "move_number": "28", "optimal_length": "14", "subject": "A16SJ5D3DKUEXJ:3TYCR1GOTDRCCQYD1V64UK7OE48LZS"}
{"meta_move": "drag_end", "rt": "1305.0", "trial_number": "1", "pre_actions": "1", "move": "5@2", "instance": "prb38725", "distance_to_goal": "NA", "progress": "NA", "move_number": "29", "optimal_length": "14", "subject": "A16SJ5D3DKUEXJ:3TYCR1GOTDRCCQYD1V64UK7OE48LZS"}
{"meta_move": "drag_end", "rt": "1384.0", "trial_number": "1", "pre_actions": "1", "move": "7@3", "instance": "prb38725", "distance_to_goal": "NA", "progress": "NA", "move_number": "30", "optimal_length": "14", "subject": "A16SJ5D3DKUEXJ:3TYCR1GOTDRCCQYD1V64UK7OE48LZS"}
{"meta_move": "drag_end", "rt": "655.0", "trial_number": "1", "pre_actions": "1", "move": "3@5", "instance": "prb38725", "distance_to_goal": "NA", "progress": "NA", "move_number": "31", "optimal_length": "14", "subject": "A16SJ5D3DKUEXJ:3TYCR1GOTDRCCQYD1V64UK7OE48LZS"}
{"meta_move": "drag_end", "rt": "702.0", "trial_number": "1", "pre_actions": "1", "move": "r@15", "instance": "prb38725", "distance_to_goal": "NA", "progress": "NA", "move_number": "32", "optimal_length": "14", "subject": "A16SJ5D3DKUEXJ:3TYCR1GOTDRCCQYD1V64UK7OE48LZS"}
{"meta_move": "drag_end", "rt": "1805.0", "trial_number": "1", "pre_actions": "1", "move": "4@0", "instance": "prb38725", "distance_to_goal": "NA", "progress": "NA", "move_number": "32", "optimal_length": "14", "subject": "A16SJ5D3DKUEXJ:3TYCR1GOTDRCCQYD1V64UK7OE48LZS"}
{"meta_move": "drag_end", "rt": "796.0", "trial_number": "1", "pre_actions": "1", "move": "1@6", "instance": "prb38725", "distance_to_goal": "NA", "progress": "NA", "move_number": "32", "optimal_length": "14", "subject": "A16SJ5D3DKUEXJ:3TYCR1GOTDRCCQYD1V64UK7OE48LZS"}
{"meta_move": "drag_end", "rt": "1032.0", "trial_number": "1", "pre_actions": "1", "move": "5@20", "instance": "prb38725", "distance_to_goal": "NA", "progress": "NA", "move_number": "33", "optimal_length": "14", "subject": "A16SJ5D3DKUEXJ:3TYCR1GOTDRCCQYD1V64UK7OE48LZS"}
{"meta_move": "drag_end", "rt": "767.0", "trial_number": "1", "pre_actions": "1", "move": "r@13", "instance": "prb38725", "distance_to_goal": "NA", "progress": "NA", "move_number": "34", "optimal_length": "14", "subject": "A16SJ5D3DKUEXJ:3TYCR1GOTDRCCQYD1V64UK7OE48LZS"}
{"meta_move": "drag_end", "rt": "913.0", "trial_number": "1", "pre_actions": "1", "move": "7@2", "instance": "prb38725", "distance_to_goal": "NA", "progress": "NA", "move_number": "35", "optimal_length": "14", "subject": "A16SJ5D3DKUEXJ:3TYCR1GOTDRCCQYD1V64UK7OE48LZS"}
{"meta_move": "drag_end", "rt": "4610.0", "trial_number": "1", "pre_actions": "1", "move": "7@3", "instance": "prb38725", "distance_to_goal": "NA", "progress": "NA", "move_number": "36", "optimal_length": "14", "subject": "A16SJ5D3DKUEXJ:3TYCR1GOTDRCCQYD1V64UK7OE48LZS"}
{"meta_move": "drag_end", "rt": "642.0", "trial_number": "1", "pre_actions": "1", "move": "7@2", "instance": "prb38725", "distance_to_goal": "NA", "progress": "NA", "move_number": "37", "optimal_length": "14", "subject": "A16SJ5D3DKUEXJ:3TYCR1GOTDRCCQYD1V64UK7OE48LZS"}
{"meta_move": "drag_end", "rt": "759.0", "trial_number": "1", "pre_actions": "1", "move": "3@11", "instance": "prb38725", "distance_to_goal": "NA", "progress": "NA", "move_number": "38", "optimal_length": "14", "subject": "A16SJ5D3DKUEXJ:3TYCR1GOTDRCCQYD1V64UK7OE48LZS"}
{"meta_move": "drag_end", "rt": "864.0", "trial_number": "1", "pre_actions": "1", "move": "7@4", "instance": "prb38725", "distance_to_goal": "NA", "progress": "NA", "move_number": "39", "optimal_length": "14", "subject": "A16SJ5D3DKUEXJ:3TYCR1GOTDRCCQYD1V64UK7OE48LZS"}
{"meta_move": "drag_end", "rt": "853.0", "trial_number": "1", "pre_actions": "1", "move": "0@3", "instance": "prb38725", "distance_to_goal": "NA", "progress": "NA", "move_number": "40", "optimal_length": "14", "subject": "A16SJ5D3DKUEXJ:3TYCR1GOTDRCCQYD1V64UK7OE48LZS"}
{"meta_move": "drag_end", "rt": "1811.0", "trial_number": "1", "pre_actions": "1", "move": "2@27", "instance": "prb38725", "distance_to_goal": "NA", "progress": "NA", "move_number": "41", "optimal_length": "14", "subject": "A16SJ5D3DKUEXJ:3TYCR1GOTDRCCQYD1V64UK7OE48LZS"}
{"meta_move": "drag_end", "rt": "487.0", "trial_number": "1", "pre_actions": "1", "move": "6@33", "instance": "prb38725", "distance_to_goal": "NA", "progress": "NA", "move_number": "42", "optimal_length": "14", "subject": "A16SJ5D3DKUEXJ:3TYCR1GOTDRCCQYD1V64UK7OE48LZS"}
{"meta_move": "drag_end", "rt": "873.0", "trial_number": "1", "pre_actions": "1", "move": "3@23", "instance": "prb38725", "distance_to_goal": "NA", "progress": "NA", "move_number": "43", "optimal_length": "14", "subject": "A16SJ5D3DKUEXJ:3TYCR1GOTDRCCQYD1V64UK7OE48LZS"}
{"meta_move": "drag_end", "rt": "1486.0", "trial_number": "1", "pre_actions": "1", "move": "0@9", "instance": "prb38725", "distance_to_goal": "NA", "progress": "NA", "move_number": "44", "optimal_length": "14", "subject": "A16SJ5D3DKUEXJ:3TYCR1GOTDRCCQYD1V64UK7OE48LZS"}
{"meta_move": "drag_end", "rt": "935.0", "trial_number": "1", "pre_actions": "1", "move": "7@2", "instance": "prb38725", "distance_to_goal": "NA", "progress": "NA", "move_number": "45", "optimal_length": "14", "subject": "A16SJ5D3DKUEXJ:3TYCR1GOTDRCCQYD1V64UK7OE48LZS"}
{"meta_move": "drag_end", "rt": "1705.0", "trial_number": "1", "pre_actions": "1", "move": "7@4", "instance": "prb38725", "distance_to_goal": "NA", "progress": "NA", "move_number": "46", "optimal_length": "14", "subject": "A16SJ5D3DKUEXJ:3TYCR1GOTDRCCQYD1V64UK7OE48LZS"}
{"meta_move": "drag_end", "rt": "790.0", "trial_number": "1", "pre_actions": "1", "move": "4@2", "instance": "prb38725", "distance_to_goal": "NA", "progress": "NA", "move_number": "47", "optimal_length": "14", "subject": "A16SJ5D3DKUEXJ:3TYCR1GOTDRCCQYD1V64UK7OE48LZS"}
{"meta_move": "drag_end", "rt": "1819.0", "trial_number": "1", "pre_actions": "1", "move": "4@1", "instance": "prb38725", "distance_to_goal": "NA", "progress": "NA", "move_number": "48", "optimal_length": "14", "subject": "A16SJ5D3DKUEXJ:3TYCR1GOTDRCCQYD1V64UK7OE48LZS"}
{"meta_move": "drag_end", "rt": "1077.0", "trial_number": "1", "pre_actions": "1", "move": "0@3", "instance": "prb38725", "distance_to_goal": "NA", "progress": "NA", "move_number": "49", "optimal_length": "14", "subject": "A16SJ5D3DKUEXJ:3TYCR1GOTDRCCQYD1V64UK7OE48LZS"}
{"meta_move": "drag_end", "rt": "1555.0", "trial_number": "1", "pre_actions": "1", "move": "1@0", "instance": "prb38725", "distance_to_goal": "NA", "progress": "NA", "move_number": "50", "optimal_length": "14", "subject": "A16SJ5D3DKUEXJ:3TYCR1GOTDRCCQYD1V64UK7OE48LZS"}
{"meta_move": "drag_end", "rt": "616.0", "trial_number": "1", "pre_actions": "1", "move": "r@12", "instance": "prb38725", "distance_to_goal": "NA", "progress": "NA", "move_number": "51", "optimal_length": "14", "subject": "A16SJ5D3DKUEXJ:3TYCR1GOTDRCCQYD1V64UK7OE48LZS"}
{"meta_move": "drag_end", "rt": "1517.0", "trial_number": "1", "pre_actions": "1", "move": "5@8", "instance": "prb38725", "distance_to_goal": "NA", "progress": "NA", "move_number": "52", "optimal_length": "14", "subject": "A16SJ5D3DKUEXJ:3TYCR1GOTDRCCQYD1V64UK7OE48LZS"}
{"meta_move": "drag_end", "rt": "742.0", "trial_number": "1", "pre_actions": "1", "move": "2@24", "instance": "prb38725", "distance_to_goal": "NA", "progress": "NA", "move_number": "53", "optimal_length": "14", "subject": "A16SJ5D3DKUEXJ:3TYCR1GOTDRCCQYD1V64UK7OE48LZS"}
{"meta_move": "drag_end", "rt": "769.0", "trial_number": "1", "pre_actions": "1", "move": "6@30", "instance": "prb38725", "distance_to_goal": "NA", "progress": "NA", "move_number": "54", "optimal_length": "14", "subject": "A16SJ5D3DKUEXJ:3TYCR1GOTDRCCQYD1V64UK7OE48LZS"}
{"meta_move": "drag_end", "rt": "708.0", "trial_number": "1", "pre_actions": "1", "move": "5@20", "instance": "prb38725", "distance_to_goal": "NA", "progress": "NA", "move_number": "55", "optimal_length": "14", "subject": "A16SJ5D3DKUEXJ:3TYCR1GOTDRCCQYD1V64UK7OE48LZS"}
{"meta_move": "drag_end", "rt": "633.0", "trial_number": "1", "pre_actions": "1", "move": "r@13", "instance": "prb38725", "distance_to_goal": "NA", "progress": "NA", "move_number": "56", "optimal_length": "14", "subject": "A16SJ5D3DKUEXJ:3TYCR1GOTDRCCQYD1V64UK7OE48LZS"}
{"meta_move": "drag_end", "rt": "581.0", "trial_number": "1", "pre_actions": "1", "move": "0@21", "instance": "prb38725", "distance_to_goal": "NA", "progress": "NA", "move_number": "57", "optimal_length": "14", "subject": "A16SJ5D3DKUEXJ:3TYCR1GOTDRCCQYD1V64UK7OE48LZS"}
{"meta_move": "win", "rt": "851.0", "trial_number": "1", "pre_actions": "1", "move": "r@13", "instance": "prb38725", "distance_to_goal": "1", "progress": "NA", "move_number": "58", "optimal_length": "14", "subject": "A16SJ5D3DKUEXJ:3TYCR1GOTDRCCQYD1V64UK7OE48LZS"}
{"meta_move": "drag_end", "rt": "246.0", "trial_number": "0", "pre_actions": "0", "move": "r@16", "instance": "prb38725", "distance_to_goal": "NA", "progress": "NA", "move_number": "58", "optimal_length": "14", "subject": "A16SJ5D3DKUEXJ:3TYCR1GOTDRCCQYD1V64UK7OE48LZS"}
{"meta_move": "drag_end", "rt": "7551.0", "trial_number": "1", "pre_actions": "1", "move": "4@0", "instance": "prb38725", "distance_to_goal": "NA", "progress": "NA", "move_number": "0", "optimal_length": "14", "subject": "A18QU0YQB6Q8DF:3VE8AYVF8N5BS2NU6U3TMN50JMNF8V"}
{"meta_move": "drag_end", "rt": "1198.0", "trial_number": "1", "pre_actions": "1", "move": "5@2", "instance": "prb38725", "distance_to_goal": "NA", "progress": "NA", "move_number": "1", "optimal_length": "14", "subject": "A18QU0YQB6Q8DF:3VE8AYVF8N5BS2NU6U3TMN50JMNF8V"}
{"meta_move": "drag_end", "rt": "2630.0", "trial_number": "1", "pre_actions": "1", "move": "0@3", "instance": "prb38725", "distance_to_goal": "NA", "progress": "NA", "move_number": "2", "optimal_length": "14", "subject": "A18QU0YQB6Q8DF:3VE8AYVF8N5BS2NU6U3TMN50JMNF8V"}
{"meta_move": "drag_end", "rt": "1883.0", "trial_number": "1", "pre_actions": "1", "move": "2@25", "instance": "prb38725", "distance_to_goal": "NA", "progress": "NA", "move_number": "3", "optimal_length": "14", "subject": "A18QU0YQB6Q8DF:3VE8AYVF8N5BS2NU6U3TMN50JMNF8V"}
{"meta_move": "drag_end", "rt": "3928.0", "trial_number": "1", "pre_actions": "1", "move": "6@30", "instance": "prb38725", "distance_to_goal": "NA", "progress": "NA", "move_number": "3", "optimal_length": "14", "subject": "A18QU0YQB6Q8DF:3VE8AYVF8N5BS2NU6U3TMN50JMNF8V"}
{"meta_move": "drag_end", "rt": "2732.0", "trial_number": "1", "pre_actions": "1", "move": "0@9", "instance": "prb38725", "distance_to_goal": "NA", "progress": "NA", "move_number": "4", "optimal_length": "14", "subject": "A18QU0YQB6Q8DF:3VE8AYVF8N5BS2NU6U3TMN50JMNF8V"}
{"meta_move": "drag_end", "rt": "1741.0", "trial_number": "1", "pre_actions": "1", "move": "2@27", "instance": "prb38725", "distance_to_goal": "NA", "progress": "NA", "move_number": "5", "optimal_length": "14", "subject": "A18QU0YQB6Q8DF:3VE8AYVF8N5BS2NU6U3TMN50JMNF8V"}
{"meta_move": "drag_end", "rt": "1456.0", "trial_number": "1", "pre_actions": "1", "move": "5@20", "instance": "prb38725", "distance_to_goal": "NA", "progress": "NA", "move_number": "6", "optimal_length": "14", "subject": "A18QU0YQB6Q8DF:3VE8AYVF8N5BS2NU6U3TMN50JMNF8V"}
{"meta_move": "drag_end", "rt": "2853.0", "trial_number": "1", "pre_actions": "1", "move": "2@27", "instance": "prb38725", "distance_to_goal": "NA", "progress": "NA", "move_number": "7", "optimal_length": "14", "subject": "A18QU0YQB6Q8DF:3VE8AYVF8N5BS2NU6U3TMN50JMNF8V"}
{"meta_move": "drag_end", "rt": "2196.0", "trial_number": "1", "pre_actions": "1", "move": "7@2", "instance": "prb38725", "distance_to_goal": "NA", "progress": "NA", "move_number": "7", "optimal_length": "14", "subject": "A18QU0YQB6Q8DF:3VE8AYVF8N5BS2NU6U3TMN50JMNF8V"}
{"meta_move": "drag_end", "rt": "1034.0", "trial_number": "1", "pre_actions": "1", "move": "3@5", "instance": "prb38725", "distance_to_goal": "NA", "progress": "NA", "move_number": "8", "optimal_length": "14", "subject": "A18QU0YQB6Q8DF:3VE8AYVF8N5BS2NU6U3TMN50JMNF8V"}
{"meta_move": "drag_end", "rt": "1440.0", "trial_number": "1", "pre_actions": "1", "move": "2@28", "instance": "prb38725", "distance_to_goal": "NA", "progress": "NA", "move_number": "9", "optimal_length": "14", "subject": "A18QU0YQB6Q8DF:3VE8AYVF8N5BS2NU6U3TMN50JMNF8V"}
{"meta_move": "drag_end", "rt": "1104.0", "trial_number": "1", "pre_actions": "1", "move": "0@21", "instance": "prb38725", "distance_to_goal": "NA", "progress": "NA", "move_number": "10", "optimal_length": "14", "subject": "A18QU0YQB6Q8DF:3VE8AYVF8N5BS2NU6U3TMN50JMNF8V"}
{"meta_move": "drag_end", "rt": "6341.0", "trial_number": "1", "pre_actions": "1", "move": "3@11", "instance": "prb38725", "distance_to_goal": "NA", "progress": "NA", "move_number": "11", "optimal_length": "14", "subject": "A18QU0YQB6Q8DF:3VE8AYVF8N5BS2NU6U3TMN50JMNF8V"}
{"meta_move": "drag_end", "rt": "1913.0", "trial_number": "1", "pre_actions": "1", "move": "0@9", "instance": "prb38725", "distance_to_goal": "NA", "progress": "NA", "move_number": "12", "optimal_length": "14", "subject": "A18QU0YQB6Q8DF:3VE8AYVF8N5BS2NU6U3TMN50JMNF8V"}
{"meta_move": "drag_end", "rt": "965.0", "trial_number": "1", "pre_actions": "1", "move": "2@27", "instance": "prb38725", "distance_to_goal": "NA", "progress": "NA", "move_number": "13", "optimal_length": "14", "subject": "A18QU0YQB6Q8DF:3VE8AYVF8N5BS2NU6U3TMN50JMNF8V"}
{"meta_move": "drag_end", "rt": "1151.0", "trial_number": "1", "pre_actions": "1", "move": "3@23", "instance": "prb38725", "distance_to_goal": "NA", "progress": "NA", "move_number": "14", "optimal_length": "14", "subject": "A18QU0YQB6Q8DF:3VE8AYVF8N5BS2NU6U3TMN50JMNF8V"}
{"meta_move": "drag_end", "rt": "1720.0", "trial_number": "1", "pre_actions": "1", "move": "5@8", "instance": "prb38725", "distance_to_goal": "NA", "progress": "NA", "move_number": "15", "optimal_length": "14", "subject": "A18QU0YQB6Q8DF:3VE8AYVF8N5BS2NU6U3TMN50JMNF8V"}
{"meta_move": "drag_end", "rt": "1083.0", "trial_number": "1", "pre_actions": "1", "move": "2@25", "instance": "prb38725", "distance_to_goal": "NA", "progress": "NA", "move_number": "16", "optimal_length": "14", "subject": "A18QU0YQB6Q8DF:3VE8AYVF8N5BS2NU6U3TMN50JMNF8V"}
{"meta_move": "drag_end", "rt": "1095.0", "trial_number": "1", "pre_actions": "1", "move": "0@21", "instance": "prb38725", "distance_to_goal": "NA", "progress": "NA", "move_number": "17", "optimal_length": "14", "subject": "A18QU0YQB6Q8DF:3VE8AYVF8N5BS2NU6U3TMN50JMNF8V"}
{"meta_move": "drag_end", "rt": "1112.0", "trial_number": "1", "pre_actions": "1", "move": "2@25", "instance": "prb38725", "distance_to_goal": "NA", "progress": "NA", "move_number": "18", "optimal_length": "14", "subject": "A18QU0YQB6Q8DF:3VE8AYVF8N5BS2NU6U3TMN50JMNF8V"}
{"meta_move": "drag_end", "rt": "925.0", "trial_number": "1", "pre_actions": "1", "move": "6@31", "instance": "prb38725", "distance_to_goal": "NA", "progress": "NA", "move_number": "18", "optimal_length": "14", "subject": "A18QU0YQB6Q8DF:3VE8AYVF8N5BS2NU6U3TMN50JMNF8V"}
{"meta_move": "drag_end", "rt": "801.0", "trial_number": "1", "pre_actions": "1", "move": "1@24", "instance": "prb38725", "distance_to_goal": "NA", "progress": "NA", "move_number": "19", "optimal_length": "14", "subject": "A18QU0YQB6Q8DF:3VE8AYVF8N5BS2NU6U3TMN50JMNF8V"}
{"meta_move": "drag_end", "rt": "2444.0", "trial_number": "1", "pre_actions": "1", "move": "7@4", "instance": "prb38725", "distance_to_goal": "NA", "progress": "NA", "move_number": "20", "optimal_length": "14", "subject": "A18QU0YQB6Q8DF:3VE8AYVF8N5BS2NU6U3TMN50JMNF8V"}
{"meta_move": "drag_end", "rt": "3190.0", "trial_number": "1", "pre_actions": "1", "move": "5@2", "instance": "prb38725", "distance_to_goal": "NA", "progress": "NA", "move_number": "21", "optimal_length": "14", "subject": "A18QU0YQB6Q8DF:3VE8AYVF8N5BS2NU6U3TMN50JMNF8V"}
{"meta_move": "drag_end", "rt": "7919.0", "trial_number": "1", "pre_actions": "1", "move": "0@3", "instance": "prb38725", "distance_to_goal": "NA", "progress": "NA", "move_number": "22", "optimal_length": "14", "subject": "A18QU0YQB6Q8DF:3VE8AYVF8N5BS2NU6U3TMN50JMNF8V"}
{"meta_move": "drag_end", "rt": "3712.0", "trial_number": "1", "pre_actions": "1", "move": "3@11", "instance": "prb38725", "distance_to_goal": "NA", "progress": "NA", "move_number": "23", "optimal_length": "14", "subject": "A18QU0YQB6Q8DF:3VE8AYVF8N5BS2NU6U3TMN50JMNF8V"}
{"meta_move": "drag_end", "rt": "2715.0", "trial_number": "1", "pre_actions": "1", "move": "2@28", "instance": "prb38725", "distance_to_goal": "NA", "progress": "NA", "move_number": "24", "optimal_length": "14", "subject": "A18QU0YQB6Q8DF:3VE8AYVF8N5BS2NU6U3TMN50JMNF8V"}
{"meta_move": "drag_end", "rt": "2223.0", "trial_number": "1", "pre_actions": "1", "move": "6@34", "instance": "prb38725", "distance_to_goal": "NA", "progress": "NA", "move_number": "25", "optimal_length": "14", "subject": "A18QU0YQB6Q8DF:3VE8AYVF8N5BS2NU6U3TMN50JMNF8V"}
{"meta_move": "drag_end", "rt": "2927.0", "trial_number": "1", "pre_actions": "1", "move": "5@20", "instance": "prb38725", "distance_to_goal": "NA", "progress": "NA", "move_number": "26", "optimal_length": "14", "subject": "A18QU0YQB6Q8DF:3VE8AYVF8N5BS2NU6U3TMN50JMNF8V"}
{"meta_move": "drag_end", "rt": "888.0", "trial_number": "1", "pre_actions": "1", "move": "0@21", "instance": "prb38725", "distance_to_goal": "NA", "progress": "NA", "move_number": "27", "optimal_length": "14", "subject": "A18QU0YQB6Q8DF:3VE8AYVF8N5BS2NU6U3TMN50JMNF8V"}
{"meta_move": "drag_end", "rt": "1259.0", "trial_number": "1", "pre_actions": "1", "move": "r@14", "instance": "prb38725", "distance_to_goal": "NA", "progress": "NA", "move_number": "28", "optimal_length": "14", "subject": "A18QU0YQB6Q8DF:3VE8AYVF8N5BS2NU6U3TMN50JMNF8V"}
{"meta_move": "drag_end", "rt": "1429.0", "trial_number": "1", "pre_actions": "1", "move": "1@6", "instance": "prb38725", "distance_to_goal": "NA", "progress": "NA", "move_number": "29", "optimal_length": "14", "subject": "A18QU0YQB6Q8DF:3VE8AYVF8N5BS2NU6U3TMN50JMNF8V"}
{"meta_move": "drag_end", "rt": "1192.0", "trial_number": "1", "pre_actions": "1", "move": "r@15", "instance": "prb38725", "distance_to_goal": "NA", "progress": "NA", "move_number": "30", "optimal_length": "14", "subject": "A18QU0YQB6Q8DF:3VE8AYVF8N5BS2NU6U3TMN50JMNF8V"}
{"meta_move": "drag_end", "rt": "2225.0", "trial_number": "1", "pre_actions": "1", "move": "5@2", "instance": "prb38725", "distance_to_goal": "NA", "progress": "NA", "move_number": "31", "optimal_length": "14", "subject": "A18QU0YQB6Q8DF:3VE8AYVF8N5BS2NU6U3TMN50JMNF8V"}
{"meta_move": "drag_end", "rt": "1197.0", "trial_number": "1", "pre_actions": "1", "move": "0@21", "instance": "prb38725", "distance_to_goal": "NA", "progress": "NA", "move_number": "32", "optimal_length": "14", "subject": "A18QU0YQB6Q8DF:3VE8AYVF8N5BS2NU6U3TMN50JMNF8V"}
{"meta_move": "drag_end", "rt": "1815.0", "trial_number": "1", "pre_actions": "1", "move": "6@30", "instance": "prb38725", "distance_to_goal": "NA", "progress": "NA", "move_number": "0", "optimal_length": "14", "subject": "A191V7PT3DQKDP:3PMBY0YE28B43VMUKKJ6EDF85RV9C8"}
{"meta_move": "drag_end", "rt": "1576.0", "trial_number": "1", "pre_actions": "1", "move": "0@3", "instance": "prb38725", "distance_to_goal": "NA", "progress": "NA", "move_number": "1", "optimal_length": "14", "subject": "A191V7PT3DQKDP:3PMBY0YE28B43VMUKKJ6EDF85RV9C8"}
{"meta_move": "drag_end", "rt": "1168.0", "trial_number": "1", "pre_actions": "1", "move": "2@28", "instance": "prb38725", "distance_to_goal": "NA", "progress": "NA", "move_number": "2", "optimal_length": "14", "subject": "A191V7PT3DQKDP:3PMBY0YE28B43VMUKKJ6EDF85RV9C8"}
{"meta_move": "drag_end", "rt": "800.0", "trial_number": "1", "pre_actions": "1", "move": "5@20", "instance": "prb38725", "distance_to_goal": "NA", "progress": "NA", "move_number": "3", "optimal_length": "14", "subject": "A191V7PT3DQKDP:3PMBY0YE28B43VMUKKJ6EDF85RV9C8"}
{"meta_move": "drag_end", "rt": "3976.0", "trial_number": "1", "pre_actions": "1", "move": "0@3", "instance": "prb38725", "distance_to_goal": "NA", "progress": "NA", "move_number": "4", "optimal_length": "14", "subject": "A191V7PT3DQKDP:3PMBY0YE28B43VMUKKJ6EDF85RV9C8"}
{"meta_move": "drag_end", "rt": "2505.0", "trial_number": "1", "pre_actions": "1", "move": "2@28", "instance": "prb38725", "distance_to_goal": "NA", "progress": "NA", "move_number": "4", "optimal_length": "14", "subject": "A191V7PT3DQKDP:3PMBY0YE28B43VMUKKJ6EDF85RV9C8"}
{"meta_move": "drag_end", "rt": "2079.0", "trial_number": "1", "pre_actions": "1", "move": "r@13", "instance": "prb38725", "distance_to_goal": "NA", "progress": "NA", "move_number": "4", "optimal_length": "14", "subject": "A191V7PT3DQKDP:3PMBY0YE28B43VMUKKJ6EDF85RV9C8"}
{"meta_move": "drag_end", "rt": "662.0", "trial_number": "1", "pre_actions": "1", "move": "1@0", "instance": "prb38725", "distance_to_goal": "NA", "progress": "NA", "move_number": "5", "optimal_length": "14", "subject": "A191V7PT3DQKDP:3PMBY0YE28B43VMUKKJ6EDF85RV9C8"}
{"meta_move": "drag_end", "rt": "1272.0", "trial_number": "1", "pre_actions": "1", "move": "r@12", "instance": "prb38725", "distance_to_goal": "NA", "progress": "NA", "move_number": "6", "optimal_length": "14", "subject": "A191V7PT3DQKDP:3PMBY0YE28B43VMUKKJ6EDF85RV9C8"}
{"meta_move": "drag_end", "rt": "784.0", "trial_number": "1", "pre_actions": "1", "move": "5@8", "instance": "prb38725", "distance_to_goal": "NA", "progress": "NA", "move_number": "7", "optimal_length": "14", "subject": "A191V7PT3DQKDP:3PMBY0YE28B43VMUKKJ6EDF85RV9C8"}
{"meta_move": "drag_end", "rt": "720.0", "trial_number": "1", "pre_actions": "1", "move": "2@24", "instance": "prb38725", "distance_to_goal": "NA", "progress": "NA", "move_number": "8", "optimal_length": "14", "subject": "A191V7PT3DQKDP:3PMBY0YE28B43VMUKKJ6EDF85RV9C8"}
{"meta_move": "drag_end", "rt": "912.0", "trial_number": "1", "pre_actions": "1", "move": "5@20", "instance": "prb38725", "distance_to_goal": "NA", "progress": "NA", "move_number": "9", "optimal_length": "14", "subject": "A191V7PT3DQKDP:3PMBY0YE28B43VMUKKJ6EDF85RV9C8"}
{"meta_move": "drag_end", "rt": "768.0", "trial_number": "1", "pre_actions": "1", "move": "0@21", "instance": "prb38725", "distance_to_goal": "NA", "progress": "NA", "move_number": "10", "optimal_length": "14", "subject": "A191V7PT3DQKDP:3PMBY0YE28B43VMUKKJ6EDF85RV9C8"}
{"meta_move": "drag_end", "rt": "680.0", "trial_number": "1", "pre_actions": "1", "move": "3@23", "instance": "prb38725", "distance_to_goal": "NA", "progress": "NA", "move_number": "11", "optimal_length": "14", "subject": "A191V7PT3DQKDP:3PMBY0YE28B43VMUKKJ6EDF85RV9C8"}
{"meta_move": "win", "rt": "554.0", "trial_number": "1", "pre_actions": "1", "move": "r@12", "instance": "prb38725", "distance_to_goal": "1", "progress": "NA", "move_number": "12", "optimal_length": "14", "subject": "A191V7PT3DQKDP:3PMBY0YE28B43VMUKKJ6EDF85RV9C8"}
{"meta_move": "drag_end", "rt": "181.0", "trial_number": "0", "pre_actions": "0", "move": "r@16", "instance": "prb38725", "distance_to_goal": "NA", "progress": "NA", "move_number": "12", "optimal_length": "14", "subject": "A191V7PT3DQKDP:3PMBY0YE28B43VMUKKJ6EDF85RV9C8"}
{"meta_move": "drag_end", "rt": "1840.0", "trial_number": "1", "pre_actions": "1", "move": "6@30", "instance": "prb38725", "distance_to_goal": "NA", "progress": "NA", "move_number": "0", "optimal_length": "14", "subject": "A1F4N58CAX8IMK:3TS1AR6UQRM7SOIBWPBN8N9589Y7FV"}
{"meta_move": "drag_end", "rt": "1326.0", "trial_number": "1", "pre_actions": "1", "move": "0@21", "instance": "prb38725", "distance_to_goal": "NA", "progress": "NA", "move_number": "1", "optimal_length": "14", "subject": "A1F4N58CAX8IMK:3TS1AR6UQRM7SOIBWPBN8N9589Y7FV"}
{"meta_move": "drag_end", "rt": "824.0", "trial_number": "1", "pre_actions": "1", "move": "3@23", "instance": "prb38725", "distance_to_goal": "NA", "progress": "NA", "move_number": "2", "optimal_length": "14", "subject": "A1F4N58CAX8IMK:3TS1AR6UQRM7SOIBWPBN8N9589Y7FV"}
{"meta_move": "drag_end", "rt": "1008.0", "trial_number": "1", "pre_actions": "1", "move": "0@3", "instance": "prb38725", "distance_to_goal": "NA", "progress": "NA", "move_number": "3", "optimal_length": "14", "subject": "A1F4N58CAX8IMK:3TS1AR6UQRM7SOIBWPBN8N9589Y7FV"}
{"meta_move": "drag_end", "rt": "793.0", "trial_number": "1", "pre_actions": "1", "move": "2@27", "instance": "prb38725", "distance_to_goal": "NA", "progress": "NA", "move_number": "4", "optimal_length": "14", "subject": "A1F4N58CAX8IMK:3TS1AR6UQRM7SOIBWPBN8N9589Y7FV"}
{"meta_move": "drag_end", "rt": "639.0", "trial_number": "1", "pre_actions": "1", "move": "5@20", "instance": "prb38725", "distance_to_goal": "NA", "progress": "NA", "move_number": "5", "optimal_length": "14", "subject": "A1F4N58CAX8IMK:3TS1AR6UQRM7SOIBWPBN8N9589Y7FV"}
{"meta_move": "drag_end", "rt": "1024.0", "trial_number": "1", "pre_actions": "1", "move": "4@0", "instance": "prb38725", "distance_to_goal": "NA", "progress": "NA", "move_number": "6", "optimal_length": "14", "subject": "A1F4N58CAX8IMK:3TS1AR6UQRM7SOIBWPBN8N9589Y7FV"}
{"meta_move": "drag_end", "rt": "2161.0", "trial_number": "1", "pre_actions": "1", "move": "0@9", "instance": "prb38725", "distance_to_goal": "NA", "progress": "NA", "move_number": "7", "optimal_length": "14", "subject": "A1F4N58CAX8IMK:3TS1AR6UQRM7SOIBWPBN8N9589Y7FV"}
{"meta_move": "drag_end", "rt": "695.0", "trial_number": "1", "pre_actions": "1", "move": "7@2", "instance": "prb38725", "distance_to_goal": "NA", "progress": "NA", "move_number": "8", "optimal_length": "14", "subject": "A1F4N58CAX8IMK:3TS1AR6UQRM7SOIBWPBN8N9589Y7FV"}
{"meta_move": "drag_end", "rt": "897.0", "trial_number": "1", "pre_actions": "1", "move": "3@5", "instance": "prb38725", "distance_to_goal": "NA", "progress": "NA", "move_number": "9", "optimal_length": "14", "subject": "A1F4N58CAX8IMK:3TS1AR6UQRM7SOIBWPBN8N9589Y7FV"}
{"meta_move": "drag_end", "rt": "664.0", "trial_number": "1", "pre_actions": "1", "move": "2@28", "instance": "prb38725", "distance_to_goal": "NA", "progress": "NA", "move_number": "10", "optimal_length": "14", "subject": "A1F4N58CAX8IMK:3TS1AR6UQRM7SOIBWPBN8N9589Y7FV"}
{"meta_move": "drag_end", "rt": "687.0", "trial_number": "1", "pre_actions": "1", "move": "0@21", "instance": "prb38725", "distance_to_goal": "NA", "progress": "NA", "move_number": "11", "optimal_length": "14", "subject": "A1F4N58CAX8IMK:3TS1AR6UQRM7SOIBWPBN8N9589Y7FV"}
{"meta_move": "drag_end", "rt": "1296.0", "trial_number": "1", "pre_actions": "1", "move": "r@13", "instance": "prb38725", "distance_to_goal": "NA", "progress": "NA", "move_number": "12", "optimal_length": "14", "subject": "A1F4N58CAX8IMK:3TS1AR6UQRM7SOIBWPBN8N9589Y7FV"}
{"meta_move": "drag_end", "rt": "576.0", "trial_number": "1", "pre_actions": "1", "move": "r@15", "instance": "prb38725", "distance_to_goal": "NA", "progress": "NA", "move_number": "13", "optimal_length": "14", "subject": "A1F4N58CAX8IMK:3TS1AR6UQRM7SOIBWPBN8N9589Y7FV"}
{"meta_move": "drag_end", "rt": "688.0", "trial_number": "1", "pre_actions": "1", "move": "5@8", "instance": "prb38725", "distance_to_goal": "NA", "progress": "NA", "move_number": "14", "optimal_length": "14", "subject": "A1F4N58CAX8IMK:3TS1AR6UQRM7SOIBWPBN8N9589Y7FV"}
{"meta_move": "drag_end", "rt": "1873.0", "trial_number": "1", "pre_actions": "1", "move": "5@20", "instance": "prb38725", "distance_to_goal": "NA", "progress": "NA", "move_number": "15", "optimal_length": "14", "subject": "A1F4N58CAX8IMK:3TS1AR6UQRM7SOIBWPBN8N9589Y7FV"}
{"meta_move": "drag_end", "rt": "1472.0", "trial_number": "1", "pre_actions": "1", "move": "r@12", "instance": "prb38725", "distance_to_goal": "NA", "progress": "NA", "move_number": "16", "optimal_length": "14", "subject": "A1F4N58CAX8IMK:3TS1AR6UQRM7SOIBWPBN8N9589Y7FV"}
{"meta_move": "drag_end", "rt": "879.0", "trial_number": "1", "pre_actions": "1", "move": "r@13", "instance": "prb38725", "distance_to_goal": "NA", "progress": "NA", "move_number": "17", "optimal_length": "14", "subject": "A1F4N58CAX8IMK:3TS1AR6UQRM7SOIBWPBN8N9589Y7FV"}
{"meta_move": "drag_end", "rt": "656.0", "trial_number": "1", "pre_actions": "1", "move": "0@9", "instance": "prb38725", "distance_to_goal": "NA", "progress": "NA", "move_number": "18", "optimal_length": "14", "subject": "A1F4N58CAX8IMK:3TS1AR6UQRM7SOIBWPBN8N9589Y7FV"}
{"meta_move": "drag_end", "rt": "601.0", "trial_number": "1", "pre_actions": "1", "move": "2@27", "instance": "prb38725", "distance_to_goal": "NA", "progress": "NA", "move_number": "19", "optimal_length": "14", "subject": "A1F4N58CAX8IMK:3TS1AR6UQRM7SOIBWPBN8N9589Y7FV"}
{"meta_move": "drag_end", "rt": "824.0", "trial_number": "1", "pre_actions": "1", "move": "3@23", "instance": "prb38725", "distance_to_goal": "NA", "progress": "NA", "move_number": "20", "optimal_length": "14", "subject": "A1F4N58CAX8IMK:3TS1AR6UQRM7SOIBWPBN8N9589Y7FV"}
{"meta_move": "drag_end", "rt": "1248.0", "trial_number": "1", "pre_actions": "1", "move": "7@4", "instance": "prb38725", "distance_to_goal": "NA", "progress": "NA", "move_number": "21", "optimal_length": "14", "subject": "A1F4N58CAX8IMK:3TS1AR6UQRM7SOIBWPBN8N9589Y7FV"}
{"meta_move": "drag_end", "rt": "655.0", "trial_number": "1", "pre_actions": "1", "move": "0@3", "instance": "prb38725", "distance_to_goal": "NA", "progress": "NA", "move_number": "22", "optimal_length": "14", "subject": "A1F4N58CAX8IMK:3TS1AR6UQRM7SOIBWPBN8N9589Y7FV"}
{"meta_move": "drag_end", "rt": "1936.0", "trial_number": "1", "pre_actions": "1", "move": "1@6", "instance": "prb38725", "distance_to_goal": "NA", "progress": "NA", "move_number": "23", "optimal_length": "14", "subject": "A1F4N58CAX8IMK:3TS1AR6UQRM7SOIBWPBN8N9589Y7FV"}
{"meta_move": "drag_end", "rt": "1784.0", "trial_number": "1", "pre_actions": "1", "move": "3@11", "instance": "prb38725", "distance_to_goal": "NA", "progress": "NA", "move_number": "24", "optimal_length": "14", "subject": "A1F4N58CAX8IMK:3TS1AR6UQRM7SOIBWPBN8N9589Y7FV"}
{"meta_move": "drag_end", "rt": "696.0", "trial_number": "1", "pre_actions": "1", "move": "2@28", "instance": "prb38725", "distance_to_goal": "NA", "progress": "NA", "move_number": "25", "optimal_length": "14", "subject": "A1F4N58CAX8IMK:3TS1AR6UQRM7SOIBWPBN8N9589Y7FV"}
{"meta_move": "drag_end", "rt": "1304.0", "trial_number": "1", "pre_actions": "1", "move": "0@21", "instance": "prb38725", "distance_to_goal": "NA", "progress": "NA", "move_number": "26", "optimal_length": "14", "subject": "A1F4N58CAX8IMK:3TS1AR6UQRM7SOIBWPBN8N9589Y7FV"}
{"meta_move": "drag_end", "rt": "688.0", "trial_number": "1", "pre_actions": "1", "move": "r@15", "instance": "prb38725", "distance_to_goal": "NA", "progress": "NA", "move_number": "27", "optimal_length": "14", "subject": "A1F4N58CAX8IMK:3TS1AR6UQRM7SOIBWPBN8N9589Y7FV"}
{"meta_move": "drag_end", "rt": "768.0", "trial_number": "1", "pre_actions": "1", "move": "5@2", "instance": "prb38725", "distance_to_goal": "NA", "progress": "NA", "move_number": "28", "optimal_length": "14", "subject": "A1F4N58CAX8IMK:3TS1AR6UQRM7SOIBWPBN8N9589Y7FV"}
{"meta_move": "drag_end", "rt": "3680.0", "trial_number": "1", "pre_actions": "1", "move": "1@18", "instance": "prb38725", "distance_to_goal": "NA", "progress": "NA", "move_number": "29", "optimal_length": "14", "subject": "A1F4N58CAX8IMK:3TS1AR6UQRM7SOIBWPBN8N9589Y7FV"}
{"meta_move": "drag_end", "rt": "1465.0", "trial_number": "1", "pre_actions": "1", "move": "r@15", "instance": "prb38725", "distance_to_goal": "NA", "progress": "NA", "move_number": "30", "optimal_length": "14", "subject": "A1F4N58CAX8IMK:3TS1AR6UQRM7SOIBWPBN8N9589Y7FV"}
{"meta_move": "drag_end", "rt": "687.0", "trial_number": "1", "pre_actions": "1", "move": "7@3", "instance": "prb38725", "distance_to_goal": "NA", "progress": "NA", "move_number": "30", "optimal_length": "14", "subject": "A1F4N58CAX8IMK:3TS1AR6UQRM7SOIBWPBN8N9589Y7FV"}
{"meta_move": "drag_end", "rt": "712.0", "trial_number": "1", "pre_actions": "1", "move": "3@5", "instance": "prb38725", "distance_to_goal": "NA", "progress": "NA", "move_number": "31", "optimal_length": "14", "subject": "A1F4N58CAX8IMK:3TS1AR6UQRM7SOIBWPBN8N9589Y7FV"}
{"meta_move": "drag_end", "rt": "1296.0", "trial_number": "1", "pre_actions": "1", "move": "2@28", "instance": "prb38725", "distance_to_goal": "NA", "progress": "NA", "move_number": "32", "optimal_length": "14", "subject": "A1F4N58CAX8IMK:3TS1AR6UQRM7SOIBWPBN8N9589Y7FV"}
{"meta_move": "drag_end", "rt": "769.0", "trial_number": "1", "pre_actions": "1", "move": "5@20", "instance": "prb38725", "distance_to_goal": "NA", "progress": "NA", "move_number": "32", "optimal_length": "14", "subject": "A1F4N58CAX8IMK:3TS1AR6UQRM7SOIBWPBN8N9589Y7FV"}
{"meta_move": "drag_end", "rt": "991.0", "trial_number": "1", "pre_actions": "1", "move": "r@14", "instance": "prb38725", "distance_to_goal": "NA", "progress": "NA", "move_number": "33", "optimal_length": "14", "subject": "A1F4N58CAX8IMK:3TS1AR6UQRM7SOIBWPBN8N9589Y7FV"}
{"meta_move": "drag_end", "rt": "1127.0", "trial_number": "1", "pre_actions": "1", "move": "r@13", "instance": "prb38725", "distance_to_goal": "NA", "progress": "NA", "move_number": "34", "optimal_length": "14", "subject": "A1F4N58CAX8IMK:3TS1AR6UQRM7SOIBWPBN8N9589Y7FV"}
{"meta_move": "drag_end", "rt": "744.0", "trial_number": "1", "pre_actions": "1", "move": "0@9", "instance": "prb38725", "distance_to_goal": "NA", "progress": "NA", "move_number": "35", "optimal_length": "14", "subject": "A1F4N58CAX8IMK:3TS1AR6UQRM7SOIBWPBN8N9589Y7FV"}
{"meta_move": "drag_end", "rt": "785.0", "trial_number": "1", "pre_actions": "1", "move": "2@27", "instance": "prb38725", "distance_to_goal": "NA", "progress": "NA", "move_number": "36", "optimal_length": "14", "subject": "A1F4N58CAX8IMK:3TS1AR6UQRM7SOIBWPBN8N9589Y7FV"}
{"meta_move": "drag_end", "rt": "791.0", "trial_number": "1", "pre_actions": "1", "move": "3@23", "instance": "prb38725", "distance_to_goal": "NA", "progress": "NA", "move_number": "37", "optimal_length": "14", "subject": "A1F4N58CAX8IMK:3TS1AR6UQRM7SOIBWPBN8N9589Y7FV"}
{"meta_move": "drag_end", "rt": "576.0", "trial_number": "1", "pre_actions": "1", "move": "7@4", "instance": "prb38725", "distance_to_goal": "NA", "progress": "NA", "move_number": "38", "optimal_length": "14", "subject": "A1F4N58CAX8IMK:3TS1AR6UQRM7SOIBWPBN8N9589Y7FV"}
{"meta_move": "drag_end", "rt": "592.0", "trial_number": "1", "pre_actions": "1", "move": "0@3", "instance": "prb38725", "distance_to_goal": "NA", "progress": "NA", "move_number": "39", "optimal_length": "14", "subject": "A1F4N58CAX8IMK:3TS1AR6UQRM7SOIBWPBN8N9589Y7FV"}
{"meta_move": "drag_end", "rt": "1632.0", "trial_number": "1", "pre_actions": "1", "move": "1@6", "instance": "prb38725", "distance_to_goal": "NA", "progress": "NA", "move_number": "40", "optimal_length": "14", "subject": "A1F4N58CAX8IMK:3TS1AR6UQRM7SOIBWPBN8N9589Y7FV"}
{"meta_move": "drag_end", "rt": "2770.0", "trial_number": "1", "pre_actions": "1", "move": "3@11", "instance": "prb38725", "distance_to_goal": "NA", "progress": "NA", "move_number": "41", "optimal_length": "14", "subject": "A1F4N58CAX8IMK:3TS1AR6UQRM7SOIBWPBN8N9589Y7FV"}
{"meta_move": "drag_end", "rt": "903.0", "trial_number": "1", "pre_actions": "1", "move": "2@28", "instance": "prb38725", "distance_to_goal": "NA", "progress": "NA", "move_number": "42", "optimal_length": "14", "subject": "A1F4N58CAX8IMK:3TS1AR6UQRM7SOIBWPBN8N9589Y7FV"}
{"meta_move": "drag_end", "rt": "831.0", "trial_number": "1", "pre_actions": "1", "move": "0@21", "instance": "prb38725", "distance_to_goal": "NA", "progress": "NA", "move_number": "43", "optimal_length": "14", "subject": "A1F4N58CAX8IMK:3TS1AR6UQRM7SOIBWPBN8N9589Y7FV"}
{"meta_move": "drag_end", "rt": "776.0", "trial_number": "1", "pre_actions": "1", "move": "r@15", "instance": "prb38725", "distance_to_goal": "NA", "progress": "NA", "move_number": "44", "optimal_length": "14", "subject": "A1F4N58CAX8IMK:3TS1AR6UQRM7SOIBWPBN8N9589Y7FV"}
{"meta_move": "drag_end", "rt": "608.0", "trial_number": "1", "pre_actions": "1", "move": "7@2", "instance": "prb38725", "distance_to_goal": "NA", "progress": "NA", "move_number": "45", "optimal_length": "14", "subject": "A1F4N58CAX8IMK:3TS1AR6UQRM7SOIBWPBN8N9589Y7FV"}
{"meta_move": "drag_end", "rt": "792.0", "trial_number": "1", "pre_actions": "1", "move": "3@5", "instance": "prb38725", "distance_to_goal": "NA", "progress": "NA", "move_number": "46", "optimal_length": "14", "subject": "A1F4N58CAX8IMK:3TS1AR6UQRM7SOIBWPBN8N9589Y7FV"}
{"meta_move": "drag_end", "rt": "1512.0", "trial_number": "1", "pre_actions": "1", "move": "5@8", "instance": "prb38725", "distance_to_goal": "NA", "progress": "NA", "move_number": "47", "optimal_length": "14", "subject": "A1F4N58CAX8IMK:3TS1AR6UQRM7SOIBWPBN8N9589Y7FV"}
{"meta_move": "drag_end", "rt": "944.0", "trial_number": "1", "pre_actions": "1", "move": "0@21", "instance": "prb38725", "distance_to_goal": "NA", "progress": "NA", "move_number": "48", "optimal_length": "14", "subject": "A1F4N58CAX8IMK:3TS1AR6UQRM7SOIBWPBN8N9589Y7FV"}
{"meta_move": "drag_end", "rt": "328.0", "trial_number": "1", "pre_actions": "1", "move": "0@21", "instance": "prb38725", "distance_to_goal": "NA", "progress": "NA", "move_number": "48", "optimal_length": "14", "subject": "A1F4N58CAX8IMK:3TS1AR6UQRM7SOIBWPBN8N9589Y7FV"}
{"meta_move": "drag_end", "rt": "1953.0", "trial_number": "1", "pre_actions": "1", "move": "2@28", "instance": "prb38725", "distance_to_goal": "NA", "progress": "NA", "move_number": "48", "optimal_length": "14", "subject": "A1F4N58CAX8IMK:3TS1AR6UQRM7SOIBWPBN8N9589Y7FV"}
{"meta_move": "drag_end", "rt": "1696.0", "trial_number": "1", "pre_actions": "1", "move": "1@6", "instance": "prb38725", "distance_to_goal": "NA", "progress": "NA", "move_number": "48", "optimal_length": "14", "subject": "A1F4N58CAX8IMK:3TS1AR6UQRM7SOIBWPBN8N9589Y7FV"}
{"meta_move": "drag_end", "rt": "1941.0", "trial_number": "1", "pre_actions": "1", "move": "6@30", "instance": "prb38725", "distance_to_goal": "NA", "progress": "NA", "move_number": "0", "optimal_length": "14", "subject": "A1LR0VQIHQUJAM:3YW4XOSQKRTI0K0Z2YPDTDJVFABU1I"}
{"meta_move": "drag_end", "rt": "1653.0", "trial_number": "1", "pre_actions": "1", "move": "0@9", "instance": "prb38725", "distance_to_goal": "NA", "progress": "NA", "move_number": "1", "optimal_length": "14", "subject": "A1LR0VQIHQUJAM:3YW4XOSQKRTI0K0Z2YPDTDJVFABU1I"}
{"meta_move": "drag_end", "rt": "637.0", "trial_number": "1", "pre_actions": "1", "move": "2@28", "instance": "prb38725", "distance_to_goal": "NA", "progress": "NA", "move_number": "2", "optimal_length": "14", "subject": "A1LR0VQIHQUJAM:3YW4XOSQKRTI0K0Z2YPDTDJVFABU1I"}
{"meta_move": "drag_end", "rt": "506.0", "trial_number": "1", "pre_actions": "1", "move": "0@21", "instance": "prb38725", "distance_to_goal": "NA", "progress": "NA", "move_number": "3", "optimal_length": "14", "subject": "A1LR0VQIHQUJAM:3YW4XOSQKRTI0K0Z2YPDTDJVFABU1I"}
{"meta_move": "drag_end", "rt": "446.0", "trial_number": "1", "pre_actions": "1", "move": "5@20", "instance": "prb38725", "distance_to_goal": "NA", "progress": "NA", "move_number": "4", "optimal_length": "14", "subject": "A1LR0VQIHQUJAM:3YW4XOSQKRTI0K0Z2YPDTDJVFABU1I"}
{"meta_move": "drag_end", "rt": "1337.0", "trial_number": "1", "pre_actions": "1", "move": "7@3", "instance": "prb38725", "distance_to_goal": "NA", "progress": "NA", "move_number": "5", "optimal_length": "14", "subject": "A1LR0VQIHQUJAM:3YW4XOSQKRTI0K0Z2YPDTDJVFABU1I"}
{"meta_move": "drag_end", "rt": "448.0", "trial_number": "1", "pre_actions": "1", "move": "3@5", "instance": "prb38725", "distance_to_goal": "NA", "progress": "NA", "move_number": "6", "optimal_length": "14", "subject": "A1LR0VQIHQUJAM:3YW4XOSQKRTI0K0Z2YPDTDJVFABU1I"}
{"meta_move": "drag_end", "rt": "1556.0", "trial_number": "1", "pre_actions": "1", "move": "0@9", "instance": "prb38725", "distance_to_goal": "NA", "progress": "NA", "move_number": "7", "optimal_length": "14", "subject": "A1LR0VQIHQUJAM:3YW4XOSQKRTI0K0Z2YPDTDJVFABU1I"}
{"meta_move": "drag_end", "rt": "485.0", "trial_number": "1", "pre_actions": "1", "move": "5@8", "instance": "prb38725", "distance_to_goal": "NA", "progress": "NA", "move_number": "8", "optimal_length": "14", "subject": "A1LR0VQIHQUJAM:3YW4XOSQKRTI0K0Z2YPDTDJVFABU1I"}
{"meta_move": "drag_end", "rt": "672.0", "trial_number": "1", "pre_actions": "1", "move": "2@25", "instance": "prb38725", "distance_to_goal": "NA", "progress": "NA", "move_number": "9", "optimal_length": "14", "subject": "A1LR0VQIHQUJAM:3YW4XOSQKRTI0K0Z2YPDTDJVFABU1I"}
{"meta_move": "drag_end", "rt": "2208.0", "trial_number": "1", "pre_actions": "1", "move": "0@9", "instance": "prb38725", "distance_to_goal": "NA", "progress": "NA", "move_number": "10", "optimal_length": "14", "subject": "A1LR0VQIHQUJAM:3YW4XOSQKRTI0K0Z2YPDTDJVFABU1I"}
{"meta_move": "drag_end", "rt": "637.0", "trial_number": "1", "pre_actions": "1", "move": "2@28", "instance": "prb38725", "distance_to_goal": "NA", "progress": "NA", "move_number": "10", "optimal_length": "14", "subject": "A1LR0VQIHQUJAM:3YW4XOSQKRTI0K0Z2YPDTDJVFABU1I"}
{"meta_move": "drag_end", "rt": "525.0", "trial_number": "1", "pre_actions": "1", "move": "0@21", "instance": "prb38725", "distance_to_goal": "NA", "progress": "NA", "move_number": "11", "optimal_length": "14", "subject": "A1LR0VQIHQUJAM:3YW4XOSQKRTI0K0Z2YPDTDJVFABU1I"}
{"meta_move": "drag_end", "rt": "450.0", "trial_number": "1", "pre_actions": "1", "move": "5@20", "instance": "prb38725", "distance_to_goal": "NA", "progress": "NA", "move_number": "12", "optimal_length": "14", "subject": "A1LR0VQIHQUJAM:3YW4XOSQKRTI0K0Z2YPDTDJVFABU1I"}
{"meta_move": "drag_end", "rt": "595.0", "trial_number": "1", "pre_actions": "1", "move": "r@15", "instance": "prb38725", "distance_to_goal": "NA", "progress": "NA", "move_number": "13", "optimal_length": "14", "subject": "A1LR0VQIHQUJAM:3YW4XOSQKRTI0K0Z2YPDTDJVFABU1I"}
{"meta_move": "drag_end", "rt": "640.0", "trial_number": "1", "pre_actions": "1", "move": "1@0", "instance": "prb38725", "distance_to_goal": "NA", "progress": "NA", "move_number": "14", "optimal_length": "14", "subject": "A1LR0VQIHQUJAM:3YW4XOSQKRTI0K0Z2YPDTDJVFABU1I"}
{"meta_move": "drag_end", "rt": "913.0", "trial_number": "1", "pre_actions": "1", "move": "5@8", "instance": "prb38725", "distance_to_goal": "NA", "progress": "NA", "move_number": "15", "optimal_length": "14", "subject": "A1LR0VQIHQUJAM:3YW4XOSQKRTI0K0Z2YPDTDJVFABU1I"}
{"meta_move": "drag_end", "rt": "1476.0", "trial_number": "1", "pre_actions": "1", "move": "6@30", "instance": "prb38725", "distance_to_goal": "NA", "progress": "NA", "move_number": "16", "optimal_length": "14", "subject": "A1LR0VQIHQUJAM:3YW4XOSQKRTI0K0Z2YPDTDJVFABU1I"}
{"meta_move": "drag_end", "rt": "3930.0", "trial_number": "1", "pre_actions": "1", "move": "1@6", "instance": "prb38725", "distance_to_goal": "NA", "progress": "NA", "move_number": "16", "optimal_length": "14", "subject": "A1LR0VQIHQUJAM:3YW4XOSQKRTI0K0Z2YPDTDJVFABU1I"}
{"meta_move": "drag_end", "rt": "441.0", "trial_number": "1", "pre_actions": "1", "move": "4@0", "instance": "prb38725", "distance_to_goal": "NA", "progress": "NA", "move_number": "17", "optimal_length": "14", "subject": "A1LR0VQIHQUJAM:3YW4XOSQKRTI0K0Z2YPDTDJVFABU1I"}
{"meta_move": "drag_end", "rt": "434.0", "trial_number": "1", "pre_actions": "1", "move": "7@2", "instance": "prb38725", "distance_to_goal": "NA", "progress": "NA", "move_number": "18", "optimal_length": "14", "subject": "A1LR0VQIHQUJAM:3YW4XOSQKRTI0K0Z2YPDTDJVFABU1I"}
{"meta_move": "drag_end", "rt": "1365.0", "trial_number": "1", "pre_actions": "1", "move": "7@3", "instance": "prb38725", "distance_to_goal": "NA", "progress": "NA", "move_number": "19", "optimal_length": "14", "subject": "A1LR0VQIHQUJAM:3YW4XOSQKRTI0K0Z2YPDTDJVFABU1I"}
{"meta_move": "drag_end", "rt": "664.0", "trial_number": "1", "pre_actions": "1", "move": "5@2", "instance": "prb38725", "distance_to_goal": "NA", "progress": "NA", "move_number": "20", "optimal_length": "14", "subject": "A1LR0VQIHQUJAM:3YW4XOSQKRTI0K0Z2YPDTDJVFABU1I"}
{"meta_move": "drag_end", "rt": "3191.0", "trial_number": "1", "pre_actions": "1", "move": "1@18", "instance": "prb38725", "distance_to_goal": "NA", "progress": "NA", "move_number": "21", "optimal_length": "14", "subject": "A1LR0VQIHQUJAM:3YW4XOSQKRTI0K0Z2YPDTDJVFABU1I"}
{"meta_move": "drag_end", "rt": "12865.0", "trial_number": "1", "pre_actions": "1", "move": "5@8", "instance": "prb38725", "distance_to_goal": "NA", "progress": "NA", "move_number": "22", "optimal_length": "14", "subject": "A1LR0VQIHQUJAM:3YW4XOSQKRTI0K0Z2YPDTDJVFABU1I"}
{"meta_move": "drag_end", "rt": "544.0", "trial_number": "1", "pre_actions": "1", "move": "7@2", "instance": "prb38725", "distance_to_goal": "NA", "progress": "NA", "move_number": "23", "optimal_length": "14", "subject": "A1LR0VQIHQUJAM:3YW4XOSQKRTI0K0Z2YPDTDJVFABU1I"}
{"meta_move": "drag_end", "rt": "4222.0", "trial_number": "1", "pre_actions": "1", "move": "1@6", "instance": "prb38725", "distance_to_goal": "NA", "progress": "NA", "move_number": "24", "optimal_length": "14", "subject": "A1LR0VQIHQUJAM:3YW4XOSQKRTI0K0Z2YPDTDJVFABU1I"}
{"meta_move": "drag_end", "rt": "1142.0", "trial_number": "1", "pre_actions": "1", "move": "5@20", "instance": "prb38725", "distance_to_goal": "NA", "progress": "NA", "move_number": "25", "optimal_length": "14", "subject": "A1LR0VQIHQUJAM:3YW4XOSQKRTI0K0Z2YPDTDJVFABU1I"}
{"meta_move": "drag_end", "rt": "1181.0", "trial_number": "1", "pre_actions": "1", "move": "r@14", "instance": "prb38725", "distance_to_goal": "NA", "progress": "NA", "move_number": "26", "optimal_length": "14", "subject": "A1LR0VQIHQUJAM:3YW4XOSQKRTI0K0Z2YPDTDJVFABU1I"}
{"meta_move": "drag_end", "rt": "1556.0", "trial_number": "1", "pre_actions": "1", "move": "r@13", "instance": "prb38725", "distance_to_goal": "NA", "progress": "NA", "move_number": "27", "optimal_length": "14", "subject": "A1LR0VQIHQUJAM:3YW4XOSQKRTI0K0Z2YPDTDJVFABU1I"}
{"meta_move": "drag_end", "rt": "1470.0", "trial_number": "1", "pre_actions": "1", "move": "7@3", "instance": "prb38725", "distance_to_goal": "NA", "progress": "NA", "move_number": "28", "optimal_length": "14", "subject": "A1LR0VQIHQUJAM:3YW4XOSQKRTI0K0Z2YPDTDJVFABU1I"}
{"meta_move": "drag_end", "rt": "1746.0", "trial_number": "1", "pre_actions": "1", "move": "3@11", "instance": "prb38725", "distance_to_goal": "NA", "progress": "NA", "move_number": "29", "optimal_length": "14", "subject": "A1LR0VQIHQUJAM:3YW4XOSQKRTI0K0Z2YPDTDJVFABU1I"}
{"meta_move": "drag_end", "rt": "620.0", "trial_number": "1", "pre_actions": "1", "move": "7@4", "instance": "prb38725", "distance_to_goal": "NA", "progress": "NA", "move_number": "30", "optimal_length": "14", "subject": "A1LR0VQIHQUJAM:3YW4XOSQKRTI0K0Z2YPDTDJVFABU1I"}
{"meta_move": "drag_end", "rt": "659.0", "trial_number": "1", "pre_actions": "1", "move": "0@3", "instance": "prb38725", "distance_to_goal": "NA", "progress": "NA", "move_number": "31", "optimal_length": "14", "subject": "A1LR0VQIHQUJAM:3YW4XOSQKRTI0K0Z2YPDTDJVFABU1I"}
{"meta_move": "drag_end", "rt": "598.0", "trial_number": "1", "pre_actions": "1", "move": "2@27", "instance": "prb38725", "distance_to_goal": "NA", "progress": "NA", "move_number": "32", "optimal_length": "14", "subject": "A1LR0VQIHQUJAM:3YW4XOSQKRTI0K0Z2YPDTDJVFABU1I"}
{"meta_move": "drag_end", "rt": "543.0", "trial_number": "1", "pre_actions": "1", "move": "3@23", "instance": "prb38725", "distance_to_goal": "NA", "progress": "NA", "move_number": "33", "optimal_length": "14", "subject": "A1LR0VQIHQUJAM:3YW4XOSQKRTI0K0Z2YPDTDJVFABU1I"}
{"meta_move": "drag_end", "rt": "1374.0", "trial_number": "1", "pre_actions": "1", "move": "0@9", "instance": "prb38725", "distance_to_goal": "NA", "progress": "NA", "move_number": "34", "optimal_length": "14", "subject": "A1LR0VQIHQUJAM:3YW4XOSQKRTI0K0Z2YPDTDJVFABU1I"}
{"meta_move": "drag_end", "rt": "1418.0", "trial_number": "1", "pre_actions": "1", "move": "7@2", "instance": "prb38725", "distance_to_goal": "NA", "progress": "NA", "move_number": "35", "optimal_length": "14", "subject": "A1LR0VQIHQUJAM:3YW4XOSQKRTI0K0Z2YPDTDJVFABU1I"}
{"meta_move": "drag_end", "rt": "620.0", "trial_number": "1", "pre_actions": "1", "move": "3@5", "instance": "prb38725", "distance_to_goal": "NA", "progress": "NA", "move_number": "36", "optimal_length": "14", "subject": "A1LR0VQIHQUJAM:3YW4XOSQKRTI0K0Z2YPDTDJVFABU1I"}
{"meta_move": "drag_end", "rt": "1705.0", "trial_number": "1", "pre_actions": "1", "move": "2@28", "instance": "prb38725", "distance_to_goal": "NA", "progress": "NA", "move_number": "37", "optimal_length": "14", "subject": "A1LR0VQIHQUJAM:3YW4XOSQKRTI0K0Z2YPDTDJVFABU1I"}
{"meta_move": "drag_end", "rt": "639.0", "trial_number": "1", "pre_actions": "1", "move": "0@21", "instance": "prb38725", "distance_to_goal": "NA", "progress": "NA", "move_number": "38", "optimal_length": "14", "subject": "A1LR0VQIHQUJAM:3YW4XOSQKRTI0K0Z2YPDTDJVFABU1I"}
{"meta_move": "drag_end", "rt": "4320.0", "trial_number": "1", "pre_actions": "1", "move": "r@14", "instance": "prb38725", "distance_to_goal": "NA", "progress": "NA", "move_number": "39", "optimal_length": "14", "subject": "A1LR0VQIHQUJAM:3YW4XOSQKRTI0K0Z2YPDTDJVFABU1I"}
{"meta_move": "drag_end", "rt": "9044.0", "trial_number": "1", "pre_actions": "1", "move": "r@15", "instance": "prb38725", "distance_to_goal": "NA", "progress": "NA", "move_number": "40", "optimal_length": "14", "subject": "A1LR0VQIHQUJAM:3YW4XOSQKRTI0K0Z2YPDTDJVFABU1I"}
{"meta_move": "drag_end", "rt": "2766.0", "trial_number": "1", "pre_actions": "1", "move": "1@18", "instance": "prb38725", "distance_to_goal": "NA", "progress": "NA", "move_number": "41", "optimal_length": "14", "subject": "A1LR0VQIHQUJAM:3YW4XOSQKRTI0K0Z2YPDTDJVFABU1I"}
{"meta_move": "drag_end", "rt": "641.0", "trial_number": "1", "pre_actions": "1", "move": "r@12", "instance": "prb38725", "distance_to_goal": "NA", "progress": "NA", "move_number": "42", "optimal_length": "14", "subject": "A1LR0VQIHQUJAM:3YW4XOSQKRTI0K0Z2YPDTDJVFABU1I"}
{"meta_move": "drag_end", "rt": "560.0", "trial_number": "1", "pre_actions": "1", "move": "5@8", "instance": "prb38725", "distance_to_goal": "NA", "progress": "NA", "move_number": "43", "optimal_length": "14", "subject": "A1LR0VQIHQUJAM:3YW4XOSQKRTI0K0Z2YPDTDJVFABU1I"}
{"meta_move": "drag_end", "rt": "479.0", "trial_number": "1", "pre_actions": "1", "move": "0@9", "instance": "prb38725", "distance_to_goal": "NA", "progress": "NA", "move_number": "44", "optimal_length": "14", "subject": "A1LR0VQIHQUJAM:3YW4XOSQKRTI0K0Z2YPDTDJVFABU1I"}
{"meta_move": "drag_end", "rt": "663.0", "trial_number": "1", "pre_actions": "1", "move": "2@25", "instance": "prb38725", "distance_to_goal": "NA", "progress": "NA", "move_number": "45", "optimal_length": "14", "subject": "A1LR0VQIHQUJAM:3YW4XOSQKRTI0K0Z2YPDTDJVFABU1I"}
{"meta_move": "drag_end", "rt": "542.0", "trial_number": "1", "pre_actions": "1", "move": "0@21", "instance": "prb38725", "distance_to_goal": "NA", "progress": "NA", "move_number": "46", "optimal_length": "14", "subject": "A1LR0VQIHQUJAM:3YW4XOSQKRTI0K0Z2YPDTDJVFABU1I"}
{"meta_move": "drag_end", "rt": "957.0", "trial_number": "1", "pre_actions": "1", "move": "7@3", "instance": "prb38725", "distance_to_goal": "NA", "progress": "NA", "move_number": "47", "optimal_length": "14", "subject": "A1LR0VQIHQUJAM:3YW4XOSQKRTI0K0Z2YPDTDJVFABU1I"}
{"meta_move": "drag_end", "rt": "457.0", "trial_number": "1", "pre_actions": "1", "move": "5@2", "instance": "prb38725", "distance_to_goal": "NA", "progress": "NA", "move_number": "48", "optimal_length": "14", "subject": "A1LR0VQIHQUJAM:3YW4XOSQKRTI0K0Z2YPDTDJVFABU1I"}
{"meta_move": "drag_end", "rt": "6928.0", "trial_number": "1", "pre_actions": "1", "move": "0@21", "instance": "prb38725", "distance_to_goal": "NA", "progress": "NA", "move_number": "49", "optimal_length": "14", "subject": "A1LR0VQIHQUJAM:3YW4XOSQKRTI0K0Z2YPDTDJVFABU1I"}
{"meta_move": "drag_end", "rt": "720.0", "trial_number": "1", "pre_actions": "1", "move": "6@31", "instance": "prb38725", "distance_to_goal": "NA", "progress": "NA", "move_number": "49", "optimal_length": "14", "subject": "A1LR0VQIHQUJAM:3YW4XOSQKRTI0K0Z2YPDTDJVFABU1I"}
{"meta_move": "drag_end", "rt": "518.0", "trial_number": "1", "pre_actions": "1", "move": "1@24", "instance": "prb38725", "distance_to_goal": "NA", "progress": "NA", "move_number": "50", "optimal_length": "14", "subject": "A1LR0VQIHQUJAM:3YW4XOSQKRTI0K0Z2YPDTDJVFABU1I"}
{"meta_move": "drag_end", "rt": "1445.0", "trial_number": "1", "pre_actions": "1", "move": "5@8", "instance": "prb38725", "distance_to_goal": "NA", "progress": "NA", "move_number": "51", "optimal_length": "14", "subject": "A1LR0VQIHQUJAM:3YW4XOSQKRTI0K0Z2YPDTDJVFABU1I"}
