{"meta_move": "drag_end", "rt": "1439.0", "trial_number": "1", "pre_actions": "1", "move": "4@4", "instance": "prb33509", "distance_to_goal": "NA", "progress": "NA", "move_number": "0", "optimal_length": "11", "subject": "A15FXHC1CVNW31:3TS1AR6UQRM7SOIBWPBN8N9589Y7FV"}
{"meta_move": "drag_end", "rt": "1026.0", "trial_number": "1", "pre_actions": "1", "move": "7@34", "instance": "prb33509", "distance_to_goal": "NA", "progress": "NA", "move_number": "1", "optimal_length": "11", "subject": "A15FXHC1CVNW31:3TS1AR6UQRM7SOIBWPBN8N9589Y7FV"}
{"meta_move": "drag_end", "rt": "764.0", "trial_number": "1", "pre_actions": "1", "move": "1@8", "instance": "prb33509", "distance_to_goal": "NA", "progress": "NA", "move_number": "2", "optimal_length": "11", "subject": "A15FXHC1CVNW31:3TS1AR6UQRM7SOIBWPBN8N9589Y7FV"}
{"meta_move": "drag_end", "rt": "700.0", "trial_number": "1", "pre_actions": "1", "move": "6@12", "instance": "prb33509", "distance_to_goal": "NA", "progress": "NA", "move_number": "3", "optimal_length": "11", "subject": "A15FXHC1CVNW31:3TS1AR6UQRM7SOIBWPBN8N9589Y7FV"}
{"meta_move": "drag_end", "rt": "630.0", "trial_number": "1", "pre_actions": "1", "move": "5@2", "instance": "prb33509", "distance_to_goal": "NA", "progress": "NA", "move_number": "4", "optimal_length": "11", "subject": "A15FXHC1CVNW31:3TS1AR6UQRM7SOIBWPBN8N9589Y7FV"}
{"meta_move": "drag_end", "rt": "2412.0", "trial_number": "1", "pre_actions": "1", "move": "r@14", "instance": "prb33509", "distance_to_goal": "NA", "progress": "NA", "move_number": "5", "optimal_length": "11", "subject": "A15FXHC1CVNW31:3TS1AR6UQRM7SOIBWPBN8N9589Y7FV"}
{"meta_move": "drag_end", "rt": "577.0", "trial_number": "1", "pre_actions": "1", "move": "4@16", "instance": "prb33509", "distance_to_goal": "NA", "progress": "NA", "move_number": "5", "optimal_length": "11", "subject": "A15FXHC1CVNW31:3TS1AR6UQRM7SOIBWPBN8N9589Y7FV"}
{"meta_move": "drag_end", "rt": "804.0", "trial_number": "1", "pre_actions": "1", "move": "0@17", "instance": "prb33509", "distance_to_goal": "NA", "progress": "NA", "move_number": "6", "optimal_length": "11", "subject": "A15FXHC1CVNW31:3TS1AR6UQRM7SOIBWPBN8N9589Y7FV"}
{"meta_move": "drag_end", "rt": "629.0", "trial_number": "1", "pre_actions": "1", "move": "7@33", "instance": "prb33509", "distance_to_goal": "NA", "progress": "NA", "move_number": "7", "optimal_length": "11", "subject": "A15FXHC1CVNW31:3TS1AR6UQRM7SOIBWPBN8N9589Y7FV"}
{"meta_move": "drag_end", "rt": "600.0", "trial_number": "1", "pre_actions": "1", "move": "0@23", "instance": "prb33509", "distance_to_goal": "NA", "progress": "NA", "move_number": "8", "optimal_length": "11", "subject": "A15FXHC1CVNW31:3TS1AR6UQRM7SOIBWPBN8N9589Y7FV"}
{"meta_move": "drag_end", "rt": "633.0", "trial_number": "1", "pre_actions": "1", "move": "4@4", "instance": "prb33509", "distance_to_goal": "NA", "progress": "NA", "move_number": "9", "optimal_length": "11", "subject": "A15FXHC1CVNW31:3TS1AR6UQRM7SOIBWPBN8N9589Y7FV"}
{"meta_move": "drag_end", "rt": "1630.0", "trial_number": "1", "pre_actions": "1", "move": "1@6", "instance": "prb33509", "distance_to_goal": "NA", "progress": "NA", "move_number": "10", "optimal_length": "11", "subject": "A15FXHC1CVNW31:3TS1AR6UQRM7SOIBWPBN8N9589Y7FV"}
{"meta_move": "drag_end", "rt": "534.0", "trial_number": "1", "pre_actions": "1", "move": "5@0", "instance": "prb33509", "distance_to_goal": "NA", "progress": "NA", "move_number": "11", "optimal_length": "11", "subject": "A15FXHC1CVNW31:3TS1AR6UQRM7SOIBWPBN8N9589Y7FV"}
{"meta_move": "drag_end", "rt": "575.0", "trial_number": "1", "pre_actions": "1", "move": "r@13", "instance": "prb33509", "distance_to_goal": "NA", "progress": "NA", "move_number": "12", "optimal_length": "11", "subject": "A15FXHC1CVNW31:3TS1AR6UQRM7SOIBWPBN8N9589Y7FV"}
{"meta_move": "drag_end", "rt": "930.0", "trial_number": "1", "pre_actions": "1", "move": "r@14", "instance": "prb33509", "distance_to_goal": "NA", "progress": "NA", "move_number": "13", "optimal_length": "11", "subject": "A15FXHC1CVNW31:3TS1AR6UQRM7SOIBWPBN8N9589Y7FV"}
{"meta_move": "drag_end", "rt": "1413.0", "trial_number": "1", "pre_actions": "1", "move": "1@8", "instance": "prb33509", "distance_to_goal": "NA", "progress": "NA", "move_number": "14", "optimal_length": "11", "subject": "A15FXHC1CVNW31:3TS1AR6UQRM7SOIBWPBN8N9589Y7FV"}
{"meta_move": "drag_end", "rt": "1567.0", "trial_number": "1", "pre_actions": "1", "move": "5@2", "instance": "prb33509", "distance_to_goal": "NA", "progress": "NA", "move_number": "15", "optimal_length": "11", "subject": "A15FXHC1CVNW31:3TS1AR6UQRM7SOIBWPBN8N9589Y7FV"}
{"meta_move": "drag_end", "rt": "1285.0", "trial_number": "1", "pre_actions": "1", "move": "6@0", "instance": "prb33509", "distance_to_goal": "NA", "progress": "NA", "move_number": "16", "optimal_length": "11", "subject": "A15FXHC1CVNW31:3TS1AR6UQRM7SOIBWPBN8N9589Y7FV"}
{"meta_move": "drag_end", "rt": "577.0", "trial_number": "1", "pre_actions": "1", "move": "2@12", "instance": "prb33509", "distance_to_goal": "NA", "progress": "NA", "move_number": "17", "optimal_length": "11", "subject": "A15FXHC1CVNW31:3TS1AR6UQRM7SOIBWPBN8N9589Y7FV"}
{"meta_move": "drag_end", "rt": "966.0", "trial_number": "1", "pre_actions": "1", "move": "1@7", "instance": "prb33509", "distance_to_goal": "NA", "progress": "NA", "move_number": "18", "optimal_length": "11", "subject": "A15FXHC1CVNW31:3TS1AR6UQRM7SOIBWPBN8N9589Y7FV"}
{"meta_move": "drag_end", "rt": "646.0", "trial_number": "1", "pre_actions": "1", "move": "5@1", "instance": "prb33509", "distance_to_goal": "NA", "progress": "NA", "move_number": "19", "optimal_length": "11", "subject": "A15FXHC1CVNW31:3TS1AR6UQRM7SOIBWPBN8N9589Y7FV"}
{"meta_move": "drag_end", "rt": "923.0", "trial_number": "1", "pre_actions": "1", "move": "1@8", "instance": "prb33509", "distance_to_goal": "NA", "progress": "NA", "move_number": "20", "optimal_length": "11", "subject": "A15FXHC1CVNW31:3TS1AR6UQRM7SOIBWPBN8N9589Y7FV"}
{"meta_move": "drag_end", "rt": "505.0", "trial_number": "1", "pre_actions": "1", "move": "4@16", "instance": "prb33509", "distance_to_goal": "NA", "progress": "NA", "move_number": "21", "optimal_length": "11", "subject": "A15FXHC1CVNW31:3TS1AR6UQRM7SOIBWPBN8N9589Y7FV"}
{"meta_move": "drag_end", "rt": "510.0", "trial_number": "1", "pre_actions": "1", "move": "1@9", "instance": "prb33509", "distance_to_goal": "NA", "progress": "NA", "move_number": "22", "optimal_length": "11", "subject": "A15FXHC1CVNW31:3TS1AR6UQRM7SOIBWPBN8N9589Y7FV"}
{"meta_move": "drag_end", "rt": "541.0", "trial_number": "1", "pre_actions": "1", "move": "5@4", "instance": "prb33509", "distance_to_goal": "NA", "progress": "NA", "move_number": "23", "optimal_length": "11", "subject": "A15FXHC1CVNW31:3TS1AR6UQRM7SOIBWPBN8N9589Y7FV"}
{"meta_move": "drag_end", "rt": "667.0", "trial_number": "1", "pre_actions": "1", "move": "r@13", "instance": "prb33509", "distance_to_goal": "NA", "progress": "NA", "move_number": "24", "optimal_length": "11", "subject": "A15FXHC1CVNW31:3TS1AR6UQRM7SOIBWPBN8N9589Y7FV"}
{"meta_move": "drag_end", "rt": "842.0", "trial_number": "1", "pre_actions": "1", "move": "r@14", "instance": "prb33509", "distance_to_goal": "NA", "progress": "NA", "move_number": "25", "optimal_length": "11", "subject": "A15FXHC1CVNW31:3TS1AR6UQRM7SOIBWPBN8N9589Y7FV"}
{"meta_move": "drag_end", "rt": "637.0", "trial_number": "1", "pre_actions": "1", "move": "1@10", "instance": "prb33509", "distance_to_goal": "NA", "progress": "NA", "move_number": "26", "optimal_length": "11", "subject": "A15FXHC1CVNW31:3TS1AR6UQRM7SOIBWPBN8N9589Y7FV"}
{"meta_move": "drag_end", "rt": "780.0", "trial_number": "1", "pre_actions": "1", "move": "5@1", "instance": "prb33509", "distance_to_goal": "NA", "progress": "NA", "move_number": "27", "optimal_length": "11", "subject": "A15FXHC1CVNW31:3TS1AR6UQRM7SOIBWPBN8N9589Y7FV"}
{"meta_move": "drag_end", "rt": "775.0", "trial_number": "1", "pre_actions": "1", "move": "1@7", "instance": "prb33509", "distance_to_goal": "NA", "progress": "NA", "move_number": "28", "optimal_length": "11", "subject": "A15FXHC1CVNW31:3TS1AR6UQRM7SOIBWPBN8N9589Y7FV"}
{"meta_move": "drag_end", "rt": "1054.0", "trial_number": "1", "pre_actions": "1", "move": "4@4", "instance": "prb33509", "distance_to_goal": "NA", "progress": "NA", "move_number": "29", "optimal_length": "11", "subject": "A15FXHC1CVNW31:3TS1AR6UQRM7SOIBWPBN8N9589Y7FV"}
{"meta_move": "drag_end", "rt": "1042.0", "trial_number": "1", "pre_actions": "1", "move": "4@16", "instance": "prb33509", "distance_to_goal": "NA", "progress": "NA", "move_number": "30", "optimal_length": "11", "subject": "A15FXHC1CVNW31:3TS1AR6UQRM7SOIBWPBN8N9589Y7FV"}
{"meta_move": "drag_end", "rt": "1796.0", "trial_number": "1", "pre_actions": "1", "move": "1@10", "instance": "prb33509", "distance_to_goal": "NA", "progress": "NA", "move_number": "31", "optimal_length": "11", "subject": "A15FXHC1CVNW31:3TS1AR6UQRM7SOIBWPBN8N9589Y7FV"}
{"meta_move": "drag_end", "rt": "598.0", "trial_number": "1", "pre_actions": "1", "move": "5@4", "instance": "prb33509", "distance_to_goal": "NA", "progress": "NA", "move_number": "32", "optimal_length": "11", "subject": "A15FXHC1CVNW31:3TS1AR6UQRM7SOIBWPBN8N9589Y7FV"}
{"meta_move": "drag_end", "rt": "1078.0", "trial_number": "1", "pre_actions": "1", "move": "2@24", "instance": "prb33509", "distance_to_goal": "NA", "progress": "NA", "move_number": "33", "optimal_length": "11", "subject": "A15FXHC1CVNW31:3TS1AR6UQRM7SOIBWPBN8N9589Y7FV"}
{"meta_move": "drag_end", "rt": "522.0", "trial_number": "1", "pre_actions": "1", "move": "r@12", "instance": "prb33509", "distance_to_goal": "NA", "progress": "NA", "move_number": "34", "optimal_length": "11", "subject": "A15FXHC1CVNW31:3TS1AR6UQRM7SOIBWPBN8N9589Y7FV"}
{"meta_move": "drag_end", "rt": "765.0", "trial_number": "1", "pre_actions": "1", "move": "3@2", "instance": "prb33509", "distance_to_goal": "NA", "progress": "NA", "move_number": "35", "optimal_length": "11", "subject": "A15FXHC1CVNW31:3TS1AR6UQRM7SOIBWPBN8N9589Y7FV"}
{"meta_move": "drag_end", "rt": "1035.0", "trial_number": "1", "pre_actions": "1", "move": "7@31", "instance": "prb33509", "distance_to_goal": "NA", "progress": "NA", "move_number": "36", "optimal_length": "11", "subject": "A15FXHC1CVNW31:3TS1AR6UQRM7SOIBWPBN8N9589Y7FV"}
{"meta_move": "drag_end", "rt": "756.0", "trial_number": "1", "pre_actions": "1", "move": "2@18", "instance": "prb33509", "distance_to_goal": "NA", "progress": "NA", "move_number": "37", "optimal_length": "11", "subject": "A15FXHC1CVNW31:3TS1AR6UQRM7SOIBWPBN8N9589Y7FV"}
{"meta_move": "drag_end", "rt": "568.0", "trial_number": "1", "pre_actions": "1", "move": "7@30", "instance": "prb33509", "distance_to_goal": "NA", "progress": "NA", "move_number": "38", "optimal_length": "11", "subject": "A15FXHC1CVNW31:3TS1AR6UQRM7SOIBWPBN8N9589Y7FV"}
{"meta_move": "drag_end", "rt": "540.0", "trial_number": "1", "pre_actions": "1", "move": "3@20", "instance": "prb33509", "distance_to_goal": "NA", "progress": "NA", "move_number": "39", "optimal_length": "11", "subject": "A15FXHC1CVNW31:3TS1AR6UQRM7SOIBWPBN8N9589Y7FV"}
{"meta_move": "drag_end", "rt": "616.0", "trial_number": "1", "pre_actions": "1", "move": "r@14", "instance": "prb33509", "distance_to_goal": "NA", "progress": "NA", "move_number": "40", "optimal_length": "11", "subject": "A15FXHC1CVNW31:3TS1AR6UQRM7SOIBWPBN8N9589Y7FV"}
{"meta_move": "drag_end", "rt": "424.0", "trial_number": "1", "pre_actions": "1", "move": "4@22", "instance": "prb33509", "distance_to_goal": "NA", "progress": "NA", "move_number": "41", "optimal_length": "11", "subject": "A15FXHC1CVNW31:3TS1AR6UQRM7SOIBWPBN8N9589Y7FV"}
{"meta_move": "win", "rt": "521.0", "trial_number": "1", "pre_actions": "1", "move": "r@14", "instance": "prb33509", "distance_to_goal": "1", "progress": "NA", "move_number": "42", "optimal_length": "11", "subject": "A15FXHC1CVNW31:3TS1AR6UQRM7SOIBWPBN8N9589Y7FV"}
{"meta_move": "drag_end", "rt": "79.0", "trial_number": "0", "pre_actions": "0", "move": "r@16", "instance": "prb33509", "distance_to_goal": "NA", "progress": "NA", "move_number": "42", "optimal_length": "11", "subject": "A15FXHC1CVNW31:3TS1AR6UQRM7SOIBWPBN8N9589Y7FV"}
{"meta_move": "drag_end", "rt": "14722.0", "trial_number": "1", "pre_actions": "1", "move": "0@23", "instance": "prb33509", "distance_to_goal": "NA", "progress": "NA", "move_number": "0", "optimal_length": "11", "subject": "A18QU0YQB6Q8DF:3VE8AYVF8N5BS2NU6U3TMN50JMNF8V"}
{"meta_move": "drag_end", "rt": "1860.0", "trial_number": "1", "pre_actions": "1", "move": "4@16", "instance": "prb33509", "distance_to_goal": "NA", "progress": "NA", "move_number": "1", "optimal_length": "11", "subject": "A18QU0YQB6Q8DF:3VE8AYVF8N5BS2NU6U3TMN50JMNF8V"}
{"meta_move": "drag_end", "rt": "1921.0", "trial_number": "1", "pre_actions": "1", "move": "4@4", "instance": "prb33509", "distance_to_goal": "NA", "progress": "NA", "move_number": "1", "optimal_length": "11", "subject": "A18QU0YQB6Q8DF:3VE8AYVF8N5BS2NU6U3TMN50JMNF8V"}
{"meta_move": "drag_end", "rt": "1129.0", "trial_number": "1", "pre_actions": "1", "move": "r@13", "instance": "prb33509", "distance_to_goal": "NA", "progress": "NA", "move_number": "2", "optimal_length": "11", "subject": "A18QU0YQB6Q8DF:3VE8AYVF8N5BS2NU6U3TMN50JMNF8V"}
{"meta_move": "drag_end", "rt": "2333.0", "trial_number": "1", "pre_actions": "1", "move": "2@24", "instance": "prb33509", "distance_to_goal": "NA", "progress": "NA", "move_number": "3", "optimal_length": "11", "subject": "A18QU0YQB6Q8DF:3VE8AYVF8N5BS2NU6U3TMN50JMNF8V"}
{"meta_move": "drag_end", "rt": "1424.0", "trial_number": "1", "pre_actions": "1", "move": "4@16", "instance": "prb33509", "distance_to_goal": "NA", "progress": "NA", "move_number": "3", "optimal_length": "11", "subject": "A18QU0YQB6Q8DF:3VE8AYVF8N5BS2NU6U3TMN50JMNF8V"}
{"meta_move": "drag_end", "rt": "1796.0", "trial_number": "1", "pre_actions": "1", "move": "0@11", "instance": "prb33509", "distance_to_goal": "NA", "progress": "NA", "move_number": "4", "optimal_length": "11", "subject": "A18QU0YQB6Q8DF:3VE8AYVF8N5BS2NU6U3TMN50JMNF8V"}
{"meta_move": "drag_end", "rt": "1277.0", "trial_number": "1", "pre_actions": "1", "move": "7@34", "instance": "prb33509", "distance_to_goal": "NA", "progress": "NA", "move_number": "5", "optimal_length": "11", "subject": "A18QU0YQB6Q8DF:3VE8AYVF8N5BS2NU6U3TMN50JMNF8V"}
{"meta_move": "drag_end", "rt": "2326.0", "trial_number": "1", "pre_actions": "1", "move": "0@17", "instance": "prb33509", "distance_to_goal": "NA", "progress": "NA", "move_number": "6", "optimal_length": "11", "subject": "A18QU0YQB6Q8DF:3VE8AYVF8N5BS2NU6U3TMN50JMNF8V"}
{"meta_move": "drag_end", "rt": "3134.0", "trial_number": "1", "pre_actions": "1", "move": "1@10", "instance": "prb33509", "distance_to_goal": "NA", "progress": "NA", "move_number": "7", "optimal_length": "11", "subject": "A18QU0YQB6Q8DF:3VE8AYVF8N5BS2NU6U3TMN50JMNF8V"}
{"meta_move": "drag_end", "rt": "1970.0", "trial_number": "1", "pre_actions": "1", "move": "r@14", "instance": "prb33509", "distance_to_goal": "NA", "progress": "NA", "move_number": "8", "optimal_length": "11", "subject": "A18QU0YQB6Q8DF:3VE8AYVF8N5BS2NU6U3TMN50JMNF8V"}
{"meta_move": "drag_end", "rt": "2395.0", "trial_number": "1", "pre_actions": "1", "move": "6@6", "instance": "prb33509", "distance_to_goal": "NA", "progress": "NA", "move_number": "9", "optimal_length": "11", "subject": "A18QU0YQB6Q8DF:3VE8AYVF8N5BS2NU6U3TMN50JMNF8V"}
{"meta_move": "drag_end", "rt": "1601.0", "trial_number": "1", "pre_actions": "1", "move": "5@4", "instance": "prb33509", "distance_to_goal": "NA", "progress": "NA", "move_number": "9", "optimal_length": "11", "subject": "A18QU0YQB6Q8DF:3VE8AYVF8N5BS2NU6U3TMN50JMNF8V"}
{"meta_move": "drag_end", "rt": "1455.0", "trial_number": "1", "pre_actions": "1", "move": "6@0", "instance": "prb33509", "distance_to_goal": "NA", "progress": "NA", "move_number": "10", "optimal_length": "11", "subject": "A18QU0YQB6Q8DF:3VE8AYVF8N5BS2NU6U3TMN50JMNF8V"}
{"meta_move": "drag_end", "rt": "2072.0", "trial_number": "1", "pre_actions": "1", "move": "2@12", "instance": "prb33509", "distance_to_goal": "NA", "progress": "NA", "move_number": "11", "optimal_length": "11", "subject": "A18QU0YQB6Q8DF:3VE8AYVF8N5BS2NU6U3TMN50JMNF8V"}
{"meta_move": "drag_end", "rt": "1516.0", "trial_number": "1", "pre_actions": "1", "move": "2@24", "instance": "prb33509", "distance_to_goal": "NA", "progress": "NA", "move_number": "12", "optimal_length": "11", "subject": "A18QU0YQB6Q8DF:3VE8AYVF8N5BS2NU6U3TMN50JMNF8V"}
{"meta_move": "drag_end", "rt": "1004.0", "trial_number": "1", "pre_actions": "1", "move": "r@12", "instance": "prb33509", "distance_to_goal": "NA", "progress": "NA", "move_number": "13", "optimal_length": "11", "subject": "A18QU0YQB6Q8DF:3VE8AYVF8N5BS2NU6U3TMN50JMNF8V"}
{"meta_move": "drag_end", "rt": "2567.0", "trial_number": "1", "pre_actions": "1", "move": "3@20", "instance": "prb33509", "distance_to_goal": "NA", "progress": "NA", "move_number": "14", "optimal_length": "11", "subject": "A18QU0YQB6Q8DF:3VE8AYVF8N5BS2NU6U3TMN50JMNF8V"}
{"meta_move": "drag_end", "rt": "3438.0", "trial_number": "1", "pre_actions": "1", "move": "5@1", "instance": "prb33509", "distance_to_goal": "NA", "progress": "NA", "move_number": "14", "optimal_length": "11", "subject": "A18QU0YQB6Q8DF:3VE8AYVF8N5BS2NU6U3TMN50JMNF8V"}
{"meta_move": "drag_end", "rt": "1165.0", "trial_number": "1", "pre_actions": "1", "move": "1@7", "instance": "prb33509", "distance_to_goal": "NA", "progress": "NA", "move_number": "15", "optimal_length": "11", "subject": "A18QU0YQB6Q8DF:3VE8AYVF8N5BS2NU6U3TMN50JMNF8V"}
{"meta_move": "drag_end", "rt": "3503.0", "trial_number": "1", "pre_actions": "1", "move": "4@4", "instance": "prb33509", "distance_to_goal": "NA", "progress": "NA", "move_number": "16", "optimal_length": "11", "subject": "A18QU0YQB6Q8DF:3VE8AYVF8N5BS2NU6U3TMN50JMNF8V"}
{"meta_move": "drag_end", "rt": "2278.0", "trial_number": "1", "pre_actions": "1", "move": "0@5", "instance": "prb33509", "distance_to_goal": "NA", "progress": "NA", "move_number": "17", "optimal_length": "11", "subject": "A18QU0YQB6Q8DF:3VE8AYVF8N5BS2NU6U3TMN50JMNF8V"}
{"meta_move": "drag_end", "rt": "3026.0", "trial_number": "2", "pre_actions": "1", "move": "6@12", "instance": "prb33509", "distance_to_goal": "NA", "progress": "NA", "move_number": "0", "optimal_length": "11", "subject": "A18QU0YQB6Q8DF:3VE8AYVF8N5BS2NU6U3TMN50JMNF8V"}
{"meta_move": "drag_end", "rt": "1596.0", "trial_number": "2", "pre_actions": "1", "move": "1@6", "instance": "prb33509", "distance_to_goal": "NA", "progress": "NA", "move_number": "1", "optimal_length": "11", "subject": "A18QU0YQB6Q8DF:3VE8AYVF8N5BS2NU6U3TMN50JMNF8V"}
{"meta_move": "drag_end", "rt": "2038.0", "trial_number": "2", "pre_actions": "1", "move": "r@14", "instance": "prb33509", "distance_to_goal": "NA", "progress": "NA", "move_number": "2", "optimal_length": "11", "subject": "A18QU0YQB6Q8DF:3VE8AYVF8N5BS2NU6U3TMN50JMNF8V"}
{"meta_move": "drag_end", "rt": "1370.0", "trial_number": "2", "pre_actions": "1", "move": "r@13", "instance": "prb33509", "distance_to_goal": "NA", "progress": "NA", "move_number": "2", "optimal_length": "11", "subject": "A18QU0YQB6Q8DF:3VE8AYVF8N5BS2NU6U3TMN50JMNF8V"}
{"meta_move": "drag_end", "rt": "1057.0", "trial_number": "2", "pre_actions": "1", "move": "r@14", "instance": "prb33509", "distance_to_goal": "NA", "progress": "NA", "move_number": "3", "optimal_length": "11", "subject": "A18QU0YQB6Q8DF:3VE8AYVF8N5BS2NU6U3TMN50JMNF8V"}
{"meta_move": "drag_end", "rt": "2491.0", "trial_number": "2", "pre_actions": "1", "move": "4@16", "instance": "prb33509", "distance_to_goal": "NA", "progress": "NA", "move_number": "4", "optimal_length": "11", "subject": "A18QU0YQB6Q8DF:3VE8AYVF8N5BS2NU6U3TMN50JMNF8V"}
{"meta_move": "drag_end", "rt": "923.0", "trial_number": "2", "pre_actions": "1", "move": "7@34", "instance": "prb33509", "distance_to_goal": "NA", "progress": "NA", "move_number": "4", "optimal_length": "11", "subject": "A18QU0YQB6Q8DF:3VE8AYVF8N5BS2NU6U3TMN50JMNF8V"}
{"meta_move": "drag_end", "rt": "3523.0", "trial_number": "2", "pre_actions": "1", "move": "r@13", "instance": "prb33509", "distance_to_goal": "NA", "progress": "NA", "move_number": "5", "optimal_length": "11", "subject": "A18QU0YQB6Q8DF:3VE8AYVF8N5BS2NU6U3TMN50JMNF8V"}
{"meta_move": "drag_end", "rt": "1696.0", "trial_number": "2", "pre_actions": "1", "move": "0@17", "instance": "prb33509", "distance_to_goal": "NA", "progress": "NA", "move_number": "6", "optimal_length": "11", "subject": "A18QU0YQB6Q8DF:3VE8AYVF8N5BS2NU6U3TMN50JMNF8V"}
{"meta_move": "drag_end", "rt": "2056.0", "trial_number": "2", "pre_actions": "1", "move": "4@16", "instance": "prb33509", "distance_to_goal": "NA", "progress": "NA", "move_number": "7", "optimal_length": "11", "subject": "A18QU0YQB6Q8DF:3VE8AYVF8N5BS2NU6U3TMN50JMNF8V"}
{"meta_move": "drag_end", "rt": "1339.0", "trial_number": "2", "pre_actions": "1", "move": "r@14", "instance": "prb33509", "distance_to_goal": "NA", "progress": "NA", "move_number": "7", "optimal_length": "11", "subject": "A18QU0YQB6Q8DF:3VE8AYVF8N5BS2NU6U3TMN50JMNF8V"}
{"meta_move": "drag_end", "rt": "3071.0", "trial_number": "2", "pre_actions": "1", "move": "r@13", "instance": "prb33509", "distance_to_goal": "NA", "progress": "NA", "move_number": "8", "optimal_length": "11", "subject": "A18QU0YQB6Q8DF:3VE8AYVF8N5BS2NU6U3TMN50JMNF8V"}
{"meta_move": "drag_end", "rt": "5430.0", "trial_number": "3", "pre_actions": "1", "move": "7@33", "instance": "prb33509", "distance_to_goal": "NA", "progress": "NA", "move_number": "0", "optimal_length": "11", "subject": "A18QU0YQB6Q8DF:3VE8AYVF8N5BS2NU6U3TMN50JMNF8V"}
{"meta_move": "drag_end", "rt": "1213.0", "trial_number": "3", "pre_actions": "1", "move": "2@18", "instance": "prb33509", "distance_to_goal": "NA", "progress": "NA", "move_number": "0", "optimal_length": "11", "subject": "A18QU0YQB6Q8DF:3VE8AYVF8N5BS2NU6U3TMN50JMNF8V"}
{"meta_move": "drag_end", "rt": "2203.0", "trial_number": "3", "pre_actions": "1", "move": "3@20", "instance": "prb33509", "distance_to_goal": "NA", "progress": "NA", "move_number": "1", "optimal_length": "11", "subject": "A18QU0YQB6Q8DF:3VE8AYVF8N5BS2NU6U3TMN50JMNF8V"}
{"meta_move": "drag_end", "rt": "1494.0", "trial_number": "3", "pre_actions": "1", "move": "1@9", "instance": "prb33509", "distance_to_goal": "NA", "progress": "NA", "move_number": "1", "optimal_length": "11", "subject": "A18QU0YQB6Q8DF:3VE8AYVF8N5BS2NU6U3TMN50JMNF8V"}
{"meta_move": "drag_end", "rt": "4830.0", "trial_number": "3", "pre_actions": "1", "move": "0@23", "instance": "prb33509", "distance_to_goal": "NA", "progress": "NA", "move_number": "2", "optimal_length": "11", "subject": "A18QU0YQB6Q8DF:3VE8AYVF8N5BS2NU6U3TMN50JMNF8V"}
{"meta_move": "drag_end", "rt": "1096.0", "trial_number": "3", "pre_actions": "1", "move": "1@10", "instance": "prb33509", "distance_to_goal": "NA", "progress": "NA", "move_number": "3", "optimal_length": "11", "subject": "A18QU0YQB6Q8DF:3VE8AYVF8N5BS2NU6U3TMN50JMNF8V"}
{"meta_move": "drag_end", "rt": "1153.0", "trial_number": "3", "pre_actions": "1", "move": "r@14", "instance": "prb33509", "distance_to_goal": "NA", "progress": "NA", "move_number": "4", "optimal_length": "11", "subject": "A18QU0YQB6Q8DF:3VE8AYVF8N5BS2NU6U3TMN50JMNF8V"}
{"meta_move": "drag_end", "rt": "925.0", "trial_number": "3", "pre_actions": "1", "move": "r@13", "instance": "prb33509", "distance_to_goal": "NA", "progress": "NA", "move_number": "4", "optimal_length": "11", "subject": "A18QU0YQB6Q8DF:3VE8AYVF8N5BS2NU6U3TMN50JMNF8V"}
{"meta_move": "drag_end", "rt": "1268.0", "trial_number": "3", "pre_actions": "1", "move": "4@16", "instance": "prb33509", "distance_to_goal": "NA", "progress": "NA", "move_number": "5", "optimal_length": "11", "subject": "A18QU0YQB6Q8DF:3VE8AYVF8N5BS2NU6U3TMN50JMNF8V"}
{"meta_move": "drag_end", "rt": "1144.0", "trial_number": "3", "pre_actions": "1", "move": "1@7", "instance": "prb33509", "distance_to_goal": "NA", "progress": "NA", "move_number": "5", "optimal_length": "11", "subject": "A18QU0YQB6Q8DF:3VE8AYVF8N5BS2NU6U3TMN50JMNF8V"}
{"meta_move": "drag_end", "rt": "1820.0", "trial_number": "3", "pre_actions": "1", "move": "4@4", "instance": "prb33509", "distance_to_goal": "NA", "progress": "NA", "move_number": "6", "optimal_length": "11", "subject": "A18QU0YQB6Q8DF:3VE8AYVF8N5BS2NU6U3TMN50JMNF8V"}
{"meta_move": "drag_end", "rt": "2591.0", "trial_number": "3", "pre_actions": "1", "move": "0@5", "instance": "prb33509", "distance_to_goal": "NA", "progress": "NA", "move_number": "7", "optimal_length": "11", "subject": "A18QU0YQB6Q8DF:3VE8AYVF8N5BS2NU6U3TMN50JMNF8V"}
{"meta_move": "drag_end", "rt": "1220.0", "trial_number": "3", "pre_actions": "1", "move": "7@34", "instance": "prb33509", "distance_to_goal": "NA", "progress": "NA", "move_number": "8", "optimal_length": "11", "subject": "A18QU0YQB6Q8DF:3VE8AYVF8N5BS2NU6U3TMN50JMNF8V"}
{"meta_move": "drag_end", "rt": "3859.0", "trial_number": "1", "pre_actions": "1", "move": "1@9", "instance": "prb33509", "distance_to_goal": "NA", "progress": "NA", "move_number": "0", "optimal_length": "11", "subject": "A191V7PT3DQKDP:3PMBY0YE28B43VMUKKJ6EDF85RV9C8"}
{"meta_move": "drag_end", "rt": "673.0", "trial_number": "1", "pre_actions": "1", "move": "r@13", "instance": "prb33509", "distance_to_goal": "NA", "progress": "NA", "move_number": "1", "optimal_length": "11", "subject": "A191V7PT3DQKDP:3PMBY0YE28B43VMUKKJ6EDF85RV9C8"}
{"meta_move": "drag_end", "rt": "663.0", "trial_number": "1", "pre_actions": "1", "move": "1@8", "instance": "prb33509", "distance_to_goal": "NA", "progress": "NA", "move_number": "2", "optimal_length": "11", "subject": "A191V7PT3DQKDP:3PMBY0YE28B43VMUKKJ6EDF85RV9C8"}
{"meta_move": "drag_end", "rt": "856.0", "trial_number": "1", "pre_actions": "1", "move": "4@4", "instance": "prb33509", "distance_to_goal": "NA", "progress": "NA", "move_number": "3", "optimal_length": "11", "subject": "A191V7PT3DQKDP:3PMBY0YE28B43VMUKKJ6EDF85RV9C8"}
{"meta_move": "drag_end", "rt": "984.0", "trial_number": "1", "pre_actions": "1", "move": "7@34", "instance": "prb33509", "distance_to_goal": "NA", "progress": "NA", "move_number": "4", "optimal_length": "11", "subject": "A191V7PT3DQKDP:3PMBY0YE28B43VMUKKJ6EDF85RV9C8"}
{"meta_move": "drag_end", "rt": "1464.0", "trial_number": "1", "pre_actions": "1", "move": "1@7", "instance": "prb33509", "distance_to_goal": "NA", "progress": "NA", "move_number": "5", "optimal_length": "11", "subject": "A191V7PT3DQKDP:3PMBY0YE28B43VMUKKJ6EDF85RV9C8"}
{"meta_move": "drag_end", "rt": "584.0", "trial_number": "1", "pre_actions": "1", "move": "5@2", "instance": "prb33509", "distance_to_goal": "NA", "progress": "NA", "move_number": "6", "optimal_length": "11", "subject": "A191V7PT3DQKDP:3PMBY0YE28B43VMUKKJ6EDF85RV9C8"}
{"meta_move": "drag_end", "rt": "786.0", "trial_number": "1", "pre_actions": "1", "move": "6@0", "instance": "prb33509", "distance_to_goal": "NA", "progress": "NA", "move_number": "7", "optimal_length": "11", "subject": "A191V7PT3DQKDP:3PMBY0YE28B43VMUKKJ6EDF85RV9C8"}
{"meta_move": "drag_end", "rt": "607.0", "trial_number": "1", "pre_actions": "1", "move": "r@12", "instance": "prb33509", "distance_to_goal": "NA", "progress": "NA", "move_number": "8", "optimal_length": "11", "subject": "A191V7PT3DQKDP:3PMBY0YE28B43VMUKKJ6EDF85RV9C8"}
{"meta_move": "drag_end", "rt": "1216.0", "trial_number": "1", "pre_actions": "1", "move": "3@14", "instance": "prb33509", "distance_to_goal": "NA", "progress": "NA", "move_number": "9", "optimal_length": "11", "subject": "A191V7PT3DQKDP:3PMBY0YE28B43VMUKKJ6EDF85RV9C8"}
{"meta_move": "drag_end", "rt": "783.0", "trial_number": "1", "pre_actions": "1", "move": "1@8", "instance": "prb33509", "distance_to_goal": "NA", "progress": "NA", "move_number": "10", "optimal_length": "11", "subject": "A191V7PT3DQKDP:3PMBY0YE28B43VMUKKJ6EDF85RV9C8"}
{"meta_move": "drag_end", "rt": "552.0", "trial_number": "1", "pre_actions": "1", "move": "5@1", "instance": "prb33509", "distance_to_goal": "NA", "progress": "NA", "move_number": "11", "optimal_length": "11", "subject": "A191V7PT3DQKDP:3PMBY0YE28B43VMUKKJ6EDF85RV9C8"}
{"meta_move": "drag_end", "rt": "992.0", "trial_number": "1", "pre_actions": "1", "move": "1@7", "instance": "prb33509", "distance_to_goal": "NA", "progress": "NA", "move_number": "12", "optimal_length": "11", "subject": "A191V7PT3DQKDP:3PMBY0YE28B43VMUKKJ6EDF85RV9C8"}
{"meta_move": "drag_end", "rt": "2240.0", "trial_number": "1", "pre_actions": "1", "move": "3@20", "instance": "prb33509", "distance_to_goal": "NA", "progress": "NA", "move_number": "13", "optimal_length": "11", "subject": "A191V7PT3DQKDP:3PMBY0YE28B43VMUKKJ6EDF85RV9C8"}
{"meta_move": "drag_end", "rt": "728.0", "trial_number": "1", "pre_actions": "1", "move": "r@14", "instance": "prb33509", "distance_to_goal": "NA", "progress": "NA", "move_number": "14", "optimal_length": "11", "subject": "A191V7PT3DQKDP:3PMBY0YE28B43VMUKKJ6EDF85RV9C8"}
{"meta_move": "drag_end", "rt": "1783.0", "trial_number": "1", "pre_actions": "1", "move": "6@12", "instance": "prb33509", "distance_to_goal": "NA", "progress": "NA", "move_number": "15", "optimal_length": "11", "subject": "A191V7PT3DQKDP:3PMBY0YE28B43VMUKKJ6EDF85RV9C8"}
{"meta_move": "drag_end", "rt": "2056.0", "trial_number": "1", "pre_actions": "1", "move": "5@0", "instance": "prb33509", "distance_to_goal": "NA", "progress": "NA", "move_number": "16", "optimal_length": "11", "subject": "A191V7PT3DQKDP:3PMBY0YE28B43VMUKKJ6EDF85RV9C8"}
{"meta_move": "drag_end", "rt": "680.0", "trial_number": "1", "pre_actions": "1", "move": "1@6", "instance": "prb33509", "distance_to_goal": "NA", "progress": "NA", "move_number": "17", "optimal_length": "11", "subject": "A191V7PT3DQKDP:3PMBY0YE28B43VMUKKJ6EDF85RV9C8"}
{"meta_move": "drag_end", "rt": "1217.0", "trial_number": "1", "pre_actions": "1", "move": "r@13", "instance": "prb33509", "distance_to_goal": "NA", "progress": "NA", "move_number": "18", "optimal_length": "11", "subject": "A191V7PT3DQKDP:3PMBY0YE28B43VMUKKJ6EDF85RV9C8"}
{"meta_move": "drag_end", "rt": "1647.0", "trial_number": "1", "pre_actions": "1", "move": "7@33", "instance": "prb33509", "distance_to_goal": "NA", "progress": "NA", "move_number": "19", "optimal_length": "11", "subject": "A191V7PT3DQKDP:3PMBY0YE28B43VMUKKJ6EDF85RV9C8"}
{"meta_move": "drag_end", "rt": "2544.0", "trial_number": "1", "pre_actions": "1", "move": "r@14", "instance": "prb33509", "distance_to_goal": "NA", "progress": "NA", "move_number": "20", "optimal_length": "11", "subject": "A191V7PT3DQKDP:3PMBY0YE28B43VMUKKJ6EDF85RV9C8"}
{"meta_move": "drag_end", "rt": "1848.0", "trial_number": "1", "pre_actions": "1", "move": "4@16", "instance": "prb33509", "distance_to_goal": "NA", "progress": "NA", "move_number": "21", "optimal_length": "11", "subject": "A191V7PT3DQKDP:3PMBY0YE28B43VMUKKJ6EDF85RV9C8"}
{"meta_move": "drag_end", "rt": "2576.0", "trial_number": "1", "pre_actions": "1", "move": "r@13", "instance": "prb33509", "distance_to_goal": "NA", "progress": "NA", "move_number": "22", "optimal_length": "11", "subject": "A191V7PT3DQKDP:3PMBY0YE28B43VMUKKJ6EDF85RV9C8"}
{"meta_move": "drag_end", "rt": "1200.0", "trial_number": "1", "pre_actions": "1", "move": "4@4", "instance": "prb33509", "distance_to_goal": "NA", "progress": "NA", "move_number": "23", "optimal_length": "11", "subject": "A191V7PT3DQKDP:3PMBY0YE28B43VMUKKJ6EDF85RV9C8"}
{"meta_move": "drag_end", "rt": "688.0", "trial_number": "1", "pre_actions": "1", "move": "7@34", "instance": "prb33509", "distance_to_goal": "NA", "progress": "NA", "move_number": "24", "optimal_length": "11", "subject": "A191V7PT3DQKDP:3PMBY0YE28B43VMUKKJ6EDF85RV9C8"}
{"meta_move": "drag_end", "rt": "1504.0", "trial_number": "1", "pre_actions": "1", "move": "1@8", "instance": "prb33509", "distance_to_goal": "NA", "progress": "NA", "move_number": "25", "optimal_length": "11", "subject": "A191V7PT3DQKDP:3PMBY0YE28B43VMUKKJ6EDF85RV9C8"}
{"meta_move": "drag_end", "rt": "856.0", "trial_number": "1", "pre_actions": "1", "move": "5@2", "instance": "prb33509", "distance_to_goal": "NA", "progress": "NA", "move_number": "26", "optimal_length": "11", "subject": "A191V7PT3DQKDP:3PMBY0YE28B43VMUKKJ6EDF85RV9C8"}
{"meta_move": "drag_end", "rt": "833.0", "trial_number": "1", "pre_actions": "1", "move": "6@0", "instance": "prb33509", "distance_to_goal": "NA", "progress": "NA", "move_number": "27", "optimal_length": "11", "subject": "A191V7PT3DQKDP:3PMBY0YE28B43VMUKKJ6EDF85RV9C8"}
{"meta_move": "drag_end", "rt": "888.0", "trial_number": "1", "pre_actions": "1", "move": "r@12", "instance": "prb33509", "distance_to_goal": "NA", "progress": "NA", "move_number": "28", "optimal_length": "11", "subject": "A191V7PT3DQKDP:3PMBY0YE28B43VMUKKJ6EDF85RV9C8"}
{"meta_move": "drag_end", "rt": "1037.0", "trial_number": "1", "pre_actions": "1", "move": "5@1", "instance": "prb33509", "distance_to_goal": "NA", "progress": "NA", "move_number": "29", "optimal_length": "11", "subject": "A191V7PT3DQKDP:3PMBY0YE28B43VMUKKJ6EDF85RV9C8"}
{"meta_move": "drag_end", "rt": "591.0", "trial_number": "1", "pre_actions": "1", "move": "1@7", "instance": "prb33509", "distance_to_goal": "NA", "progress": "NA", "move_number": "30", "optimal_length": "11", "subject": "A191V7PT3DQKDP:3PMBY0YE28B43VMUKKJ6EDF85RV9C8"}
{"meta_move": "drag_end", "rt": "1856.0", "trial_number": "1", "pre_actions": "1", "move": "3@20", "instance": "prb33509", "distance_to_goal": "NA", "progress": "NA", "move_number": "31", "optimal_length": "11", "subject": "A191V7PT3DQKDP:3PMBY0YE28B43VMUKKJ6EDF85RV9C8"}
{"meta_move": "drag_end", "rt": "1178.0", "trial_number": "1", "pre_actions": "1", "move": "r@14", "instance": "prb33509", "distance_to_goal": "NA", "progress": "NA", "move_number": "31", "optimal_length": "11", "subject": "A191V7PT3DQKDP:3PMBY0YE28B43VMUKKJ6EDF85RV9C8"}
{"meta_move": "drag_end", "rt": "902.0", "trial_number": "1", "pre_actions": "1", "move": "2@12", "instance": "prb33509", "distance_to_goal": "NA", "progress": "NA", "move_number": "32", "optimal_length": "11", "subject": "A191V7PT3DQKDP:3PMBY0YE28B43VMUKKJ6EDF85RV9C8"}
{"meta_move": "drag_end", "rt": "1665.0", "trial_number": "1", "pre_actions": "1", "move": "3@20", "instance": "prb33509", "distance_to_goal": "NA", "progress": "NA", "move_number": "33", "optimal_length": "11", "subject": "A191V7PT3DQKDP:3PMBY0YE28B43VMUKKJ6EDF85RV9C8"}
{"meta_move": "drag_end", "rt": "1440.0", "trial_number": "1", "pre_actions": "1", "move": "2@24", "instance": "prb33509", "distance_to_goal": "NA", "progress": "NA", "move_number": "33", "optimal_length": "11", "subject": "A191V7PT3DQKDP:3PMBY0YE28B43VMUKKJ6EDF85RV9C8"}
{"meta_move": "drag_end", "rt": "751.0", "trial_number": "1", "pre_actions": "1", "move": "6@12", "instance": "prb33509", "distance_to_goal": "NA", "progress": "NA", "move_number": "34", "optimal_length": "11", "subject": "A191V7PT3DQKDP:3PMBY0YE28B43VMUKKJ6EDF85RV9C8"}
{"meta_move": "drag_end", "rt": "4664.0", "trial_number": "1", "pre_actions": "1", "move": "6@0", "instance": "prb33509", "distance_to_goal": "NA", "progress": "NA", "move_number": "35", "optimal_length": "11", "subject": "A191V7PT3DQKDP:3PMBY0YE28B43VMUKKJ6EDF85RV9C8"}
{"meta_move": "drag_end", "rt": "1721.0", "trial_number": "1", "pre_actions": "1", "move": "r@12", "instance": "prb33509", "distance_to_goal": "NA", "progress": "NA", "move_number": "36", "optimal_length": "11", "subject": "A191V7PT3DQKDP:3PMBY0YE28B43VMUKKJ6EDF85RV9C8"}
{"meta_move": "drag_end", "rt": "4087.0", "trial_number": "1", "pre_actions": "1", "move": "7@33", "instance": "prb33509", "distance_to_goal": "NA", "progress": "NA", "move_number": "37", "optimal_length": "11", "subject": "A191V7PT3DQKDP:3PMBY0YE28B43VMUKKJ6EDF85RV9C8"}
{"meta_move": "drag_end", "rt": "3408.0", "trial_number": "1", "pre_actions": "1", "move": "r@14", "instance": "prb33509", "distance_to_goal": "NA", "progress": "NA", "move_number": "38", "optimal_length": "11", "subject": "A191V7PT3DQKDP:3PMBY0YE28B43VMUKKJ6EDF85RV9C8"}
{"meta_move": "drag_end", "rt": "3608.0", "trial_number": "1", "pre_actions": "1", "move": "6@12", "instance": "prb33509", "distance_to_goal": "NA", "progress": "NA", "move_number": "39", "optimal_length": "11", "subject": "A191V7PT3DQKDP:3PMBY0YE28B43VMUKKJ6EDF85RV9C8"}
{"meta_move": "drag_end", "rt": "1768.0", "trial_number": "1", "pre_actions": "1", "move": "r@14", "instance": "prb33509", "distance_to_goal": "NA", "progress": "NA", "move_number": "40", "optimal_length": "11", "subject": "A191V7PT3DQKDP:3PMBY0YE28B43VMUKKJ6EDF85RV9C8"}
{"meta_move": "drag_end", "rt": "1913.0", "trial_number": "1", "pre_actions": "1", "move": "4@4", "instance": "prb33509", "distance_to_goal": "NA", "progress": "NA", "move_number": "40", "optimal_length": "11", "subject": "A191V7PT3DQKDP:3PMBY0YE28B43VMUKKJ6EDF85RV9C8"}
{"meta_move": "drag_end", "rt": "1959.0", "trial_number": "1", "pre_actions": "1", "move": "7@34", "instance": "prb33509", "distance_to_goal": "NA", "progress": "NA", "move_number": "40", "optimal_length": "11", "subject": "A191V7PT3DQKDP:3PMBY0YE28B43VMUKKJ6EDF85RV9C8"}
{"meta_move": "drag_end", "rt": "1872.0", "trial_number": "1", "pre_actions": "1", "move": "1@8", "instance": "prb33509", "distance_to_goal": "NA", "progress": "NA", "move_number": "41", "optimal_length": "11", "subject": "A191V7PT3DQKDP:3PMBY0YE28B43VMUKKJ6EDF85RV9C8"}
{"meta_move": "drag_end", "rt": "586.0", "trial_number": "1", "pre_actions": "1", "move": "5@2", "instance": "prb33509", "distance_to_goal": "NA", "progress": "NA", "move_number": "42", "optimal_length": "11", "subject": "A191V7PT3DQKDP:3PMBY0YE28B43VMUKKJ6EDF85RV9C8"}
{"meta_move": "drag_end", "rt": "1014.0", "trial_number": "1", "pre_actions": "1", "move": "6@0", "instance": "prb33509", "distance_to_goal": "NA", "progress": "NA", "move_number": "43", "optimal_length": "11", "subject": "A191V7PT3DQKDP:3PMBY0YE28B43VMUKKJ6EDF85RV9C8"}
{"meta_move": "drag_end", "rt": "1065.0", "trial_number": "1", "pre_actions": "1", "move": "2@12", "instance": "prb33509", "distance_to_goal": "NA", "progress": "NA", "move_number": "44", "optimal_length": "11", "subject": "A191V7PT3DQKDP:3PMBY0YE28B43VMUKKJ6EDF85RV9C8"}
{"meta_move": "drag_end", "rt": "887.0", "trial_number": "1", "pre_actions": "1", "move": "3@20", "instance": "prb33509", "distance_to_goal": "NA", "progress": "NA", "move_number": "45", "optimal_length": "11", "subject": "A191V7PT3DQKDP:3PMBY0YE28B43VMUKKJ6EDF85RV9C8"}
{"meta_move": "drag_end", "rt": "640.0", "trial_number": "1", "pre_actions": "1", "move": "3@20", "instance": "prb33509", "distance_to_goal": "NA", "progress": "NA", "move_number": "45", "optimal_length": "11", "subject": "A191V7PT3DQKDP:3PMBY0YE28B43VMUKKJ6EDF85RV9C8"}
{"meta_move": "drag_end", "rt": "1232.0", "trial_number": "1", "pre_actions": "1", "move": "2@24", "instance": "prb33509", "distance_to_goal": "NA", "progress": "NA", "move_number": "45", "optimal_length": "11", "subject": "A191V7PT3DQKDP:3PMBY0YE28B43VMUKKJ6EDF85RV9C8"}
{"meta_move": "drag_end", "rt": "713.0", "trial_number": "1", "pre_actions": "1", "move": "r@12", "instance": "prb33509", "distance_to_goal": "NA", "progress": "NA", "move_number": "46", "optimal_length": "11", "subject": "A191V7PT3DQKDP:3PMBY0YE28B43VMUKKJ6EDF85RV9C8"}
{"meta_move": "drag_end", "rt": "2791.0", "trial_number": "1", "pre_actions": "1", "move": "3@14", "instance": "prb33509", "distance_to_goal": "NA", "progress": "NA", "move_number": "47", "optimal_length": "11", "subject": "A191V7PT3DQKDP:3PMBY0YE28B43VMUKKJ6EDF85RV9C8"}
{"meta_move": "drag_end", "rt": "768.0", "trial_number": "1", "pre_actions": "1", "move": "7@31", "instance": "prb33509", "distance_to_goal": "NA", "progress": "NA", "move_number": "48", "optimal_length": "11", "subject": "A191V7PT3DQKDP:3PMBY0YE28B43VMUKKJ6EDF85RV9C8"}
{"meta_move": "drag_end", "rt": "1192.0", "trial_number": "1", "pre_actions": "1", "move": "4@22", "instance": "prb33509", "distance_to_goal": "NA", "progress": "NA", "move_number": "49", "optimal_length": "11", "subject": "A191V7PT3DQKDP:3PMBY0YE28B43VMUKKJ6EDF85RV9C8"}
{"meta_move": "drag_end", "rt": "705.0", "trial_number": "1", "pre_actions": "1", "move": "0@23", "instance": "prb33509", "distance_to_goal": "NA", "progress": "NA", "move_number": "50", "optimal_length": "11", "subject": "A191V7PT3DQKDP:3PMBY0YE28B43VMUKKJ6EDF85RV9C8"}
{"meta_move": "drag_end", "rt": "607.0", "trial_number": "1", "pre_actions": "1", "move": "5@4", "instance": "prb33509", "distance_to_goal": "NA", "progress": "NA", "move_number": "51", "optimal_length": "11", "subject": "A191V7PT3DQKDP:3PMBY0YE28B43VMUKKJ6EDF85RV9C8"}
{"meta_move": "drag_end", "rt": "671.0", "trial_number": "1", "pre_actions": "1", "move": "1@10", "instance": "prb33509", "distance_to_goal": "NA", "progress": "NA", "move_number": "52", "optimal_length": "11", "subject": "A191V7PT3DQKDP:3PMBY0YE28B43VMUKKJ6EDF85RV9C8"}
{"meta_move": "drag_end", "rt": "721.0", "trial_number": "1", "pre_actions": "1", "move": "3@2", "instance": "prb33509", "distance_to_goal": "NA", "progress": "NA", "move_number": "53", "optimal_length": "11", "subject": "A191V7PT3DQKDP:3PMBY0YE28B43VMUKKJ6EDF85RV9C8"}
{"meta_move": "drag_end", "rt": "1280.0", "trial_number": "1", "pre_actions": "1", "move": "7@32", "instance": "prb33509", "distance_to_goal": "NA", "progress": "NA", "move_number": "54", "optimal_length": "11", "subject": "A191V7PT3DQKDP:3PMBY0YE28B43VMUKKJ6EDF85RV9C8"}
{"meta_move": "drag_end", "rt": "5208.0", "trial_number": "1", "pre_actions": "1", "move": "3@2", "instance": "prb33509", "distance_to_goal": "NA", "progress": "NA", "move_number": "55", "optimal_length": "11", "subject": "A191V7PT3DQKDP:3PMBY0YE28B43VMUKKJ6EDF85RV9C8"}
{"meta_move": "drag_end", "rt": "2736.0", "trial_number": "1", "pre_actions": "1", "move": "7@31", "instance": "prb33509", "distance_to_goal": "NA", "progress": "NA", "move_number": "55", "optimal_length": "11", "subject": "A191V7PT3DQKDP:3PMBY0YE28B43VMUKKJ6EDF85RV9C8"}
{"meta_move": "drag_end", "rt": "815.0", "trial_number": "1", "pre_actions": "1", "move": "4@16", "instance": "prb33509", "distance_to_goal": "NA", "progress": "NA", "move_number": "56", "optimal_length": "11", "subject": "A191V7PT3DQKDP:3PMBY0YE28B43VMUKKJ6EDF85RV9C8"}
{"meta_move": "drag_end", "rt": "635.0", "trial_number": "1", "pre_actions": "1", "move": "7@33", "instance": "prb33509", "distance_to_goal": "NA", "progress": "NA", "move_number": "57", "optimal_length": "11", "subject": "A191V7PT3DQKDP:3PMBY0YE28B43VMUKKJ6EDF85RV9C8"}
{"meta_move": "drag_end", "rt": "774.0", "trial_number": "1", "pre_actions": "1", "move": "3@20", "instance": "prb33509", "distance_to_goal": "NA", "progress": "NA", "move_number": "58", "optimal_length": "11", "subject": "A191V7PT3DQKDP:3PMBY0YE28B43VMUKKJ6EDF85RV9C8"}
{"meta_move": "drag_end", "rt": "832.0", "trial_number": "1", "pre_actions": "1", "move": "r@14", "instance": "prb33509", "distance_to_goal": "NA", "progress": "NA", "move_number": "59", "optimal_length": "11", "subject": "A191V7PT3DQKDP:3PMBY0YE28B43VMUKKJ6EDF85RV9C8"}
{"meta_move": "drag_end", "rt": "804.0", "trial_number": "1", "pre_actions": "1", "move": "2@12", "instance": "prb33509", "distance_to_goal": "NA", "progress": "NA", "move_number": "60", "optimal_length": "11", "subject": "A191V7PT3DQKDP:3PMBY0YE28B43VMUKKJ6EDF85RV9C8"}
{"meta_move": "drag_end", "rt": "1161.0", "trial_number": "1", "pre_actions": "1", "move": "5@1", "instance": "prb33509", "distance_to_goal": "NA", "progress": "NA", "move_number": "61", "optimal_length": "11", "subject": "A191V7PT3DQKDP:3PMBY0YE28B43VMUKKJ6EDF85RV9C8"}
{"meta_move": "drag_end", "rt": "615.0", "trial_number": "1", "pre_actions": "1", "move": "1@7", "instance": "prb33509", "distance_to_goal": "NA", "progress": "NA", "move_number": "62", "optimal_length": "11", "subject": "A191V7PT3DQKDP:3PMBY0YE28B43VMUKKJ6EDF85RV9C8"}
{"meta_move": "drag_end", "rt": "1288.0", "trial_number": "1", "pre_actions": "1", "move": "4@4", "instance": "prb33509", "distance_to_goal": "NA", "progress": "NA", "move_number": "63", "optimal_length": "11", "subject": "A191V7PT3DQKDP:3PMBY0YE28B43VMUKKJ6EDF85RV9C8"}
{"meta_move": "drag_end", "rt": "2121.0", "trial_number": "1", "pre_actions": "1", "move": "0@5", "instance": "prb33509", "distance_to_goal": "NA", "progress": "NA", "move_number": "64", "optimal_length": "11", "subject": "A191V7PT3DQKDP:3PMBY0YE28B43VMUKKJ6EDF85RV9C8"}
{"meta_move": "drag_end", "rt": "1399.0", "trial_number": "1", "pre_actions": "1", "move": "7@34", "instance": "prb33509", "distance_to_goal": "NA", "progress": "NA", "move_number": "65", "optimal_length": "11", "subject": "A191V7PT3DQKDP:3PMBY0YE28B43VMUKKJ6EDF85RV9C8"}
{"meta_move": "drag_end", "rt": "2696.0", "trial_number": "1", "pre_actions": "1", "move": "2@24", "instance": "prb33509", "distance_to_goal": "NA", "progress": "NA", "move_number": "66", "optimal_length": "11", "subject": "A191V7PT3DQKDP:3PMBY0YE28B43VMUKKJ6EDF85RV9C8"}
{"meta_move": "drag_end", "rt": "632.0", "trial_number": "1", "pre_actions": "1", "move": "6@12", "instance": "prb33509", "distance_to_goal": "NA", "progress": "NA", "move_number": "67", "optimal_length": "11", "subject": "A191V7PT3DQKDP:3PMBY0YE28B43VMUKKJ6EDF85RV9C8"}
{"meta_move": "drag_end", "rt": "1776.0", "trial_number": "1", "pre_actions": "1", "move": "7@33", "instance": "prb33509", "distance_to_goal": "NA", "progress": "NA", "move_number": "68", "optimal_length": "11", "subject": "A191V7PT3DQKDP:3PMBY0YE28B43VMUKKJ6EDF85RV9C8"}
{"meta_move": "drag_end", "rt": "1376.0", "trial_number": "1", "pre_actions": "1", "move": "0@23", "instance": "prb33509", "distance_to_goal": "NA", "progress": "NA", "move_number": "69", "optimal_length": "11", "subject": "A191V7PT3DQKDP:3PMBY0YE28B43VMUKKJ6EDF85RV9C8"}
{"meta_move": "drag_end", "rt": "736.0", "trial_number": "1", "pre_actions": "1", "move": "5@0", "instance": "prb33509", "distance_to_goal": "NA", "progress": "NA", "move_number": "70", "optimal_length": "11", "subject": "A191V7PT3DQKDP:3PMBY0YE28B43VMUKKJ6EDF85RV9C8"}
{"meta_move": "drag_end", "rt": "560.0", "trial_number": "1", "pre_actions": "1", "move": "1@6", "instance": "prb33509", "distance_to_goal": "NA", "progress": "NA", "move_number": "71", "optimal_length": "11", "subject": "A191V7PT3DQKDP:3PMBY0YE28B43VMUKKJ6EDF85RV9C8"}
{"meta_move": "drag_end", "rt": "1256.0", "trial_number": "1", "pre_actions": "1", "move": "r@13", "instance": "prb33509", "distance_to_goal": "NA", "progress": "NA", "move_number": "72", "optimal_length": "11", "subject": "A191V7PT3DQKDP:3PMBY0YE28B43VMUKKJ6EDF85RV9C8"}
{"meta_move": "drag_end", "rt": "1720.0", "trial_number": "1", "pre_actions": "1", "move": "4@4", "instance": "prb33509", "distance_to_goal": "NA", "progress": "NA", "move_number": "73", "optimal_length": "11", "subject": "A191V7PT3DQKDP:3PMBY0YE28B43VMUKKJ6EDF85RV9C8"}
{"meta_move": "drag_end", "rt": "896.0", "trial_number": "1", "pre_actions": "1", "move": "r@14", "instance": "prb33509", "distance_to_goal": "NA", "progress": "NA", "move_number": "73", "optimal_length": "11", "subject": "A191V7PT3DQKDP:3PMBY0YE28B43VMUKKJ6EDF85RV9C8"}
{"meta_move": "drag_end", "rt": "633.0", "trial_number": "1", "pre_actions": "1", "move": "0@5", "instance": "prb33509", "distance_to_goal": "NA", "progress": "NA", "move_number": "74", "optimal_length": "11", "subject": "A191V7PT3DQKDP:3PMBY0YE28B43VMUKKJ6EDF85RV9C8"}
{"meta_move": "drag_end", "rt": "1233.0", "trial_number": "1", "pre_actions": "1", "move": "5@2", "instance": "prb33509", "distance_to_goal": "NA", "progress": "NA", "move_number": "75", "optimal_length": "11", "subject": "A191V7PT3DQKDP:3PMBY0YE28B43VMUKKJ6EDF85RV9C8"}
{"meta_move": "drag_end", "rt": "534.0", "trial_number": "1", "pre_actions": "1", "move": "1@8", "instance": "prb33509", "distance_to_goal": "NA", "progress": "NA", "move_number": "76", "optimal_length": "11", "subject": "A191V7PT3DQKDP:3PMBY0YE28B43VMUKKJ6EDF85RV9C8"}
{"meta_move": "drag_end", "rt": "618.0", "trial_number": "1", "pre_actions": "1", "move": "6@0", "instance": "prb33509", "distance_to_goal": "NA", "progress": "NA", "move_number": "77", "optimal_length": "11", "subject": "A191V7PT3DQKDP:3PMBY0YE28B43VMUKKJ6EDF85RV9C8"}
{"meta_move": "drag_end", "rt": "1550.0", "trial_number": "1", "pre_actions": "1", "move": "2@24", "instance": "prb33509", "distance_to_goal": "NA", "progress": "NA", "move_number": "78", "optimal_length": "11", "subject": "A191V7PT3DQKDP:3PMBY0YE28B43VMUKKJ6EDF85RV9C8"}
{"meta_move": "drag_end", "rt": "655.0", "trial_number": "1", "pre_actions": "1", "move": "r@12", "instance": "prb33509", "distance_to_goal": "NA", "progress": "NA", "move_number": "78", "optimal_length": "11", "subject": "A191V7PT3DQKDP:3PMBY0YE28B43VMUKKJ6EDF85RV9C8"}
{"meta_move": "drag_end", "rt": "666.0", "trial_number": "1", "pre_actions": "1", "move": "3@14", "instance": "prb33509", "distance_to_goal": "NA", "progress": "NA", "move_number": "79", "optimal_length": "11", "subject": "A191V7PT3DQKDP:3PMBY0YE28B43VMUKKJ6EDF85RV9C8"}
{"meta_move": "drag_end", "rt": "927.0", "trial_number": "1", "pre_actions": "1", "move": "7@31", "instance": "prb33509", "distance_to_goal": "NA", "progress": "NA", "move_number": "80", "optimal_length": "11", "subject": "A191V7PT3DQKDP:3PMBY0YE28B43VMUKKJ6EDF85RV9C8"}
{"meta_move": "drag_end", "rt": "1359.0", "trial_number": "1", "pre_actions": "1", "move": "4@22", "instance": "prb33509", "distance_to_goal": "NA", "progress": "NA", "move_number": "81", "optimal_length": "11", "subject": "A191V7PT3DQKDP:3PMBY0YE28B43VMUKKJ6EDF85RV9C8"}
{"meta_move": "drag_end", "rt": "776.0", "trial_number": "1", "pre_actions": "1", "move": "0@23", "instance": "prb33509", "distance_to_goal": "NA", "progress": "NA", "move_number": "82", "optimal_length": "11", "subject": "A191V7PT3DQKDP:3PMBY0YE28B43VMUKKJ6EDF85RV9C8"}
{"meta_move": "drag_end", "rt": "1153.0", "trial_number": "1", "pre_actions": "1", "move": "5@4", "instance": "prb33509", "distance_to_goal": "NA", "progress": "NA", "move_number": "83", "optimal_length": "11", "subject": "A191V7PT3DQKDP:3PMBY0YE28B43VMUKKJ6EDF85RV9C8"}
{"meta_move": "drag_end", "rt": "744.0", "trial_number": "1", "pre_actions": "1", "move": "1@10", "instance": "prb33509", "distance_to_goal": "NA", "progress": "NA", "move_number": "84", "optimal_length": "11", "subject": "A191V7PT3DQKDP:3PMBY0YE28B43VMUKKJ6EDF85RV9C8"}
{"meta_move": "drag_end", "rt": "1047.0", "trial_number": "1", "pre_actions": "1", "move": "3@2", "instance": "prb33509", "distance_to_goal": "NA", "progress": "NA", "move_number": "85", "optimal_length": "11", "subject": "A191V7PT3DQKDP:3PMBY0YE28B43VMUKKJ6EDF85RV9C8"}
{"meta_move": "drag_end", "rt": "913.0", "trial_number": "1", "pre_actions": "1", "move": "2@18", "instance": "prb33509", "distance_to_goal": "NA", "progress": "NA", "move_number": "86", "optimal_length": "11", "subject": "A191V7PT3DQKDP:3PMBY0YE28B43VMUKKJ6EDF85RV9C8"}
{"meta_move": "drag_end", "rt": "553.0", "trial_number": "1", "pre_actions": "1", "move": "7@30", "instance": "prb33509", "distance_to_goal": "NA", "progress": "NA", "move_number": "87", "optimal_length": "11", "subject": "A191V7PT3DQKDP:3PMBY0YE28B43VMUKKJ6EDF85RV9C8"}
{"meta_move": "drag_end", "rt": "711.0", "trial_number": "1", "pre_actions": "1", "move": "3@20", "instance": "prb33509", "distance_to_goal": "NA", "progress": "NA", "move_number": "88", "optimal_length": "11", "subject": "A191V7PT3DQKDP:3PMBY0YE28B43VMUKKJ6EDF85RV9C8"}
{"meta_move": "win", "rt": "493.0", "trial_number": "1", "pre_actions": "1", "move": "r@12", "instance": "prb33509", "distance_to_goal": "1", "progress": "NA", "move_number": "89", "optimal_length": "11", "subject": "A191V7PT3DQKDP:3PMBY0YE28B43VMUKKJ6EDF85RV9C8"}
{"meta_move": "drag_end", "rt": "155.0", "trial_number": "0", "pre_actions": "0", "move": "r@16", "instance": "prb33509", "distance_to_goal": "NA", "progress": "NA", "move_number": "89", "optimal_length": "11", "subject": "A191V7PT3DQKDP:3PMBY0YE28B43VMUKKJ6EDF85RV9C8"}
{"meta_move": "drag_end", "rt": "2117.0", "trial_number": "1", "pre_actions": "1", "move": "0@23", "instance": "prb33509", "distance_to_goal": "NA", "progress": "NA", "move_number": "0", "optimal_length": "11", "subject": "A1F4N58CAX8IMK:3TS1AR6UQRM7SOIBWPBN8N9589Y7FV"}
{"meta_move": "drag_end", "rt": "744.0", "trial_number": "1", "pre_actions": "1", "move": "4@4", "instance": "prb33509", "distance_to_goal": "NA", "progress": "NA", "move_number": "1", "optimal_length": "11", "subject": "A1F4N58CAX8IMK:3TS1AR6UQRM7SOIBWPBN8N9589Y7FV"}
{"meta_move": "drag_end", "rt": "1128.0", "trial_number": "1", "pre_actions": "1", "move": "1@8", "instance": "prb33509", "distance_to_goal": "NA", "progress": "NA", "move_number": "2", "optimal_length": "11", "subject": "A1F4N58CAX8IMK:3TS1AR6UQRM7SOIBWPBN8N9589Y7FV"}
{"meta_move": "drag_end", "rt": "1136.0", "trial_number": "1", "pre_actions": "1", "move": "6@12", "instance": "prb33509", "distance_to_goal": "NA", "progress": "NA", "move_number": "3", "optimal_length": "11", "subject": "A1F4N58CAX8IMK:3TS1AR6UQRM7SOIBWPBN8N9589Y7FV"}
{"meta_move": "drag_end", "rt": "745.0", "trial_number": "1", "pre_actions": "1", "move": "6@6", "instance": "prb33509", "distance_to_goal": "NA", "progress": "NA", "move_number": "4", "optimal_length": "11", "subject": "A1F4N58CAX8IMK:3TS1AR6UQRM7SOIBWPBN8N9589Y7FV"}
{"meta_move": "drag_end", "rt": "600.0", "trial_number": "1", "pre_actions": "1", "move": "2@18", "instance": "prb33509", "distance_to_goal": "NA", "progress": "NA", "move_number": "5", "optimal_length": "11", "subject": "A1F4N58CAX8IMK:3TS1AR6UQRM7SOIBWPBN8N9589Y7FV"}
{"meta_move": "drag_end", "rt": "711.0", "trial_number": "1", "pre_actions": "1", "move": "r@13", "instance": "prb33509", "distance_to_goal": "NA", "progress": "NA", "move_number": "6", "optimal_length": "11", "subject": "A1F4N58CAX8IMK:3TS1AR6UQRM7SOIBWPBN8N9589Y7FV"}
{"meta_move": "drag_end", "rt": "1064.0", "trial_number": "1", "pre_actions": "1", "move": "1@7", "instance": "prb33509", "distance_to_goal": "NA", "progress": "NA", "move_number": "7", "optimal_length": "11", "subject": "A1F4N58CAX8IMK:3TS1AR6UQRM7SOIBWPBN8N9589Y7FV"}
{"meta_move": "drag_end", "rt": "1088.0", "trial_number": "1", "pre_actions": "1", "move": "4@16", "instance": "prb33509", "distance_to_goal": "NA", "progress": "NA", "move_number": "8", "optimal_length": "11", "subject": "A1F4N58CAX8IMK:3TS1AR6UQRM7SOIBWPBN8N9589Y7FV"}
{"meta_move": "drag_end", "rt": "1257.0", "trial_number": "1", "pre_actions": "1", "move": "3@20", "instance": "prb33509", "distance_to_goal": "NA", "progress": "NA", "move_number": "9", "optimal_length": "11", "subject": "A1F4N58CAX8IMK:3TS1AR6UQRM7SOIBWPBN8N9589Y7FV"}
{"meta_move": "drag_end", "rt": "647.0", "trial_number": "1", "pre_actions": "1", "move": "r@14", "instance": "prb33509", "distance_to_goal": "NA", "progress": "NA", "move_number": "9", "optimal_length": "11", "subject": "A1F4N58CAX8IMK:3TS1AR6UQRM7SOIBWPBN8N9589Y7FV"}
{"meta_move": "drag_end", "rt": "1441.0", "trial_number": "1", "pre_actions": "1", "move": "r@13", "instance": "prb33509", "distance_to_goal": "NA", "progress": "NA", "move_number": "10", "optimal_length": "11", "subject": "A1F4N58CAX8IMK:3TS1AR6UQRM7SOIBWPBN8N9589Y7FV"}
{"meta_move": "drag_end", "rt": "967.0", "trial_number": "1", "pre_actions": "1", "move": "4@4", "instance": "prb33509", "distance_to_goal": "NA", "progress": "NA", "move_number": "11", "optimal_length": "11", "subject": "A1F4N58CAX8IMK:3TS1AR6UQRM7SOIBWPBN8N9589Y7FV"}
{"meta_move": "drag_end", "rt": "1112.0", "trial_number": "1", "pre_actions": "1", "move": "0@5", "instance": "prb33509", "distance_to_goal": "NA", "progress": "NA", "move_number": "12", "optimal_length": "11", "subject": "A1F4N58CAX8IMK:3TS1AR6UQRM7SOIBWPBN8N9589Y7FV"}
{"meta_move": "drag_end", "rt": "880.0", "trial_number": "1", "pre_actions": "1", "move": "7@34", "instance": "prb33509", "distance_to_goal": "NA", "progress": "NA", "move_number": "13", "optimal_length": "11", "subject": "A1F4N58CAX8IMK:3TS1AR6UQRM7SOIBWPBN8N9589Y7FV"}
{"meta_move": "drag_end", "rt": "977.0", "trial_number": "1", "pre_actions": "1", "move": "4@16", "instance": "prb33509", "distance_to_goal": "NA", "progress": "NA", "move_number": "14", "optimal_length": "11", "subject": "A1F4N58CAX8IMK:3TS1AR6UQRM7SOIBWPBN8N9589Y7FV"}
{"meta_move": "drag_end", "rt": "801.0", "trial_number": "1", "pre_actions": "1", "move": "3@20", "instance": "prb33509", "distance_to_goal": "NA", "progress": "NA", "move_number": "15", "optimal_length": "11", "subject": "A1F4N58CAX8IMK:3TS1AR6UQRM7SOIBWPBN8N9589Y7FV"}
{"meta_move": "drag_end", "rt": "726.0", "trial_number": "1", "pre_actions": "1", "move": "1@9", "instance": "prb33509", "distance_to_goal": "NA", "progress": "NA", "move_number": "15", "optimal_length": "11", "subject": "A1F4N58CAX8IMK:3TS1AR6UQRM7SOIBWPBN8N9589Y7FV"}
{"meta_move": "drag_end", "rt": "1233.0", "trial_number": "1", "pre_actions": "1", "move": "5@3", "instance": "prb33509", "distance_to_goal": "NA", "progress": "NA", "move_number": "16", "optimal_length": "11", "subject": "A1F4N58CAX8IMK:3TS1AR6UQRM7SOIBWPBN8N9589Y7FV"}
{"meta_move": "drag_end", "rt": "760.0", "trial_number": "1", "pre_actions": "1", "move": "6@0", "instance": "prb33509", "distance_to_goal": "NA", "progress": "NA", "move_number": "17", "optimal_length": "11", "subject": "A1F4N58CAX8IMK:3TS1AR6UQRM7SOIBWPBN8N9589Y7FV"}
{"meta_move": "drag_end", "rt": "745.0", "trial_number": "1", "pre_actions": "1", "move": "2@12", "instance": "prb33509", "distance_to_goal": "NA", "progress": "NA", "move_number": "18", "optimal_length": "11", "subject": "A1F4N58CAX8IMK:3TS1AR6UQRM7SOIBWPBN8N9589Y7FV"}
{"meta_move": "drag_end", "rt": "854.0", "trial_number": "1", "pre_actions": "1", "move": "r@14", "instance": "prb33509", "distance_to_goal": "NA", "progress": "NA", "move_number": "19", "optimal_length": "11", "subject": "A1F4N58CAX8IMK:3TS1AR6UQRM7SOIBWPBN8N9589Y7FV"}
{"meta_move": "drag_end", "rt": "1832.0", "trial_number": "1", "pre_actions": "1", "move": "1@7", "instance": "prb33509", "distance_to_goal": "NA", "progress": "NA", "move_number": "20", "optimal_length": "11", "subject": "A1F4N58CAX8IMK:3TS1AR6UQRM7SOIBWPBN8N9589Y7FV"}
{"meta_move": "drag_end", "rt": "1040.0", "trial_number": "1", "pre_actions": "1", "move": "5@1", "instance": "prb33509", "distance_to_goal": "NA", "progress": "NA", "move_number": "21", "optimal_length": "11", "subject": "A1F4N58CAX8IMK:3TS1AR6UQRM7SOIBWPBN8N9589Y7FV"}
{"meta_move": "drag_end", "rt": "952.0", "trial_number": "1", "pre_actions": "1", "move": "4@4", "instance": "prb33509", "distance_to_goal": "NA", "progress": "NA", "move_number": "22", "optimal_length": "11", "subject": "A1F4N58CAX8IMK:3TS1AR6UQRM7SOIBWPBN8N9589Y7FV"}
{"meta_move": "drag_end", "rt": "1496.0", "trial_number": "1", "pre_actions": "1", "move": "7@33", "instance": "prb33509", "distance_to_goal": "NA", "progress": "NA", "move_number": "23", "optimal_length": "11", "subject": "A1F4N58CAX8IMK:3TS1AR6UQRM7SOIBWPBN8N9589Y7FV"}
{"meta_move": "drag_end", "rt": "760.0", "trial_number": "1", "pre_actions": "1", "move": "0@23", "instance": "prb33509", "distance_to_goal": "NA", "progress": "NA", "move_number": "24", "optimal_length": "11", "subject": "A1F4N58CAX8IMK:3TS1AR6UQRM7SOIBWPBN8N9589Y7FV"}
{"meta_move": "drag_end", "rt": "2656.0", "trial_number": "1", "pre_actions": "1", "move": "3@20", "instance": "prb33509", "distance_to_goal": "NA", "progress": "NA", "move_number": "25", "optimal_length": "11", "subject": "A1F4N58CAX8IMK:3TS1AR6UQRM7SOIBWPBN8N9589Y7FV"}
{"meta_move": "drag_end", "rt": "410.0", "trial_number": "1", "pre_actions": "1", "move": "3@20", "instance": "prb33509", "distance_to_goal": "NA", "progress": "NA", "move_number": "25", "optimal_length": "11", "subject": "A1F4N58CAX8IMK:3TS1AR6UQRM7SOIBWPBN8N9589Y7FV"}
{"meta_move": "drag_end", "rt": "759.0", "trial_number": "1", "pre_actions": "1", "move": "4@4", "instance": "prb33509", "distance_to_goal": "NA", "progress": "NA", "move_number": "25", "optimal_length": "11", "subject": "A1F4N58CAX8IMK:3TS1AR6UQRM7SOIBWPBN8N9589Y7FV"}
{"meta_move": "drag_end", "rt": "696.0", "trial_number": "1", "pre_actions": "1", "move": "0@5", "instance": "prb33509", "distance_to_goal": "NA", "progress": "NA", "move_number": "25", "optimal_length": "11", "subject": "A1F4N58CAX8IMK:3TS1AR6UQRM7SOIBWPBN8N9589Y7FV"}
{"meta_move": "drag_end", "rt": "679.0", "trial_number": "1", "pre_actions": "1", "move": "7@34", "instance": "prb33509", "distance_to_goal": "NA", "progress": "NA", "move_number": "26", "optimal_length": "11", "subject": "A1F4N58CAX8IMK:3TS1AR6UQRM7SOIBWPBN8N9589Y7FV"}
{"meta_move": "drag_end", "rt": "770.0", "trial_number": "1", "pre_actions": "1", "move": "2@24", "instance": "prb33509", "distance_to_goal": "NA", "progress": "NA", "move_number": "27", "optimal_length": "11", "subject": "A1F4N58CAX8IMK:3TS1AR6UQRM7SOIBWPBN8N9589Y7FV"}
{"meta_move": "drag_end", "rt": "662.0", "trial_number": "1", "pre_actions": "1", "move": "r@12", "instance": "prb33509", "distance_to_goal": "NA", "progress": "NA", "move_number": "28", "optimal_length": "11", "subject": "A1F4N58CAX8IMK:3TS1AR6UQRM7SOIBWPBN8N9589Y7FV"}
{"meta_move": "drag_end", "rt": "849.0", "trial_number": "1", "pre_actions": "1", "move": "3@14", "instance": "prb33509", "distance_to_goal": "NA", "progress": "NA", "move_number": "29", "optimal_length": "11", "subject": "A1F4N58CAX8IMK:3TS1AR6UQRM7SOIBWPBN8N9589Y7FV"}
{"meta_move": "drag_end", "rt": "1071.0", "trial_number": "1", "pre_actions": "1", "move": "7@31", "instance": "prb33509", "distance_to_goal": "NA", "progress": "NA", "move_number": "30", "optimal_length": "11", "subject": "A1F4N58CAX8IMK:3TS1AR6UQRM7SOIBWPBN8N9589Y7FV"}
{"meta_move": "drag_end", "rt": "1095.0", "trial_number": "1", "pre_actions": "1", "move": "4@22", "instance": "prb33509", "distance_to_goal": "NA", "progress": "NA", "move_number": "31", "optimal_length": "11", "subject": "A1F4N58CAX8IMK:3TS1AR6UQRM7SOIBWPBN8N9589Y7FV"}
{"meta_move": "drag_end", "rt": "650.0", "trial_number": "1", "pre_actions": "1", "move": "0@23", "instance": "prb33509", "distance_to_goal": "NA", "progress": "NA", "move_number": "32", "optimal_length": "11", "subject": "A1F4N58CAX8IMK:3TS1AR6UQRM7SOIBWPBN8N9589Y7FV"}
{"meta_move": "drag_end", "rt": "639.0", "trial_number": "1", "pre_actions": "1", "move": "1@10", "instance": "prb33509", "distance_to_goal": "NA", "progress": "NA", "move_number": "33", "optimal_length": "11", "subject": "A1F4N58CAX8IMK:3TS1AR6UQRM7SOIBWPBN8N9589Y7FV"}
{"meta_move": "drag_end", "rt": "651.0", "trial_number": "1", "pre_actions": "1", "move": "5@4", "instance": "prb33509", "distance_to_goal": "NA", "progress": "NA", "move_number": "34", "optimal_length": "11", "subject": "A1F4N58CAX8IMK:3TS1AR6UQRM7SOIBWPBN8N9589Y7FV"}
{"meta_move": "drag_end", "rt": "869.0", "trial_number": "1", "pre_actions": "1", "move": "3@2", "instance": "prb33509", "distance_to_goal": "NA", "progress": "NA", "move_number": "35", "optimal_length": "11", "subject": "A1F4N58CAX8IMK:3TS1AR6UQRM7SOIBWPBN8N9589Y7FV"}
{"meta_move": "drag_end", "rt": "2929.0", "trial_number": "1", "pre_actions": "1", "move": "2@18", "instance": "prb33509", "distance_to_goal": "NA", "progress": "NA", "move_number": "36", "optimal_length": "11", "subject": "A1F4N58CAX8IMK:3TS1AR6UQRM7SOIBWPBN8N9589Y7FV"}
{"meta_move": "drag_end", "rt": "576.0", "trial_number": "1", "pre_actions": "1", "move": "7@30", "instance": "prb33509", "distance_to_goal": "NA", "progress": "NA", "move_number": "37", "optimal_length": "11", "subject": "A1F4N58CAX8IMK:3TS1AR6UQRM7SOIBWPBN8N9589Y7FV"}
{"meta_move": "drag_end", "rt": "543.0", "trial_number": "1", "pre_actions": "1", "move": "3@20", "instance": "prb33509", "distance_to_goal": "NA", "progress": "NA", "move_number": "38", "optimal_length": "11", "subject": "A1F4N58CAX8IMK:3TS1AR6UQRM7SOIBWPBN8N9589Y7FV"}
{"meta_move": "win", "rt": "511.0", "trial_number": "1", "pre_actions": "1", "move": "r@12", "instance": "prb33509", "distance_to_goal": "1", "progress": "NA", "move_number": "39", "optimal_length": "11", "subject": "A1F4N58CAX8IMK:3TS1AR6UQRM7SOIBWPBN8N9589Y7FV"}
{"meta_move": "drag_end", "rt": "73.0", "trial_number": "0", "pre_actions": "0", "move": "r@16", "instance": "prb33509", "distance_to_goal": "NA", "progress": "NA", "move_number": "39", "optimal_length": "11", "subject": "A1F4N58CAX8IMK:3TS1AR6UQRM7SOIBWPBN8N9589Y7FV"}
{"meta_move": "drag_end", "rt": "1943.0", "trial_number": "1", "pre_actions": "1", "move": "4@16", "instance": "prb33509", "distance_to_goal": "NA", "progress": "NA", "move_number": "0", "optimal_length": "11", "subject": "A1LR0VQIHQUJAM:3YW4XOSQKRTI0K0Z2YPDTDJVFABU1I"}
{"meta_move": "drag_end", "rt": "495.0", "trial_number": "1", "pre_actions": "1", "move": "7@34", "instance": "prb33509", "distance_to_goal": "NA", "progress": "NA", "move_number": "0", "optimal_length": "11", "subject": "A1LR0VQIHQUJAM:3YW4XOSQKRTI0K0Z2YPDTDJVFABU1I"}
{"meta_move": "drag_end", "rt": "3620.0", "trial_number": "1", "pre_actions": "1", "move": "r@14", "instance": "prb33509", "distance_to_goal": "NA", "progress": "NA", "move_number": "1", "optimal_length": "11", "subject": "A1LR0VQIHQUJAM:3YW4XOSQKRTI0K0Z2YPDTDJVFABU1I"}
{"meta_move": "drag_end", "rt": "1015.0", "trial_number": "1", "pre_actions": "1", "move": "6@12", "instance": "prb33509", "distance_to_goal": "NA", "progress": "NA", "move_number": "1", "optimal_length": "11", "subject": "A1LR0VQIHQUJAM:3YW4XOSQKRTI0K0Z2YPDTDJVFABU1I"}
{"meta_move": "drag_end", "rt": "2119.0", "trial_number": "1", "pre_actions": "1", "move": "5@3", "instance": "prb33509", "distance_to_goal": "NA", "progress": "NA", "move_number": "2", "optimal_length": "11", "subject": "A1LR0VQIHQUJAM:3YW4XOSQKRTI0K0Z2YPDTDJVFABU1I"}
{"meta_move": "drag_end", "rt": "645.0", "trial_number": "1", "pre_actions": "1", "move": "6@0", "instance": "prb33509", "distance_to_goal": "NA", "progress": "NA", "move_number": "3", "optimal_length": "11", "subject": "A1LR0VQIHQUJAM:3YW4XOSQKRTI0K0Z2YPDTDJVFABU1I"}
{"meta_move": "drag_end", "rt": "620.0", "trial_number": "1", "pre_actions": "1", "move": "r@12", "instance": "prb33509", "distance_to_goal": "NA", "progress": "NA", "move_number": "4", "optimal_length": "11", "subject": "A1LR0VQIHQUJAM:3YW4XOSQKRTI0K0Z2YPDTDJVFABU1I"}
{"meta_move": "drag_end", "rt": "568.0", "trial_number": "1", "pre_actions": "1", "move": "3@14", "instance": "prb33509", "distance_to_goal": "NA", "progress": "NA", "move_number": "5", "optimal_length": "11", "subject": "A1LR0VQIHQUJAM:3YW4XOSQKRTI0K0Z2YPDTDJVFABU1I"}
{"meta_move": "drag_end", "rt": "770.0", "trial_number": "1", "pre_actions": "1", "move": "7@31", "instance": "prb33509", "distance_to_goal": "NA", "progress": "NA", "move_number": "6", "optimal_length": "11", "subject": "A1LR0VQIHQUJAM:3YW4XOSQKRTI0K0Z2YPDTDJVFABU1I"}
{"meta_move": "drag_end", "rt": "1032.0", "trial_number": "1", "pre_actions": "1", "move": "4@22", "instance": "prb33509", "distance_to_goal": "NA", "progress": "NA", "move_number": "7", "optimal_length": "11", "subject": "A1LR0VQIHQUJAM:3YW4XOSQKRTI0K0Z2YPDTDJVFABU1I"}
{"meta_move": "drag_end", "rt": "776.0", "trial_number": "1", "pre_actions": "1", "move": "0@23", "instance": "prb33509", "distance_to_goal": "NA", "progress": "NA", "move_number": "8", "optimal_length": "11", "subject": "A1LR0VQIHQUJAM:3YW4XOSQKRTI0K0Z2YPDTDJVFABU1I"}
{"meta_move": "drag_end", "rt": "2818.0", "trial_number": "1", "pre_actions": "1", "move": "2@18", "instance": "prb33509", "distance_to_goal": "NA", "progress": "NA", "move_number": "9", "optimal_length": "11", "subject": "A1LR0VQIHQUJAM:3YW4XOSQKRTI0K0Z2YPDTDJVFABU1I"}
{"meta_move": "drag_end", "rt": "483.0", "trial_number": "1", "pre_actions": "1", "move": "7@30", "instance": "prb33509", "distance_to_goal": "NA", "progress": "NA", "move_number": "10", "optimal_length": "11", "subject": "A1LR0VQIHQUJAM:3YW4XOSQKRTI0K0Z2YPDTDJVFABU1I"}
{"meta_move": "drag_end", "rt": "446.0", "trial_number": "1", "pre_actions": "1", "move": "3@14", "instance": "prb33509", "distance_to_goal": "NA", "progress": "NA", "move_number": "11", "optimal_length": "11", "subject": "A1LR0VQIHQUJAM:3YW4XOSQKRTI0K0Z2YPDTDJVFABU1I"}
{"meta_move": "drag_end", "rt": "300.0", "trial_number": "1", "pre_actions": "1", "move": "3@20", "instance": "prb33509", "distance_to_goal": "NA", "progress": "NA", "move_number": "11", "optimal_length": "11", "subject": "A1LR0VQIHQUJAM:3YW4XOSQKRTI0K0Z2YPDTDJVFABU1I"}
{"meta_move": "win", "rt": "626.0", "trial_number": "1", "pre_actions": "1", "move": "r@12", "instance": "prb33509", "distance_to_goal": "1", "progress": "NA", "move_number": "12", "optimal_length": "11", "subject": "A1LR0VQIHQUJAM:3YW4XOSQKRTI0K0Z2YPDTDJVFABU1I"}
{"meta_move": "drag_end", "rt": "44.0", "trial_number": "0", "pre_actions": "0", "move": "r@16", "instance": "prb33509", "distance_to_goal": "NA", "progress": "NA", "move_number": "12", "optimal_length": "11", "subject": "A1LR0VQIHQUJAM:3YW4XOSQKRTI0K0Z2YPDTDJVFABU1I"}
{"meta_move": "drag_end", "rt": "14036.0", "trial_number": "1", "pre_actions": "1", "move": "0@23", "instance": "prb33509", "distance_to_goal": "NA", "progress": "NA", "move_number": "0", "optimal_length": "11", "subject": "A214HWAW1PYWO8:34BBWHLWHBJ6SUL255PK30LEGY5IWG"}
{"meta_move": "drag_end", "rt": "1508.0", "trial_number": "1", "pre_actions": "1", "move": "0@5", "instance": "prb33509", "distance_to_goal": "NA", "progress": "NA", "move_number": "1", "optimal_length": "11", "subject": "A214HWAW1PYWO8:34BBWHLWHBJ6SUL255PK30LEGY5IWG"}
{"meta_move": "drag_end", "rt": "1041.0", "trial_number": "1", "pre_actions": "1", "move": "4@4", "instance": "prb33509", "distance_to_goal": "NA", "progress": "NA", "move_number": "2", "optimal_length": "11", "subject": "A214HWAW1PYWO8:34BBWHLWHBJ6SUL255PK30LEGY5IWG"}
{"meta_move": "drag_end", "rt": "3734.0", "trial_number": "1", "pre_actions": "1", "move": "1@8", "instance": "prb33509", "distance_to_goal": "NA", "progress": "NA", "move_number": "3", "optimal_length": "11", "subject": "A214HWAW1PYWO8:34BBWHLWHBJ6SUL255PK30LEGY5IWG"}
{"meta_move": "drag_end", "rt": "501.0", "trial_number": "1", "pre_actions": "1", "move": "5@1", "instance": "prb33509", "distance_to_goal": "NA", "progress": "NA", "move_number": "4", "optimal_length": "11", "subject": "A214HWAW1PYWO8:34BBWHLWHBJ6SUL255PK30LEGY5IWG"}
{"meta_move": "drag_end", "rt": "571.0", "trial_number": "1", "pre_actions": "1", "move": "6@0", "instance": "prb33509", "distance_to_goal": "NA", "progress": "NA", "move_number": "5", "optimal_length": "11", "subject": "A214HWAW1PYWO8:34BBWHLWHBJ6SUL255PK30LEGY5IWG"}
{"meta_move": "drag_end", "rt": "936.0", "trial_number": "1", "pre_actions": "1", "move": "r@12", "instance": "prb33509", "distance_to_goal": "NA", "progress": "NA", "move_number": "6", "optimal_length": "11", "subject": "A214HWAW1PYWO8:34BBWHLWHBJ6SUL255PK30LEGY5IWG"}
{"meta_move": "drag_end", "rt": "527.0", "trial_number": "1", "pre_actions": "1", "move": "3@14", "instance": "prb33509", "distance_to_goal": "NA", "progress": "NA", "move_number": "7", "optimal_length": "11", "subject": "A214HWAW1PYWO8:34BBWHLWHBJ6SUL255PK30LEGY5IWG"}
{"meta_move": "drag_end", "rt": "591.0", "trial_number": "1", "pre_actions": "1", "move": "7@31", "instance": "prb33509", "distance_to_goal": "NA", "progress": "NA", "move_number": "8", "optimal_length": "11", "subject": "A214HWAW1PYWO8:34BBWHLWHBJ6SUL255PK30LEGY5IWG"}
{"meta_move": "drag_end", "rt": "524.0", "trial_number": "1", "pre_actions": "1", "move": "4@22", "instance": "prb33509", "distance_to_goal": "NA", "progress": "NA", "move_number": "9", "optimal_length": "11", "subject": "A214HWAW1PYWO8:34BBWHLWHBJ6SUL255PK30LEGY5IWG"}
{"meta_move": "drag_end", "rt": "423.0", "trial_number": "1", "pre_actions": "1", "move": "0@23", "instance": "prb33509", "distance_to_goal": "NA", "progress": "NA", "move_number": "10", "optimal_length": "11", "subject": "A214HWAW1PYWO8:34BBWHLWHBJ6SUL255PK30LEGY5IWG"}
{"meta_move": "drag_end", "rt": "622.0", "trial_number": "1", "pre_actions": "1", "move": "1@10", "instance": "prb33509", "distance_to_goal": "NA", "progress": "NA", "move_number": "11", "optimal_length": "11", "subject": "A214HWAW1PYWO8:34BBWHLWHBJ6SUL255PK30LEGY5IWG"}
{"meta_move": "drag_end", "rt": "474.0", "trial_number": "1", "pre_actions": "1", "move": "5@4", "instance": "prb33509", "distance_to_goal": "NA", "progress": "NA", "move_number": "12", "optimal_length": "11", "subject": "A214HWAW1PYWO8:34BBWHLWHBJ6SUL255PK30LEGY5IWG"}
{"meta_move": "drag_end", "rt": "507.0", "trial_number": "1", "pre_actions": "1", "move": "3@2", "instance": "prb33509", "distance_to_goal": "NA", "progress": "NA", "move_number": "13", "optimal_length": "11", "subject": "A214HWAW1PYWO8:34BBWHLWHBJ6SUL255PK30LEGY5IWG"}
{"meta_move": "drag_end", "rt": "1102.0", "trial_number": "1", "pre_actions": "1", "move": "4@16", "instance": "prb33509", "distance_to_goal": "NA", "progress": "NA", "move_number": "14", "optimal_length": "11", "subject": "A214HWAW1PYWO8:34BBWHLWHBJ6SUL255PK30LEGY5IWG"}
{"meta_move": "drag_end", "rt": "396.0", "trial_number": "1", "pre_actions": "1", "move": "0@17", "instance": "prb33509", "distance_to_goal": "NA", "progress": "NA", "move_number": "15", "optimal_length": "11", "subject": "A214HWAW1PYWO8:34BBWHLWHBJ6SUL255PK30LEGY5IWG"}
{"meta_move": "drag_end", "rt": "563.0", "trial_number": "1", "pre_actions": "1", "move": "7@34", "instance": "prb33509", "distance_to_goal": "NA", "progress": "NA", "move_number": "16", "optimal_length": "11", "subject": "A214HWAW1PYWO8:34BBWHLWHBJ6SUL255PK30LEGY5IWG"}
{"meta_move": "drag_end", "rt": "528.0", "trial_number": "1", "pre_actions": "1", "move": "3@20", "instance": "prb33509", "distance_to_goal": "NA", "progress": "NA", "move_number": "17", "optimal_length": "11", "subject": "A214HWAW1PYWO8:34BBWHLWHBJ6SUL255PK30LEGY5IWG"}
{"meta_move": "drag_end", "rt": "534.0", "trial_number": "1", "pre_actions": "1", "move": "r@14", "instance": "prb33509", "distance_to_goal": "NA", "progress": "NA", "move_number": "18", "optimal_length": "11", "subject": "A214HWAW1PYWO8:34BBWHLWHBJ6SUL255PK30LEGY5IWG"}
{"meta_move": "drag_end", "rt": "2069.0", "trial_number": "1", "pre_actions": "1", "move": "7@33", "instance": "prb33509", "distance_to_goal": "NA", "progress": "NA", "move_number": "19", "optimal_length": "11", "subject": "A214HWAW1PYWO8:34BBWHLWHBJ6SUL255PK30LEGY5IWG"}
{"meta_move": "drag_end", "rt": "441.0", "trial_number": "1", "pre_actions": "1", "move": "7@33", "instance": "prb33509", "distance_to_goal": "NA", "progress": "NA", "move_number": "20", "optimal_length": "11", "subject": "A214HWAW1PYWO8:34BBWHLWHBJ6SUL255PK30LEGY5IWG"}
{"meta_move": "drag_end", "rt": "3074.0", "trial_number": "1", "pre_actions": "1", "move": "2@12", "instance": "prb33509", "distance_to_goal": "NA", "progress": "NA", "move_number": "20", "optimal_length": "11", "subject": "A214HWAW1PYWO8:34BBWHLWHBJ6SUL255PK30LEGY5IWG"}
{"meta_move": "drag_end", "rt": "498.0", "trial_number": "1", "pre_actions": "1", "move": "r@14", "instance": "prb33509", "distance_to_goal": "NA", "progress": "NA", "move_number": "21", "optimal_length": "11", "subject": "A214HWAW1PYWO8:34BBWHLWHBJ6SUL255PK30LEGY5IWG"}
{"meta_move": "drag_end", "rt": "600.0", "trial_number": "1", "pre_actions": "1", "move": "2@18", "instance": "prb33509", "distance_to_goal": "NA", "progress": "NA", "move_number": "21", "optimal_length": "11", "subject": "A214HWAW1PYWO8:34BBWHLWHBJ6SUL255PK30LEGY5IWG"}
{"meta_move": "drag_end", "rt": "444.0", "trial_number": "1", "pre_actions": "1", "move": "r@12", "instance": "prb33509", "distance_to_goal": "NA", "progress": "NA", "move_number": "22", "optimal_length": "11", "subject": "A214HWAW1PYWO8:34BBWHLWHBJ6SUL255PK30LEGY5IWG"}
{"meta_move": "drag_end", "rt": "867.0", "trial_number": "1", "pre_actions": "1", "move": "3@14", "instance": "prb33509", "distance_to_goal": "NA", "progress": "NA", "move_number": "23", "optimal_length": "11", "subject": "A214HWAW1PYWO8:34BBWHLWHBJ6SUL255PK30LEGY5IWG"}
{"meta_move": "drag_end", "rt": "524.0", "trial_number": "1", "pre_actions": "1", "move": "7@30", "instance": "prb33509", "distance_to_goal": "NA", "progress": "NA", "move_number": "24", "optimal_length": "11", "subject": "A214HWAW1PYWO8:34BBWHLWHBJ6SUL255PK30LEGY5IWG"}
{"meta_move": "drag_end", "rt": "487.0", "trial_number": "1", "pre_actions": "1", "move": "4@22", "instance": "prb33509", "distance_to_goal": "NA", "progress": "NA", "move_number": "25", "optimal_length": "11", "subject": "A214HWAW1PYWO8:34BBWHLWHBJ6SUL255PK30LEGY5IWG"}
{"meta_move": "drag_end", "rt": "311.0", "trial_number": "1", "pre_actions": "1", "move": "0@23", "instance": "prb33509", "distance_to_goal": "NA", "progress": "NA", "move_number": "26", "optimal_length": "11", "subject": "A214HWAW1PYWO8:34BBWHLWHBJ6SUL255PK30LEGY5IWG"}
{"meta_move": "drag_end", "rt": "399.0", "trial_number": "1", "pre_actions": "1", "move": "3@20", "instance": "prb33509", "distance_to_goal": "NA", "progress": "NA", "move_number": "27", "optimal_length": "11", "subject": "A214HWAW1PYWO8:34BBWHLWHBJ6SUL255PK30LEGY5IWG"}
{"meta_move": "win", "rt": "358.0", "trial_number": "1", "pre_actions": "1", "move": "r@12", "instance": "prb33509", "distance_to_goal": "1", "progress": "NA", "move_number": "28", "optimal_length": "11", "subject": "A214HWAW1PYWO8:34BBWHLWHBJ6SUL255PK30LEGY5IWG"}
{"meta_move": "drag_end", "rt": "12.0", "trial_number": "0", "pre_actions": "0", "move": "r@16", "instance": "prb33509", "distance_to_goal": "NA", "progress": "NA", "move_number": "28", "optimal_length": "11", "subject": "A214HWAW1PYWO8:34BBWHLWHBJ6SUL255PK30LEGY5IWG"}
{"meta_move": "drag_end", "rt": "5619.0", "trial_number": "1", "pre_actions": "1", "move": "1@9", "instance": "prb33509", "distance_to_goal": "NA", "progress": "NA", "move_number": "0", "optimal_length": "11", "subject": "A23437BMZ5T1FH:3IHR8NYAM89M0EPM8U9LH53ZJDTP4U"}
{"meta_move": "drag_end", "rt": "955.0", "trial_number": "1", "pre_actions": "1", "move": "6@12", "instance": "prb33509", "distance_to_goal": "NA", "progress": "NA", "move_number": "1", "optimal_length": "11", "subject": "A23437BMZ5T1FH:3IHR8NYAM89M0EPM8U9LH53ZJDTP4U"}
{"meta_move": "drag_end", "rt": "664.0", "trial_number": "1", "pre_actions": "1", "move": "r@13", "instance": "prb33509", "distance_to_goal": "NA", "progress": "NA", "move_number": "2", "optimal_length": "11", "subject": "A23437BMZ5T1FH:3IHR8NYAM89M0EPM8U9LH53ZJDTP4U"}
{"meta_move": "drag_end", "rt": "720.0", "trial_number": "1", "pre_actions": "1", "move": "r@14", "instance": "prb33509", "distance_to_goal": "NA", "progress": "NA", "move_number": "3", "optimal_length": "11", "subject": "A23437BMZ5T1FH:3IHR8NYAM89M0EPM8U9LH53ZJDTP4U"}
{"meta_move": "drag_end", "rt": "633.0", "trial_number": "1", "pre_actions": "1", "move": "6@6", "instance": "prb33509", "distance_to_goal": "NA", "progress": "NA", "move_number": "4", "optimal_length": "11", "subject": "A23437BMZ5T1FH:3IHR8NYAM89M0EPM8U9LH53ZJDTP4U"}
{"meta_move": "drag_end", "rt": "1249.0", "trial_number": "1", "pre_actions": "1", "move": "5@3", "instance": "prb33509", "distance_to_goal": "NA", "progress": "NA", "move_number": "5", "optimal_length": "11", "subject": "A23437BMZ5T1FH:3IHR8NYAM89M0EPM8U9LH53ZJDTP4U"}
{"meta_move": "drag_end", "rt": "493.0", "trial_number": "1", "pre_actions": "1", "move": "6@0", "instance": "prb33509", "distance_to_goal": "NA", "progress": "NA", "move_number": "6", "optimal_length": "11", "subject": "A23437BMZ5T1FH:3IHR8NYAM89M0EPM8U9LH53ZJDTP4U"}
{"meta_move": "drag_end", "rt": "662.0", "trial_number": "1", "pre_actions": "1", "move": "r@12", "instance": "prb33509", "distance_to_goal": "NA", "progress": "NA", "move_number": "7", "optimal_length": "11", "subject": "A23437BMZ5T1FH:3IHR8NYAM89M0EPM8U9LH53ZJDTP4U"}
{"meta_move": "drag_end", "rt": "849.0", "trial_number": "1", "pre_actions": "1", "move": "3@2", "instance": "prb33509", "distance_to_goal": "NA", "progress": "NA", "move_number": "8", "optimal_length": "11", "subject": "A23437BMZ5T1FH:3IHR8NYAM89M0EPM8U9LH53ZJDTP4U"}
{"meta_move": "drag_end", "rt": "792.0", "trial_number": "1", "pre_actions": "1", "move": "7@31", "instance": "prb33509", "distance_to_goal": "NA", "progress": "NA", "move_number": "9", "optimal_length": "11", "subject": "A23437BMZ5T1FH:3IHR8NYAM89M0EPM8U9LH53ZJDTP4U"}
{"meta_move": "drag_end", "rt": "720.0", "trial_number": "1", "pre_actions": "1", "move": "4@22", "instance": "prb33509", "distance_to_goal": "NA", "progress": "NA", "move_number": "10", "optimal_length": "11", "subject": "A23437BMZ5T1FH:3IHR8NYAM89M0EPM8U9LH53ZJDTP4U"}
{"meta_move": "drag_end", "rt": "1008.0", "trial_number": "1", "pre_actions": "1", "move": "3@8", "instance": "prb33509", "distance_to_goal": "NA", "progress": "NA", "move_number": "11", "optimal_length": "11", "subject": "A23437BMZ5T1FH:3IHR8NYAM89M0EPM8U9LH53ZJDTP4U"}
{"meta_move": "drag_end", "rt": "1233.0", "trial_number": "1", "pre_actions": "1", "move": "2@18", "instance": "prb33509", "distance_to_goal": "NA", "progress": "NA", "move_number": "12", "optimal_length": "11", "subject": "A23437BMZ5T1FH:3IHR8NYAM89M0EPM8U9LH53ZJDTP4U"}
{"meta_move": "drag_end", "rt": "527.0", "trial_number": "1", "pre_actions": "1", "move": "7@30", "instance": "prb33509", "distance_to_goal": "NA", "progress": "NA", "move_number": "13", "optimal_length": "11", "subject": "A23437BMZ5T1FH:3IHR8NYAM89M0EPM8U9LH53ZJDTP4U"}
{"meta_move": "drag_end", "rt": "584.0", "trial_number": "1", "pre_actions": "1", "move": "3@20", "instance": "prb33509", "distance_to_goal": "NA", "progress": "NA", "move_number": "14", "optimal_length": "11", "subject": "A23437BMZ5T1FH:3IHR8NYAM89M0EPM8U9LH53ZJDTP4U"}
{"meta_move": "drag_end", "rt": "760.0", "trial_number": "1", "pre_actions": "1", "move": "r@15", "instance": "prb33509", "distance_to_goal": "NA", "progress": "NA", "move_number": "15", "optimal_length": "11", "subject": "A23437BMZ5T1FH:3IHR8NYAM89M0EPM8U9LH53ZJDTP4U"}
{"meta_move": "drag_end", "rt": "721.0", "trial_number": "1", "pre_actions": "1", "move": "0@23", "instance": "prb33509", "distance_to_goal": "NA", "progress": "NA", "move_number": "16", "optimal_length": "11", "subject": "A23437BMZ5T1FH:3IHR8NYAM89M0EPM8U9LH53ZJDTP4U"}
{"meta_move": "win", "rt": "408.0", "trial_number": "1", "pre_actions": "1", "move": "r@15", "instance": "prb33509", "distance_to_goal": "1", "progress": "NA", "move_number": "17", "optimal_length": "11", "subject": "A23437BMZ5T1FH:3IHR8NYAM89M0EPM8U9LH53ZJDTP4U"}
{"meta_move": "drag_end", "rt": "86.0", "trial_number": "0", "pre_actions": "0", "move": "r@16", "instance": "prb33509", "distance_to_goal": "NA", "progress": "NA", "move_number": "17", "optimal_length": "11", "subject": "A23437BMZ5T1FH:3IHR8NYAM89M0EPM8U9LH53ZJDTP4U"}
{"meta_move": "drag_end", "rt": "11149.0", "trial_number": "1", "pre_actions": "1", "move": "6@6", "instance": "prb33509", "distance_to_goal": "NA", "progress": "NA", "move_number": "0", "optimal_length": "11", "subject": "A289D98Z4GAZ28:3ZV9H2YQQEFR2R3JK2IXZUJPXAF3WW"}
{"meta_move": "drag_end", "rt": "3472.0", "trial_number": "1", "pre_actions": "1", "move": "4@16", "instance": "prb33509", "distance_to_goal": "NA", "progress": "NA", "move_number": "0", "optimal_length": "11", "subject": "A289D98Z4GAZ28:3ZV9H2YQQEFR2R3JK2IXZUJPXAF3WW"}
{"meta_move": "drag_end", "rt": "4606.0", "trial_number": "1", "pre_actions": "1", "move": "7@33", "instance": "prb33509", "distance_to_goal": "NA", "progress": "NA", "move_number": "0", "optimal_length": "11", "subject": "A289D98Z4GAZ28:3ZV9H2YQQEFR2R3JK2IXZUJPXAF3WW"}
{"meta_move": "drag_end", "rt": "1339.0", "trial_number": "1", "pre_actions": "1", "move": "r@14", "instance": "prb33509", "distance_to_goal": "NA", "progress": "NA", "move_number": "0", "optimal_length": "11", "subject": "A289D98Z4GAZ28:3ZV9H2YQQEFR2R3JK2IXZUJPXAF3WW"}
{"meta_move": "drag_end", "rt": "918.0", "trial_number": "1", "pre_actions": "1", "move": "5@1", "instance": "prb33509", "distance_to_goal": "NA", "progress": "NA", "move_number": "0", "optimal_length": "11", "subject": "A289D98Z4GAZ28:3ZV9H2YQQEFR2R3JK2IXZUJPXAF3WW"}
{"meta_move": "drag_end", "rt": "704.0", "trial_number": "1", "pre_actions": "1", "move": "6@0", "instance": "prb33509", "distance_to_goal": "NA", "progress": "NA", "move_number": "1", "optimal_length": "11", "subject": "A289D98Z4GAZ28:3ZV9H2YQQEFR2R3JK2IXZUJPXAF3WW"}
{"meta_move": "drag_end", "rt": "744.0", "trial_number": "1", "pre_actions": "1", "move": "r@12", "instance": "prb33509", "distance_to_goal": "NA", "progress": "NA", "move_number": "2", "optimal_length": "11", "subject": "A289D98Z4GAZ28:3ZV9H2YQQEFR2R3JK2IXZUJPXAF3WW"}
{"meta_move": "drag_end", "rt": "730.0", "trial_number": "1", "pre_actions": "1", "move": "3@14", "instance": "prb33509", "distance_to_goal": "NA", "progress": "NA", "move_number": "3", "optimal_length": "11", "subject": "A289D98Z4GAZ28:3ZV9H2YQQEFR2R3JK2IXZUJPXAF3WW"}
{"meta_move": "drag_end", "rt": "860.0", "trial_number": "1", "pre_actions": "1", "move": "7@31", "instance": "prb33509", "distance_to_goal": "NA", "progress": "NA", "move_number": "4", "optimal_length": "11", "subject": "A289D98Z4GAZ28:3ZV9H2YQQEFR2R3JK2IXZUJPXAF3WW"}
{"meta_move": "drag_end", "rt": "529.0", "trial_number": "1", "pre_actions": "1", "move": "2@18", "instance": "prb33509", "distance_to_goal": "NA", "progress": "NA", "move_number": "5", "optimal_length": "11", "subject": "A289D98Z4GAZ28:3ZV9H2YQQEFR2R3JK2IXZUJPXAF3WW"}
{"meta_move": "drag_end", "rt": "736.0", "trial_number": "1", "pre_actions": "1", "move": "7@30", "instance": "prb33509", "distance_to_goal": "NA", "progress": "NA", "move_number": "6", "optimal_length": "11", "subject": "A289D98Z4GAZ28:3ZV9H2YQQEFR2R3JK2IXZUJPXAF3WW"}
{"meta_move": "drag_end", "rt": "1057.0", "trial_number": "1", "pre_actions": "1", "move": "3@20", "instance": "prb33509", "distance_to_goal": "NA", "progress": "NA", "move_number": "7", "optimal_length": "11", "subject": "A289D98Z4GAZ28:3ZV9H2YQQEFR2R3JK2IXZUJPXAF3WW"}
{"meta_move": "drag_end", "rt": "752.0", "trial_number": "1", "pre_actions": "1", "move": "4@22", "instance": "prb33509", "distance_to_goal": "NA", "progress": "NA", "move_number": "8", "optimal_length": "11", "subject": "A289D98Z4GAZ28:3ZV9H2YQQEFR2R3JK2IXZUJPXAF3WW"}
{"meta_move": "drag_end", "rt": "841.0", "trial_number": "1", "pre_actions": "1", "move": "0@23", "instance": "prb33509", "distance_to_goal": "NA", "progress": "NA", "move_number": "9", "optimal_length": "11", "subject": "A289D98Z4GAZ28:3ZV9H2YQQEFR2R3JK2IXZUJPXAF3WW"}
{"meta_move": "win", "rt": "834.0", "trial_number": "1", "pre_actions": "1", "move": "r@12", "instance": "prb33509", "distance_to_goal": "1", "progress": "NA", "move_number": "10", "optimal_length": "11", "subject": "A289D98Z4GAZ28:3ZV9H2YQQEFR2R3JK2IXZUJPXAF3WW"}
{"meta_move": "drag_end", "rt": "243.0", "trial_number": "0", "pre_actions": "0", "move": "r@16", "instance": "prb33509", "distance_to_goal": "NA", "progress": "NA", "move_number": "10", "optimal_length": "11", "subject": "A289D98Z4GAZ28:3ZV9H2YQQEFR2R3JK2IXZUJPXAF3WW"}
{"meta_move": "drag_end", "rt": "1522.0", "trial_number": "1", "pre_actions": "1", "move": "0@23", "instance": "prb33509", "distance_to_goal": "NA", "progress": "NA", "move_number": "0", "optimal_length": "11", "subject": "A2IBQA01NR5N76:3X4MXAO0BHWJLTOLVSJTHSM54OHWRG"}
{"meta_move": "drag_end", "rt": "978.0", "trial_number": "1", "pre_actions": "1", "move": "4@4", "instance": "prb33509", "distance_to_goal": "NA", "progress": "NA", "move_number": "1", "optimal_length": "11", "subject": "A2IBQA01NR5N76:3X4MXAO0BHWJLTOLVSJTHSM54OHWRG"}
{"meta_move": "drag_end", "rt": "1482.0", "trial_number": "1", "pre_actions": "1", "move": "4@16", "instance": "prb33509", "distance_to_goal": "NA", "progress": "NA", "move_number": "2", "optimal_length": "11", "subject": "A2IBQA01NR5N76:3X4MXAO0BHWJLTOLVSJTHSM54OHWRG"}
{"meta_move": "drag_end", "rt": "641.0", "trial_number": "1", "pre_actions": "1", "move": "r@14", "instance": "prb33509", "distance_to_goal": "NA", "progress": "NA", "move_number": "3", "optimal_length": "11", "subject": "A2IBQA01NR5N76:3X4MXAO0BHWJLTOLVSJTHSM54OHWRG"}
{"meta_move": "drag_end", "rt": "4606.0", "trial_number": "1", "pre_actions": "1", "move": "1@10", "instance": "prb33509", "distance_to_goal": "NA", "progress": "NA", "move_number": "3", "optimal_length": "11", "subject": "A2IBQA01NR5N76:3X4MXAO0BHWJLTOLVSJTHSM54OHWRG"}
{"meta_move": "drag_end", "rt": "811.0", "trial_number": "1", "pre_actions": "1", "move": "2@18", "instance": "prb33509", "distance_to_goal": "NA", "progress": "NA", "move_number": "4", "optimal_length": "11", "subject": "A2IBQA01NR5N76:3X4MXAO0BHWJLTOLVSJTHSM54OHWRG"}
{"meta_move": "drag_end", "rt": "1571.0", "trial_number": "1", "pre_actions": "1", "move": "r@14", "instance": "prb33509", "distance_to_goal": "NA", "progress": "NA", "move_number": "5", "optimal_length": "11", "subject": "A2IBQA01NR5N76:3X4MXAO0BHWJLTOLVSJTHSM54OHWRG"}
{"meta_move": "drag_end", "rt": "639.0", "trial_number": "1", "pre_actions": "1", "move": "1@7", "instance": "prb33509", "distance_to_goal": "NA", "progress": "NA", "move_number": "5", "optimal_length": "11", "subject": "A2IBQA01NR5N76:3X4MXAO0BHWJLTOLVSJTHSM54OHWRG"}
{"meta_move": "drag_end", "rt": "2171.0", "trial_number": "1", "pre_actions": "1", "move": "2@24", "instance": "prb33509", "distance_to_goal": "NA", "progress": "NA", "move_number": "6", "optimal_length": "11", "subject": "A2IBQA01NR5N76:3X4MXAO0BHWJLTOLVSJTHSM54OHWRG"}
{"meta_move": "drag_end", "rt": "436.0", "trial_number": "1", "pre_actions": "1", "move": "6@12", "instance": "prb33509", "distance_to_goal": "NA", "progress": "NA", "move_number": "7", "optimal_length": "11", "subject": "A2IBQA01NR5N76:3X4MXAO0BHWJLTOLVSJTHSM54OHWRG"}
{"meta_move": "drag_end", "rt": "569.0", "trial_number": "1", "pre_actions": "1", "move": "1@6", "instance": "prb33509", "distance_to_goal": "NA", "progress": "NA", "move_number": "8", "optimal_length": "11", "subject": "A2IBQA01NR5N76:3X4MXAO0BHWJLTOLVSJTHSM54OHWRG"}
{"meta_move": "drag_end", "rt": "1067.0", "trial_number": "1", "pre_actions": "1", "move": "4@4", "instance": "prb33509", "distance_to_goal": "NA", "progress": "NA", "move_number": "9", "optimal_length": "11", "subject": "A2IBQA01NR5N76:3X4MXAO0BHWJLTOLVSJTHSM54OHWRG"}
{"meta_move": "drag_end", "rt": "1911.0", "trial_number": "1", "pre_actions": "1", "move": "4@16", "instance": "prb33509", "distance_to_goal": "NA", "progress": "NA", "move_number": "10", "optimal_length": "11", "subject": "A2IBQA01NR5N76:3X4MXAO0BHWJLTOLVSJTHSM54OHWRG"}
{"meta_move": "drag_end", "rt": "1195.0", "trial_number": "1", "pre_actions": "1", "move": "r@13", "instance": "prb33509", "distance_to_goal": "NA", "progress": "NA", "move_number": "11", "optimal_length": "11", "subject": "A2IBQA01NR5N76:3X4MXAO0BHWJLTOLVSJTHSM54OHWRG"}
{"meta_move": "drag_end", "rt": "1526.0", "trial_number": "1", "pre_actions": "1", "move": "4@16", "instance": "prb33509", "distance_to_goal": "NA", "progress": "NA", "move_number": "12", "optimal_length": "11", "subject": "A2IBQA01NR5N76:3X4MXAO0BHWJLTOLVSJTHSM54OHWRG"}
{"meta_move": "drag_end", "rt": "2897.0", "trial_number": "1", "pre_actions": "1", "move": "r@14", "instance": "prb33509", "distance_to_goal": "NA", "progress": "NA", "move_number": "12", "optimal_length": "11", "subject": "A2IBQA01NR5N76:3X4MXAO0BHWJLTOLVSJTHSM54OHWRG"}
{"meta_move": "drag_end", "rt": "786.0", "trial_number": "1", "pre_actions": "1", "move": "4@4", "instance": "prb33509", "distance_to_goal": "NA", "progress": "NA", "move_number": "13", "optimal_length": "11", "subject": "A2IBQA01NR5N76:3X4MXAO0BHWJLTOLVSJTHSM54OHWRG"}
{"meta_move": "drag_end", "rt": "548.0", "trial_number": "1", "pre_actions": "1", "move": "r@14", "instance": "prb33509", "distance_to_goal": "NA", "progress": "NA", "move_number": "14", "optimal_length": "11", "subject": "A2IBQA01NR5N76:3X4MXAO0BHWJLTOLVSJTHSM54OHWRG"}
{"meta_move": "drag_end", "rt": "625.0", "trial_number": "1", "pre_actions": "1", "move": "4@16", "instance": "prb33509", "distance_to_goal": "NA", "progress": "NA", "move_number": "14", "optimal_length": "11", "subject": "A2IBQA01NR5N76:3X4MXAO0BHWJLTOLVSJTHSM54OHWRG"}
{"meta_move": "drag_end", "rt": "2764.0", "trial_number": "1", "pre_actions": "1", "move": "1@10", "instance": "prb33509", "distance_to_goal": "NA", "progress": "NA", "move_number": "15", "optimal_length": "11", "subject": "A2IBQA01NR5N76:3X4MXAO0BHWJLTOLVSJTHSM54OHWRG"}
{"meta_move": "drag_end", "rt": "803.0", "trial_number": "1", "pre_actions": "1", "move": "5@4", "instance": "prb33509", "distance_to_goal": "NA", "progress": "NA", "move_number": "16", "optimal_length": "11", "subject": "A2IBQA01NR5N76:3X4MXAO0BHWJLTOLVSJTHSM54OHWRG"}
{"meta_move": "drag_end", "rt": "633.0", "trial_number": "1", "pre_actions": "1", "move": "6@0", "instance": "prb33509", "distance_to_goal": "NA", "progress": "NA", "move_number": "17", "optimal_length": "11", "subject": "A2IBQA01NR5N76:3X4MXAO0BHWJLTOLVSJTHSM54OHWRG"}
{"meta_move": "drag_end", "rt": "609.0", "trial_number": "1", "pre_actions": "1", "move": "2@12", "instance": "prb33509", "distance_to_goal": "NA", "progress": "NA", "move_number": "18", "optimal_length": "11", "subject": "A2IBQA01NR5N76:3X4MXAO0BHWJLTOLVSJTHSM54OHWRG"}
{"meta_move": "drag_end", "rt": "2801.0", "trial_number": "1", "pre_actions": "1", "move": "1@7", "instance": "prb33509", "distance_to_goal": "NA", "progress": "NA", "move_number": "19", "optimal_length": "11", "subject": "A2IBQA01NR5N76:3X4MXAO0BHWJLTOLVSJTHSM54OHWRG"}
{"meta_move": "drag_end", "rt": "1396.0", "trial_number": "1", "pre_actions": "1", "move": "4@10", "instance": "prb33509", "distance_to_goal": "NA", "progress": "NA", "move_number": "20", "optimal_length": "11", "subject": "A2IBQA01NR5N76:3X4MXAO0BHWJLTOLVSJTHSM54OHWRG"}
{"meta_move": "drag_end", "rt": "1819.0", "trial_number": "1", "pre_actions": "1", "move": "0@11", "instance": "prb33509", "distance_to_goal": "NA", "progress": "NA", "move_number": "21", "optimal_length": "11", "subject": "A2IBQA01NR5N76:3X4MXAO0BHWJLTOLVSJTHSM54OHWRG"}
{"meta_move": "drag_end", "rt": "706.0", "trial_number": "1", "pre_actions": "1", "move": "7@34", "instance": "prb33509", "distance_to_goal": "NA", "progress": "NA", "move_number": "22", "optimal_length": "11", "subject": "A2IBQA01NR5N76:3X4MXAO0BHWJLTOLVSJTHSM54OHWRG"}
{"meta_move": "drag_end", "rt": "1949.0", "trial_number": "1", "pre_actions": "1", "move": "1@8", "instance": "prb33509", "distance_to_goal": "NA", "progress": "NA", "move_number": "23", "optimal_length": "11", "subject": "A2IBQA01NR5N76:3X4MXAO0BHWJLTOLVSJTHSM54OHWRG"}
{"meta_move": "drag_end", "rt": "1583.0", "trial_number": "1", "pre_actions": "1", "move": "4@16", "instance": "prb33509", "distance_to_goal": "NA", "progress": "NA", "move_number": "24", "optimal_length": "11", "subject": "A2IBQA01NR5N76:3X4MXAO0BHWJLTOLVSJTHSM54OHWRG"}
{"meta_move": "drag_end", "rt": "399.0", "trial_number": "1", "pre_actions": "1", "move": "0@17", "instance": "prb33509", "distance_to_goal": "NA", "progress": "NA", "move_number": "25", "optimal_length": "11", "subject": "A2IBQA01NR5N76:3X4MXAO0BHWJLTOLVSJTHSM54OHWRG"}
{"meta_move": "drag_end", "rt": "917.0", "trial_number": "1", "pre_actions": "1", "move": "2@24", "instance": "prb33509", "distance_to_goal": "NA", "progress": "NA", "move_number": "26", "optimal_length": "11", "subject": "A2IBQA01NR5N76:3X4MXAO0BHWJLTOLVSJTHSM54OHWRG"}
{"meta_move": "drag_end", "rt": "600.0", "trial_number": "1", "pre_actions": "1", "move": "r@12", "instance": "prb33509", "distance_to_goal": "NA", "progress": "NA", "move_number": "27", "optimal_length": "11", "subject": "A2IBQA01NR5N76:3X4MXAO0BHWJLTOLVSJTHSM54OHWRG"}
{"meta_move": "drag_end", "rt": "763.0", "trial_number": "1", "pre_actions": "1", "move": "1@10", "instance": "prb33509", "distance_to_goal": "NA", "progress": "NA", "move_number": "28", "optimal_length": "11", "subject": "A2IBQA01NR5N76:3X4MXAO0BHWJLTOLVSJTHSM54OHWRG"}
{"meta_move": "drag_end", "rt": "847.0", "trial_number": "1", "pre_actions": "1", "move": "3@2", "instance": "prb33509", "distance_to_goal": "NA", "progress": "NA", "move_number": "29", "optimal_length": "11", "subject": "A2IBQA01NR5N76:3X4MXAO0BHWJLTOLVSJTHSM54OHWRG"}
{"meta_move": "drag_end", "rt": "1091.0", "trial_number": "1", "pre_actions": "1", "move": "2@18", "instance": "prb33509", "distance_to_goal": "NA", "progress": "NA", "move_number": "30", "optimal_length": "11", "subject": "A2IBQA01NR5N76:3X4MXAO0BHWJLTOLVSJTHSM54OHWRG"}
{"meta_move": "drag_end", "rt": "772.0", "trial_number": "1", "pre_actions": "1", "move": "7@30", "instance": "prb33509", "distance_to_goal": "NA", "progress": "NA", "move_number": "31", "optimal_length": "11", "subject": "A2IBQA01NR5N76:3X4MXAO0BHWJLTOLVSJTHSM54OHWRG"}
{"meta_move": "drag_end", "rt": "532.0", "trial_number": "1", "pre_actions": "1", "move": "4@22", "instance": "prb33509", "distance_to_goal": "NA", "progress": "NA", "move_number": "32", "optimal_length": "11", "subject": "A2IBQA01NR5N76:3X4MXAO0BHWJLTOLVSJTHSM54OHWRG"}
{"meta_move": "drag_end", "rt": "437.0", "trial_number": "1", "pre_actions": "1", "move": "0@23", "instance": "prb33509", "distance_to_goal": "NA", "progress": "NA", "move_number": "33", "optimal_length": "11", "subject": "A2IBQA01NR5N76:3X4MXAO0BHWJLTOLVSJTHSM54OHWRG"}
{"meta_move": "drag_end", "rt": "844.0", "trial_number": "1", "pre_actions": "1", "move": "3@20", "instance": "prb33509", "distance_to_goal": "NA", "progress": "NA", "move_number": "34", "optimal_length": "11", "subject": "A2IBQA01NR5N76:3X4MXAO0BHWJLTOLVSJTHSM54OHWRG"}
{"meta_move": "win", "rt": "671.0", "trial_number": "1", "pre_actions": "1", "move": "r@12", "instance": "prb33509", "distance_to_goal": "1", "progress": "NA", "move_number": "35", "optimal_length": "11", "subject": "A2IBQA01NR5N76:3X4MXAO0BHWJLTOLVSJTHSM54OHWRG"}
{"meta_move": "drag_end", "rt": "859.0", "trial_number": "0", "pre_actions": "0", "move": "r@16", "instance": "prb33509", "distance_to_goal": "NA", "progress": "NA", "move_number": "35", "optimal_length": "11", "subject": "A2IBQA01NR5N76:3X4MXAO0BHWJLTOLVSJTHSM54OHWRG"}
{"meta_move": "drag_end", "rt": "4580.0", "trial_number": "1", "pre_actions": "1", "move": "4@16", "instance": "prb33509", "distance_to_goal": "NA", "progress": "NA", "move_number": "0", "optimal_length": "11", "subject": "A2RTJ6BDY0DZVZ:3IJXV6UZ1YR1KY4G6BFEG1DXP7SRI1"}
{"meta_move": "drag_end", "rt": "6652.0", "trial_number": "1", "pre_actions": "1", "move": "7@33", "instance": "prb33509", "distance_to_goal": "NA", "progress": "NA", "move_number": "0", "optimal_length": "11", "subject": "A2RTJ6BDY0DZVZ:3IJXV6UZ1YR1KY4G6BFEG1DXP7SRI1"}
{"meta_move": "drag_end", "rt": "4704.0", "trial_number": "1", "pre_actions": "1", "move": "1@7", "instance": "prb33509", "distance_to_goal": "NA", "progress": "NA", "move_number": "0", "optimal_length": "11", "subject": "A2RTJ6BDY0DZVZ:3IJXV6UZ1YR1KY4G6BFEG1DXP7SRI1"}
{"meta_move": "drag_end", "rt": "3136.0", "trial_number": "1", "pre_actions": "1", "move": "4@4", "instance": "prb33509", "distance_to_goal": "NA", "progress": "NA", "move_number": "0", "optimal_length": "11", "subject": "A2RTJ6BDY0DZVZ:3IJXV6UZ1YR1KY4G6BFEG1DXP7SRI1"}
{"meta_move": "drag_end", "rt": "2347.0", "trial_number": "1", "pre_actions": "1", "move": "4@16", "instance": "prb33509", "distance_to_goal": "NA", "progress": "NA", "move_number": "1", "optimal_length": "11", "subject": "A2RTJ6BDY0DZVZ:3IJXV6UZ1YR1KY4G6BFEG1DXP7SRI1"}
{"meta_move": "drag_end", "rt": "1055.0", "trial_number": "1", "pre_actions": "1", "move": "r@13", "instance": "prb33509", "distance_to_goal": "NA", "progress": "NA", "move_number": "2", "optimal_length": "11", "subject": "A2RTJ6BDY0DZVZ:3IJXV6UZ1YR1KY4G6BFEG1DXP7SRI1"}
