{"rt": "22760.0", "trial_number": "0", "skipped": "False", "complete": "True", "assignment": "3TYCR1GOTDRCCQYD1V64UK7OHTBZLQ", "start_time": "1.51753692162e+12", "human_length": "21", "nodes_expanded": "999", "instance": "prb33509", "end_time": "1.51753694438e+12", "optimal_length": "11", "subject": "A13BZCNJ0WR1T7"}
{"rt": "37911.0", "trial_number": "0", "skipped": "False", "complete": "True", "assignment": "3TS1AR6UQRM7SOIBWPBN8N9589Y7FV", "start_time": "1.51684497096e+12", "human_length": "44", "nodes_expanded": "999", "instance": "prb33509", "end_time": "1.51684500887e+12", "optimal_length": "11", "subject": "A15FXHC1CVNW31"}
{"rt": "56886.0", "trial_number": "0", "skipped": "False", "complete": "False", "assignment": "3VE8AYVF8N5BS2NU6U3TMN50JMNF8V", "start_time": "1.51673565023e+12", "human_length": "19", "nodes_expanded": "999", "instance": "prb33509", "end_time": "1.51673570712e+12", "optimal_length": "11", "subject": "A18QU0YQB6Q8DF"}
{"rt": "24186.0", "trial_number": "1", "skipped": "False", "complete": "False", "assignment": "3VE8AYVF8N5BS2NU6U3TMN50JMNF8V", "start_time": "1.51673571065e+12", "human_length": "10", "nodes_expanded": "999", "instance": "prb33509", "end_time": "1.51673573483e+12", "optimal_length": "11", "subject": "A18QU0YQB6Q8DF"}
{"rt": "0.0", "trial_number": "2", "skipped": "False", "complete": "False", "assignment": "3VE8AYVF8N5BS2NU6U3TMN50JMNF8V", "start_time": "1.51673573592e+12", "human_length": "1", "nodes_expanded": "999", "instance": "prb33509", "end_time": "1.51673573592e+12", "optimal_length": "11", "subject": "A18QU0YQB6Q8DF"}
{"rt": "0.0", "trial_number": "3", "skipped": "False", "complete": "False", "assignment": "3VE8AYVF8N5BS2NU6U3TMN50JMNF8V", "start_time": "1.51673565023e+12", "human_length": "1", "nodes_expanded": "999", "instance": "prb33509", "end_time": "1.51673565023e+12", "optimal_length": "11", "subject": "A18QU0YQB6Q8DF"}
{"rt": "0.0", "trial_number": "4", "skipped": "False", "complete": "False", "assignment": "3VE8AYVF8N5BS2NU6U3TMN50JMNF8V", "start_time": "1.51673571065e+12", "human_length": "1", "nodes_expanded": "999", "instance": "prb33509", "end_time": "1.51673571065e+12", "optimal_length": "11", "subject": "A18QU0YQB6Q8DF"}
{"rt": "0.0", "trial_number": "5", "skipped": "False", "complete": "False", "assignment": "3VE8AYVF8N5BS2NU6U3TMN50JMNF8V", "start_time": "1.51673573592e+12", "human_length": "1", "nodes_expanded": "999", "instance": "prb33509", "end_time": "1.51673573592e+12", "optimal_length": "11", "subject": "A18QU0YQB6Q8DF"}
{"rt": "0.0", "trial_number": "6", "skipped": "False", "complete": "False", "assignment": "3VE8AYVF8N5BS2NU6U3TMN50JMNF8V", "start_time": "1.51673565023e+12", "human_length": "1", "nodes_expanded": "999", "instance": "prb33509", "end_time": "1.51673565023e+12", "optimal_length": "11", "subject": "A18QU0YQB6Q8DF"}
{"rt": "0.0", "trial_number": "7", "skipped": "False", "complete": "False", "assignment": "3VE8AYVF8N5BS2NU6U3TMN50JMNF8V", "start_time": "1.51673571065e+12", "human_length": "1", "nodes_expanded": "999", "instance": "prb33509", "end_time": "1.51673571065e+12", "optimal_length": "11", "subject": "A18QU0YQB6Q8DF"}
{"rt": "26387.0", "trial_number": "8", "skipped": "True", "complete": "False", "assignment": "3VE8AYVF8N5BS2NU6U3TMN50JMNF8V", "start_time": "1.51673573592e+12", "human_length": "89", "nodes_expanded": "999", "instance": "prb33509", "end_time": "1.51673576231e+12", "optimal_length": "11", "subject": "A18QU0YQB6Q8DF"}
{"rt": "56886.0", "trial_number": "0", "skipped": "False", "complete": "False", "assignment": "3VE8AYVF8N5BS2NU6U3TMN50JMNF8V", "start_time": "1.51673565023e+12", "human_length": "19", "nodes_expanded": "999", "instance": "prb33509", "end_time": "1.51673570712e+12", "optimal_length": "11", "subject": "A18QU0YQB6Q8DF"}
{"rt": "24186.0", "trial_number": "1", "skipped": "False", "complete": "False", "assignment": "3VE8AYVF8N5BS2NU6U3TMN50JMNF8V", "start_time": "1.51673571065e+12", "human_length": "10", "nodes_expanded": "999", "instance": "prb33509", "end_time": "1.51673573483e+12", "optimal_length": "11", "subject": "A18QU0YQB6Q8DF"}
{"rt": "26387.0", "trial_number": "2", "skipped": "True", "complete": "False", "assignment": "3VE8AYVF8N5BS2NU6U3TMN50JMNF8V", "start_time": "1.51673573592e+12", "human_length": "10", "nodes_expanded": "999", "instance": "prb33509", "end_time": "1.51673576231e+12", "optimal_length": "11", "subject": "A18QU0YQB6Q8DF"}
{"rt": "17499.0", "trial_number": "0", "skipped": "False", "complete": "True", "assignment": "3IJXV6UZ1YR1KY4G6BFEG1DXR47RIC", "start_time": "1.51797465763e+12", "human_length": "19", "nodes_expanded": "999", "instance": "prb33509", "end_time": "1.51797467513e+12", "optimal_length": "11", "subject": "A18T3WK7J16C1B"}
{"rt": "131355.0", "trial_number": "0", "skipped": "False", "complete": "True", "assignment": "3PMBY0YE28B43VMUKKJ6EDF85RV9C8", "start_time": "1.51638597193e+12", "human_length": "91", "nodes_expanded": "999", "instance": "prb33509", "end_time": "1.51638610329e+12", "optimal_length": "11", "subject": "A191V7PT3DQKDP"}
{"rt": "57310.0", "trial_number": "0", "skipped": "False", "complete": "True", "assignment": "3H0W84IWBLAP4T2UASPNVMF5ZH7ER9", "start_time": "1.51755268238e+12", "human_length": "31", "nodes_expanded": "999", "instance": "prb33509", "end_time": "1.51755273969e+12", "optimal_length": "11", "subject": "A1AKX1C8GCVCTP"}
{"rt": "15570.0", "trial_number": "0", "skipped": "False", "complete": "True", "assignment": "3ZSANO2JCGFTBM23KS9Y3E51YP4FSQ", "start_time": "1.51814266812e+12", "human_length": "17", "nodes_expanded": "999", "instance": "prb33509", "end_time": "1.51814268369e+12", "optimal_length": "11", "subject": "A1F42D4L22K5ND"}
{"rt": "44901.0", "trial_number": "0", "skipped": "False", "complete": "True", "assignment": "3TS1AR6UQRM7SOIBWPBN8N9589Y7FV", "start_time": "1.51683978565e+12", "human_length": "41", "nodes_expanded": "999", "instance": "prb33509", "end_time": "1.51683983055e+12", "optimal_length": "11", "subject": "A1F4N58CAX8IMK"}
{"rt": "81196.0", "trial_number": "1", "skipped": "False", "complete": "True", "assignment": "35DR22AR5ES6RR89U7EJ1DXW91AX3P", "start_time": "1.51795259169e+12", "human_length": "75", "nodes_expanded": "999", "instance": "prb33509", "end_time": "1.51795267288e+12", "optimal_length": "11", "subject": "A1F4N58CAX8IMK"}
{"rt": "22783.0", "trial_number": "0", "skipped": "False", "complete": "True", "assignment": "33F859I567LE8WC74WB3GA7E94XBHW", "start_time": "1.51796740603e+12", "human_length": "14", "nodes_expanded": "999", "instance": "prb33509", "end_time": "1.51796742881e+12", "optimal_length": "11", "subject": "A1GQS6USF2JEYG"}
{"rt": "19504.0", "trial_number": "0", "skipped": "False", "complete": "True", "assignment": "3XLBSAQ9Z5KDX59BX15UBFPNNHYZ7Q", "start_time": "1.51814536672e+12", "human_length": "14", "nodes_expanded": "999", "instance": "prb33509", "end_time": "1.51814538623e+12", "optimal_length": "11", "subject": "A1HFNOKU591WCY"}
{"rt": "14067.0", "trial_number": "0", "skipped": "False", "complete": "True", "assignment": "3FTF2T8WLSQDHTSZ1BJ7Q7MB14SW9H", "start_time": "1.51813607552e+12", "human_length": "12", "nodes_expanded": "999", "instance": "prb33509", "end_time": "1.51813608959e+12", "optimal_length": "11", "subject": "A1IUH9D7N69VS"}
{"rt": "19846.0", "trial_number": "0", "skipped": "False", "complete": "True", "assignment": "3VE8AYVF8N5BS2NU6U3TMN50MV38FP", "start_time": "1.51814263588e+12", "human_length": "11", "nodes_expanded": "999", "instance": "prb33509", "end_time": "1.51814265573e+12", "optimal_length": "11", "subject": "A1JN13098RIE78"}
{"rt": "0.0", "trial_number": "0", "skipped": "False", "complete": "False", "assignment": "3YW4XOSQKRTI0K0Z2YPDTDJVFABU1I", "start_time": "1.51683044876e+12", "human_length": "1", "nodes_expanded": "999", "instance": "prb33509", "end_time": "1.51683044876e+12", "optimal_length": "11", "subject": "A1LR0VQIHQUJAM"}
{"rt": "18320.0", "trial_number": "1", "skipped": "False", "complete": "True", "assignment": "3YW4XOSQKRTI0K0Z2YPDTDJVFABU1I", "start_time": "1.51683044876e+12", "human_length": "14", "nodes_expanded": "999", "instance": "prb33509", "end_time": "1.51683046708e+12", "optimal_length": "11", "subject": "A1LR0VQIHQUJAM"}
{"rt": "14689.0", "trial_number": "0", "skipped": "False", "complete": "True", "assignment": "3R5F3LQFV3SKIB1AENMWM1BICT5OZB", "start_time": "1.51795966191e+12", "human_length": "15", "nodes_expanded": "999", "instance": "prb33509", "end_time": "1.5179596766e+12", "optimal_length": "11", "subject": "A1N1EF0MIRSEZZ"}
{"rt": "27679.0", "trial_number": "0", "skipped": "False", "complete": "True", "assignment": "31LM9EDVOM0C0BWUVMJXJINN3QPJNI", "start_time": "1.51752279994e+12", "human_length": "14", "nodes_expanded": "999", "instance": "prb33509", "end_time": "1.51752282762e+12", "optimal_length": "11", "subject": "A1NT8BT94ME6F5"}
{"rt": "32797.0", "trial_number": "0", "skipped": "False", "complete": "True", "assignment": "3RUIQRXJBCWS71H9MUFVM5WQ3SCLLJ", "start_time": "1.51815756035e+12", "human_length": "19", "nodes_expanded": "999", "instance": "prb33509", "end_time": "1.51815759315e+12", "optimal_length": "11", "subject": "A1SJRFJWFXSDH4"}
{"rt": "45709.0", "trial_number": "0", "skipped": "False", "complete": "True", "assignment": "3PB5A5BD0WED6OE679H5Q89HBDGG71", "start_time": "1.51795099726e+12", "human_length": "23", "nodes_expanded": "999", "instance": "prb33509", "end_time": "1.51795104297e+12", "optimal_length": "11", "subject": "A1USR9JCAMDGM3"}
{"rt": "20640.0", "trial_number": "0", "skipped": "False", "complete": "True", "assignment": "3XC1O3LBOTUGQEPEV3HM8W67X4RTLL", "start_time": "1.51813792534e+12", "human_length": "15", "nodes_expanded": "999", "instance": "prb33509", "end_time": "1.51813794598e+12", "optimal_length": "11", "subject": "A1ZTSCPETU3UJW"}
{"rt": "39202.0", "trial_number": "0", "skipped": "False", "complete": "True", "assignment": "34BBWHLWHBJ6SUL255PK30LEGY5IWG", "start_time": "1.51639432291e+12", "human_length": "30", "nodes_expanded": "999", "instance": "prb33509", "end_time": "1.51639436211e+12", "optimal_length": "11", "subject": "A214HWAW1PYWO8"}
{"rt": "0.0", "trial_number": "0", "skipped": "False", "complete": "False", "assignment": "3IHR8NYAM89M0EPM8U9LH53ZJDTP4U", "start_time": "1.51682627873e+12", "human_length": "1", "nodes_expanded": "999", "instance": "prb33509", "end_time": "1.51682627873e+12", "optimal_length": "11", "subject": "A23437BMZ5T1FH"}
{"rt": "18683.0", "trial_number": "1", "skipped": "False", "complete": "True", "assignment": "3IHR8NYAM89M0EPM8U9LH53ZJDTP4U", "start_time": "1.51682627873e+12", "human_length": "19", "nodes_expanded": "999", "instance": "prb33509", "end_time": "1.51682629742e+12", "optimal_length": "11", "subject": "A23437BMZ5T1FH"}
{"rt": "68249.0", "trial_number": "0", "skipped": "False", "complete": "True", "assignment": "30IQTZXKALEAAZ9CBKW0ZFZP6O5X07", "start_time": "1.51794520987e+12", "human_length": "43", "nodes_expanded": "999", "instance": "prb33509", "end_time": "1.51794527812e+12", "optimal_length": "11", "subject": "A23XJ8I86R0O3B"}
{"rt": "29514.0", "trial_number": "0", "skipped": "False", "complete": "True", "assignment": "3ZV9H2YQQEFR2R3JK2IXZUJPXAF3WW", "start_time": "1.51630773101e+12", "human_length": "12", "nodes_expanded": "999", "instance": "prb33509", "end_time": "1.51630776053e+12", "optimal_length": "11", "subject": "A289D98Z4GAZ28"}
{"rt": "0.0", "trial_number": "0", "skipped": "False", "complete": "False", "assignment": "3IAS3U3I0GOAT69PLB8WT61CKJ22BO", "start_time": "1.51793938136e+12", "human_length": "1", "nodes_expanded": "999", "instance": "prb33509", "end_time": "1.51793938136e+12", "optimal_length": "11", "subject": "A2C84POENS2UNY"}
{"rt": "55024.0", "trial_number": "1", "skipped": "False", "complete": "True", "assignment": "3IAS3U3I0GOAT69PLB8WT61CKJ22BO", "start_time": "1.51793939159e+12", "human_length": "21", "nodes_expanded": "999", "instance": "prb33509", "end_time": "1.51793944662e+12", "optimal_length": "11", "subject": "A2C84POENS2UNY"}
{"rt": "0.0", "trial_number": "0", "skipped": "False", "complete": "False", "assignment": "3X4MXAO0BHWJLTOLVSJTHSM54OHWRG", "start_time": "1.51682306278e+12", "human_length": "1", "nodes_expanded": "999", "instance": "prb33509", "end_time": "1.51682306278e+12", "optimal_length": "11", "subject": "A2IBQA01NR5N76"}
{"rt": "49776.0", "trial_number": "1", "skipped": "False", "complete": "True", "assignment": "3X4MXAO0BHWJLTOLVSJTHSM54OHWRG", "start_time": "1.51682306278e+12", "human_length": "37", "nodes_expanded": "999", "instance": "prb33509", "end_time": "1.51682311255e+12", "optimal_length": "11", "subject": "A2IBQA01NR5N76"}
{"rt": "49776.0", "trial_number": "0", "skipped": "False", "complete": "True", "assignment": "3X4MXAO0BHWJLTOLVSJTHSM54OHWRG", "start_time": "1.51682306278e+12", "human_length": "37", "nodes_expanded": "999", "instance": "prb33509", "end_time": "1.51682311255e+12", "optimal_length": "11", "subject": "A2IBQA01NR5N76"}
{"rt": "20357.0", "trial_number": "0", "skipped": "False", "complete": "True", "assignment": "3FUI0JHJPY6UBT1VAI7VUX8S3KH33W", "start_time": "1.51815149899e+12", "human_length": "17", "nodes_expanded": "999", "instance": "prb33509", "end_time": "1.51815151935e+12", "optimal_length": "11", "subject": "A2QIZ31TMHU0GD"}
{"rt": "17529.0", "trial_number": "0", "skipped": "False", "complete": "True", "assignment": "3TAYZSBPLMG9ASQRWXURJVBCPLN2SH", "start_time": "1.5181366052e+12", "human_length": "15", "nodes_expanded": "999", "instance": "prb33509", "end_time": "1.51813662273e+12", "optimal_length": "11", "subject": "A2RCYLKY072XXO"}
{"rt": "0.0", "trial_number": "0", "skipped": "False", "complete": "False", "assignment": "3IJXV6UZ1YR1KY4G6BFEG1DXP7SRI1", "start_time": "1.51674873234e+12", "human_length": "1", "nodes_expanded": "999", "instance": "prb33509", "end_time": "1.51674873234e+12", "optimal_length": "11", "subject": "A2RTJ6BDY0DZVZ"}
{"rt": "0.0", "trial_number": "1", "skipped": "False", "complete": "False", "assignment": "3IJXV6UZ1YR1KY4G6BFEG1DXP7SRI1", "start_time": "1.51674873234e+12", "human_length": "1", "nodes_expanded": "999", "instance": "prb33509", "end_time": "1.51674873234e+12", "optimal_length": "11", "subject": "A2RTJ6BDY0DZVZ"}
{"rt": "54064.0", "trial_number": "2", "skipped": "False", "complete": "True", "assignment": "3IJXV6UZ1YR1KY4G6BFEG1DXP7SRI1", "start_time": "1.51674873234e+12", "human_length": "20", "nodes_expanded": "999", "instance": "prb33509", "end_time": "1.51674878641e+12", "optimal_length": "11", "subject": "A2RTJ6BDY0DZVZ"}
{"rt": "54064.0", "trial_number": "0", "skipped": "False", "complete": "True", "assignment": "3IJXV6UZ1YR1KY4G6BFEG1DXP7SRI1", "start_time": "1.51674873234e+12", "human_length": "20", "nodes_expanded": "999", "instance": "prb33509", "end_time": "1.51674878641e+12", "optimal_length": "11", "subject": "A2RTJ6BDY0DZVZ"}
{"rt": "0.0", "trial_number": "0", "skipped": "False", "complete": "False", "assignment": "3WSELTNVR4AZUVYAYCSWZIQW0J4ATB", "start_time": "1.51673903104e+12", "human_length": "1", "nodes_expanded": "999", "instance": "prb33509", "end_time": "1.51673903104e+12", "optimal_length": "11", "subject": "A2TQNX64349OZ9"}
{"rt": "0.0", "trial_number": "1", "skipped": "False", "complete": "False", "assignment": "3WSELTNVR4AZUVYAYCSWZIQW0J4ATB", "start_time": "1.51673903104e+12", "human_length": "1", "nodes_expanded": "999", "instance": "prb33509", "end_time": "1.51673903104e+12", "optimal_length": "11", "subject": "A2TQNX64349OZ9"}
{"rt": "39592.0", "trial_number": "2", "skipped": "False", "complete": "True", "assignment": "3WSELTNVR4AZUVYAYCSWZIQW0J4ATB", "start_time": "1.51673903104e+12", "human_length": "35", "nodes_expanded": "999", "instance": "prb33509", "end_time": "1.51673907064e+12", "optimal_length": "11", "subject": "A2TQNX64349OZ9"}
{"rt": "39592.0", "trial_number": "0", "skipped": "False", "complete": "True", "assignment": "3WSELTNVR4AZUVYAYCSWZIQW0J4ATB", "start_time": "1.51673903104e+12", "human_length": "35", "nodes_expanded": "999", "instance": "prb33509", "end_time": "1.51673907064e+12", "optimal_length": "11", "subject": "A2TQNX64349OZ9"}
{"rt": "68533.0", "trial_number": "0", "skipped": "False", "complete": "True", "assignment": "37TD41K0AIHM8AITTQJXV8KY05QCSB", "start_time": "1.5175252288e+12", "human_length": "33", "nodes_expanded": "999", "instance": "prb33509", "end_time": "1.51752529734e+12", "optimal_length": "11", "subject": "A30KYQGABO7JER"}
{"rt": "57686.0", "trial_number": "0", "skipped": "False", "complete": "True", "assignment": "3TXD01ZLD5PZSJXIPG8FRBQYTI9U4X", "start_time": "1.51794373635e+12", "human_length": "20", "nodes_expanded": "999", "instance": "prb33509", "end_time": "1.51794379403e+12", "optimal_length": "11", "subject": "A3BPRPN10HJD4B"}
{"rt": "32065.0", "trial_number": "0", "skipped": "False", "complete": "True", "assignment": "34HJIJKLP64Z5YMIU6IKNXSH7PDV4I", "start_time": "1.51794194375e+12", "human_length": "19", "nodes_expanded": "999", "instance": "prb33509", "end_time": "1.51794197582e+12", "optimal_length": "11", "subject": "A3CTXNQ2GXIQSP"}
{"rt": "48428.0", "trial_number": "0", "skipped": "False", "complete": "False", "assignment": "3TMFV4NEP9MD3O9PWJDTQBR0HZYW8I", "start_time": "1.51814500492e+12", "human_length": "30", "nodes_expanded": "999", "instance": "prb33509", "end_time": "1.51814505335e+12", "optimal_length": "11", "subject": "A3GOOI75XOF24V"}
{"rt": "98042.0", "trial_number": "1", "skipped": "False", "complete": "False", "assignment": "3TMFV4NEP9MD3O9PWJDTQBR0HZYW8I", "start_time": "1.51814506128e+12", "human_length": "49", "nodes_expanded": "999", "instance": "prb33509", "end_time": "1.51814515932e+12", "optimal_length": "11", "subject": "A3GOOI75XOF24V"}
{"rt": "35869.0", "trial_number": "2", "skipped": "False", "complete": "True", "assignment": "3TMFV4NEP9MD3O9PWJDTQBR0HZYW8I", "start_time": "1.51814516395e+12", "human_length": "19", "nodes_expanded": "999", "instance": "prb33509", "end_time": "1.51814519982e+12", "optimal_length": "11", "subject": "A3GOOI75XOF24V"}
{"rt": "16708.0", "trial_number": "0", "skipped": "False", "complete": "True", "assignment": "3TPWUS5F8A9FFRZ2DVTYSXNJ6BWWC6", "start_time": "1.51794057215e+12", "human_length": "12", "nodes_expanded": "999", "instance": "prb33509", "end_time": "1.51794058886e+12", "optimal_length": "11", "subject": "A3GXC3VG37CQ3G"}
{"rt": "43560.0", "trial_number": "0", "skipped": "False", "complete": "True", "assignment": "3STRJBFXOXZ5687WA35LTWTS7QZKTT", "start_time": "1.51794472202e+12", "human_length": "21", "nodes_expanded": "999", "instance": "prb33509", "end_time": "1.51794476558e+12", "optimal_length": "11", "subject": "A3OB6REG5CGHK1"}
{"rt": "0.0", "trial_number": "0", "skipped": "False", "complete": "False", "assignment": "3X87C8JFV7JQ2BSCY8KSFD9F2ILSQK", "start_time": "1.51674097158e+12", "human_length": "1", "nodes_expanded": "999", "instance": "prb33509", "end_time": "1.51674097158e+12", "optimal_length": "11", "subject": "A3Q0XAGQ7TD7MP"}
{"rt": "0.0", "trial_number": "1", "skipped": "False", "complete": "False", "assignment": "3X87C8JFV7JQ2BSCY8KSFD9F2ILSQK", "start_time": "1.51674097158e+12", "human_length": "1", "nodes_expanded": "999", "instance": "prb33509", "end_time": "1.51674097158e+12", "optimal_length": "11", "subject": "A3Q0XAGQ7TD7MP"}
{"rt": "41709.0", "trial_number": "2", "skipped": "False", "complete": "True", "assignment": "3X87C8JFV7JQ2BSCY8KSFD9F2ILSQK", "start_time": "1.51674097158e+12", "human_length": "22", "nodes_expanded": "999", "instance": "prb33509", "end_time": "1.51674101329e+12", "optimal_length": "11", "subject": "A3Q0XAGQ7TD7MP"}
{"rt": "57131.0", "trial_number": "3", "skipped": "False", "complete": "True", "assignment": "3GLB5JMZFY3TNXFGYMKRQ0JDXNTDGZ", "start_time": "1.51794621101e+12", "human_length": "24", "nodes_expanded": "999", "instance": "prb33509", "end_time": "1.51794626814e+12", "optimal_length": "11", "subject": "A3Q0XAGQ7TD7MP"}
{"rt": "41709.0", "trial_number": "0", "skipped": "False", "complete": "True", "assignment": "3X87C8JFV7JQ2BSCY8KSFD9F2ILSQK", "start_time": "1.51674097158e+12", "human_length": "22", "nodes_expanded": "999", "instance": "prb33509", "end_time": "1.51674101329e+12", "optimal_length": "11", "subject": "A3Q0XAGQ7TD7MP"}
{"rt": "57131.0", "trial_number": "1", "skipped": "False", "complete": "True", "assignment": "3GLB5JMZFY3TNXFGYMKRQ0JDXNTDGZ", "start_time": "1.51794621101e+12", "human_length": "24", "nodes_expanded": "999", "instance": "prb33509", "end_time": "1.51794626814e+12", "optimal_length": "11", "subject": "A3Q0XAGQ7TD7MP"}
{"rt": "51154.0", "trial_number": "0", "skipped": "False", "complete": "False", "assignment": "3M0BCWMB8W4W5M7WZVX3HDH1P53WB1", "start_time": "1.51815761667e+12", "human_length": "27", "nodes_expanded": "999", "instance": "prb33509", "end_time": "1.51815766782e+12", "optimal_length": "11", "subject": "A53S7J4JGWG38"}
{"rt": "23892.0", "trial_number": "1", "skipped": "False", "complete": "True", "assignment": "3M0BCWMB8W4W5M7WZVX3HDH1P53WB1", "start_time": "1.51815767106e+12", "human_length": "15", "nodes_expanded": "999", "instance": "prb33509", "end_time": "1.51815769495e+12", "optimal_length": "11", "subject": "A53S7J4JGWG38"}
{"rt": "0.0", "trial_number": "0", "skipped": "False", "complete": "False", "assignment": "34T446B1C1MM71YHKO0DL2EF3BLC0W", "start_time": "1.51673474755e+12", "human_length": "1", "nodes_expanded": "999", "instance": "prb33509", "end_time": "1.51673474755e+12", "optimal_length": "11", "subject": "ABL3H3O3BI8ZD"}
{"rt": "0.0", "trial_number": "1", "skipped": "False", "complete": "False", "assignment": "34T446B1C1MM71YHKO0DL2EF3BLC0W", "start_time": "1.51673474755e+12", "human_length": "1", "nodes_expanded": "999", "instance": "prb33509", "end_time": "1.51673474755e+12", "optimal_length": "11", "subject": "ABL3H3O3BI8ZD"}
{"rt": "91777.0", "trial_number": "2", "skipped": "False", "complete": "True", "assignment": "34T446B1C1MM71YHKO0DL2EF3BLC0W", "start_time": "1.51673474755e+12", "human_length": "62", "nodes_expanded": "999", "instance": "prb33509", "end_time": "1.51673483932e+12", "optimal_length": "11", "subject": "ABL3H3O3BI8ZD"}
{"rt": "91777.0", "trial_number": "0", "skipped": "False", "complete": "True", "assignment": "34T446B1C1MM71YHKO0DL2EF3BLC0W", "start_time": "1.51673474755e+12", "human_length": "62", "nodes_expanded": "999", "instance": "prb33509", "end_time": "1.51673483932e+12", "optimal_length": "11", "subject": "ABL3H3O3BI8ZD"}
{"rt": "25629.0", "trial_number": "0", "skipped": "False", "complete": "True", "assignment": "3IXEICO793RY7TM78ZBKJDOA7ADT6Q", "start_time": "1.51816793428e+12", "human_length": "19", "nodes_expanded": "999", "instance": "prb33509", "end_time": "1.51816795991e+12", "optimal_length": "11", "subject": "ALH1K6ZAQQMN7"}
{"rt": "34192.0", "trial_number": "0", "skipped": "False", "complete": "True", "assignment": "33PPO7FECWN7JOLBOAKUBCWTC0AIDL", "start_time": "1.51794909029e+12", "human_length": "15", "nodes_expanded": "999", "instance": "prb33509", "end_time": "1.51794912448e+12", "optimal_length": "11", "subject": "AXKM02NVXNGOM"}
