{"rt": "0.0", "trial_number": "0", "skipped": "False", "complete": "False", "assignment": "3U84XHCDIDLGEIRSV37N835DT5LZ4W", "start_time": "1.5167359681e+12", "human_length": "1", "nodes_expanded": "999", "instance": "prb38526", "end_time": "1.5167359681e+12", "optimal_length": "11", "subject": "A12723JDRPT207"}
{"rt": "0.0", "trial_number": "1", "skipped": "False", "complete": "False", "assignment": "3U84XHCDIDLGEIRSV37N835DT5LZ4W", "start_time": "1.5167359681e+12", "human_length": "1", "nodes_expanded": "999", "instance": "prb38526", "end_time": "1.5167359681e+12", "optimal_length": "11", "subject": "A12723JDRPT207"}
{"rt": "24857.0", "trial_number": "2", "skipped": "True", "complete": "False", "assignment": "3U84XHCDIDLGEIRSV37N835DT5LZ4W", "start_time": "1.5167359681e+12", "human_length": "40", "nodes_expanded": "999", "instance": "prb38526", "end_time": "1.51673599296e+12", "optimal_length": "11", "subject": "A12723JDRPT207"}
{"rt": "24857.0", "trial_number": "0", "skipped": "True", "complete": "False", "assignment": "3U84XHCDIDLGEIRSV37N835DT5LZ4W", "start_time": "1.5167359681e+12", "human_length": "14", "nodes_expanded": "999", "instance": "prb38526", "end_time": "1.51673599296e+12", "optimal_length": "11", "subject": "A12723JDRPT207"}
{"rt": "10880.0", "trial_number": "0", "skipped": "True", "complete": "False", "assignment": "3TYCR1GOTDRCCQYD1V64UK7OHTBZLQ", "start_time": "1.51753716606e+12", "human_length": "10", "nodes_expanded": "999", "instance": "prb38526", "end_time": "1.51753717694e+12", "optimal_length": "11", "subject": "A13BZCNJ0WR1T7"}
{"rt": "0.0", "trial_number": "0", "skipped": "False", "complete": "False", "assignment": "3VE8AYVF8N5BS2NU6U3TMN50JMNF8V", "start_time": "1.51673784417e+12", "human_length": "1", "nodes_expanded": "999", "instance": "prb38526", "end_time": "1.51673784417e+12", "optimal_length": "11", "subject": "A18QU0YQB6Q8DF"}
{"rt": "0.0", "trial_number": "1", "skipped": "False", "complete": "False", "assignment": "3VE8AYVF8N5BS2NU6U3TMN50JMNF8V", "start_time": "1.51673784417e+12", "human_length": "1", "nodes_expanded": "999", "instance": "prb38526", "end_time": "1.51673784417e+12", "optimal_length": "11", "subject": "A18QU0YQB6Q8DF"}
{"rt": "48278.0", "trial_number": "2", "skipped": "False", "complete": "True", "assignment": "3VE8AYVF8N5BS2NU6U3TMN50JMNF8V", "start_time": "1.51673784417e+12", "human_length": "18", "nodes_expanded": "999", "instance": "prb38526", "end_time": "1.51673789245e+12", "optimal_length": "11", "subject": "A18QU0YQB6Q8DF"}
{"rt": "48278.0", "trial_number": "0", "skipped": "False", "complete": "True", "assignment": "3VE8AYVF8N5BS2NU6U3TMN50JMNF8V", "start_time": "1.51673784417e+12", "human_length": "18", "nodes_expanded": "999", "instance": "prb38526", "end_time": "1.51673789245e+12", "optimal_length": "11", "subject": "A18QU0YQB6Q8DF"}
{"rt": "27748.0", "trial_number": "0", "skipped": "False", "complete": "True", "assignment": "3IJXV6UZ1YR1KY4G6BFEG1DXR47RIC", "start_time": "1.51797353985e+12", "human_length": "16", "nodes_expanded": "999", "instance": "prb38526", "end_time": "1.5179735676e+12", "optimal_length": "11", "subject": "A18T3WK7J16C1B"}
{"rt": "40057.0", "trial_number": "0", "skipped": "False", "complete": "True", "assignment": "3PMBY0YE28B43VMUKKJ6EDF85RV9C8", "start_time": "1.5163882349e+12", "human_length": "25", "nodes_expanded": "999", "instance": "prb38526", "end_time": "1.51638827496e+12", "optimal_length": "11", "subject": "A191V7PT3DQKDP"}
{"rt": "18804.0", "trial_number": "0", "skipped": "False", "complete": "True", "assignment": "3ZSANO2JCGFTBM23KS9Y3E51YP4FSQ", "start_time": "1.51814348955e+12", "human_length": "21", "nodes_expanded": "999", "instance": "prb38526", "end_time": "1.51814350835e+12", "optimal_length": "11", "subject": "A1F42D4L22K5ND"}
{"rt": "43878.0", "trial_number": "0", "skipped": "False", "complete": "True", "assignment": "3TS1AR6UQRM7SOIBWPBN8N9589Y7FV", "start_time": "1.51684049005e+12", "human_length": "34", "nodes_expanded": "999", "instance": "prb38526", "end_time": "1.51684053393e+12", "optimal_length": "11", "subject": "A1F4N58CAX8IMK"}
{"rt": "14892.0", "trial_number": "1", "skipped": "False", "complete": "True", "assignment": "35DR22AR5ES6RR89U7EJ1DXW91AX3P", "start_time": "1.51795481568e+12", "human_length": "15", "nodes_expanded": "999", "instance": "prb38526", "end_time": "1.51795483057e+12", "optimal_length": "11", "subject": "A1F4N58CAX8IMK"}
{"rt": "19683.0", "trial_number": "0", "skipped": "False", "complete": "True", "assignment": "33F859I567LE8WC74WB3GA7E94XBHW", "start_time": "1.51797043306e+12", "human_length": "15", "nodes_expanded": "999", "instance": "prb38526", "end_time": "1.51797045274e+12", "optimal_length": "11", "subject": "A1GQS6USF2JEYG"}
{"rt": "37164.0", "trial_number": "0", "skipped": "True", "complete": "False", "assignment": "3XLBSAQ9Z5KDX59BX15UBFPNNHYZ7Q", "start_time": "1.51814630778e+12", "human_length": "32", "nodes_expanded": "999", "instance": "prb38526", "end_time": "1.51814634495e+12", "optimal_length": "11", "subject": "A1HFNOKU591WCY"}
{"rt": "19414.0", "trial_number": "0", "skipped": "False", "complete": "True", "assignment": "3FTF2T8WLSQDHTSZ1BJ7Q7MB14SW9H", "start_time": "1.51813605497e+12", "human_length": "13", "nodes_expanded": "999", "instance": "prb38526", "end_time": "1.51813607438e+12", "optimal_length": "11", "subject": "A1IUH9D7N69VS"}
{"rt": "63708.0", "trial_number": "0", "skipped": "False", "complete": "True", "assignment": "3YW4XOSQKRTI0K0Z2YPDTDJVFABU1I", "start_time": "1.51683338092e+12", "human_length": "21", "nodes_expanded": "999", "instance": "prb38526", "end_time": "1.51683344463e+12", "optimal_length": "11", "subject": "A1LR0VQIHQUJAM"}
{"rt": "15432.0", "trial_number": "0", "skipped": "False", "complete": "False", "assignment": "31LM9EDVOM0C0BWUVMJXJINN3QPJNI", "start_time": "1.51752307772e+12", "human_length": "10", "nodes_expanded": "999", "instance": "prb38526", "end_time": "1.51752309315e+12", "optimal_length": "11", "subject": "A1NT8BT94ME6F5"}
{"rt": "16074.0", "trial_number": "1", "skipped": "False", "complete": "False", "assignment": "31LM9EDVOM0C0BWUVMJXJINN3QPJNI", "start_time": "1.51752309655e+12", "human_length": "9", "nodes_expanded": "999", "instance": "prb38526", "end_time": "1.51752311262e+12", "optimal_length": "11", "subject": "A1NT8BT94ME6F5"}
{"rt": "43677.0", "trial_number": "2", "skipped": "True", "complete": "False", "assignment": "31LM9EDVOM0C0BWUVMJXJINN3QPJNI", "start_time": "1.51752311347e+12", "human_length": "6", "nodes_expanded": "999", "instance": "prb38526", "end_time": "1.51752315715e+12", "optimal_length": "11", "subject": "A1NT8BT94ME6F5"}
{"rt": "0.0", "trial_number": "0", "skipped": "False", "complete": "False", "assignment": "3RUIQRXJBCWS71H9MUFVM5WQ3SCLLJ", "start_time": "1.51815711933e+12", "human_length": "1", "nodes_expanded": "999", "instance": "prb38526", "end_time": "1.51815711933e+12", "optimal_length": "11", "subject": "A1SJRFJWFXSDH4"}
{"rt": "0.0", "trial_number": "1", "skipped": "False", "complete": "False", "assignment": "3RUIQRXJBCWS71H9MUFVM5WQ3SCLLJ", "start_time": "1.51815711934e+12", "human_length": "1", "nodes_expanded": "999", "instance": "prb38526", "end_time": "1.51815711934e+12", "optimal_length": "11", "subject": "A1SJRFJWFXSDH4"}
{"rt": "3742.0", "trial_number": "2", "skipped": "False", "complete": "False", "assignment": "3RUIQRXJBCWS71H9MUFVM5WQ3SCLLJ", "start_time": "1.51815711936e+12", "human_length": "2", "nodes_expanded": "999", "instance": "prb38526", "end_time": "1.5181571231e+12", "optimal_length": "11", "subject": "A1SJRFJWFXSDH4"}
{"rt": "40759.0", "trial_number": "3", "skipped": "False", "complete": "True", "assignment": "3RUIQRXJBCWS71H9MUFVM5WQ3SCLLJ", "start_time": "1.51815712542e+12", "human_length": "23", "nodes_expanded": "999", "instance": "prb38526", "end_time": "1.51815716618e+12", "optimal_length": "11", "subject": "A1SJRFJWFXSDH4"}
{"rt": "25429.0", "trial_number": "0", "skipped": "False", "complete": "True", "assignment": "3PB5A5BD0WED6OE679H5Q89HBDGG71", "start_time": "1.51795220319e+12", "human_length": "18", "nodes_expanded": "999", "instance": "prb38526", "end_time": "1.51795222862e+12", "optimal_length": "11", "subject": "A1USR9JCAMDGM3"}
{"rt": "50336.0", "trial_number": "0", "skipped": "False", "complete": "True", "assignment": "3XC1O3LBOTUGQEPEV3HM8W67X4RTLL", "start_time": "1.51813803108e+12", "human_length": "22", "nodes_expanded": "999", "instance": "prb38526", "end_time": "1.51813808142e+12", "optimal_length": "11", "subject": "A1ZTSCPETU3UJW"}
{"rt": "18322.0", "trial_number": "0", "skipped": "False", "complete": "True", "assignment": "34BBWHLWHBJ6SUL255PK30LEGY5IWG", "start_time": "1.51639171588e+12", "human_length": "12", "nodes_expanded": "999", "instance": "prb38526", "end_time": "1.5163917342e+12", "optimal_length": "11", "subject": "A214HWAW1PYWO8"}
{"rt": "37721.0", "trial_number": "0", "skipped": "False", "complete": "False", "assignment": "3X87C8JFV7JQ2BSCY8KSFD9F2ILSQK", "start_time": "1.51674518145e+12", "human_length": "17", "nodes_expanded": "999", "instance": "prb38526", "end_time": "1.51674521918e+12", "optimal_length": "11", "subject": "A21S7MA9DCW95E"}
{"rt": "0.0", "trial_number": "1", "skipped": "False", "complete": "False", "assignment": "3X87C8JFV7JQ2BSCY8KSFD9F2ILSQK", "start_time": "1.51674522247e+12", "human_length": "1", "nodes_expanded": "999", "instance": "prb38526", "end_time": "1.51674522247e+12", "optimal_length": "11", "subject": "A21S7MA9DCW95E"}
{"rt": "0.0", "trial_number": "2", "skipped": "False", "complete": "False", "assignment": "3X87C8JFV7JQ2BSCY8KSFD9F2ILSQK", "start_time": "1.51674518145e+12", "human_length": "1", "nodes_expanded": "999", "instance": "prb38526", "end_time": "1.51674518145e+12", "optimal_length": "11", "subject": "A21S7MA9DCW95E"}
{"rt": "0.0", "trial_number": "3", "skipped": "False", "complete": "False", "assignment": "3X87C8JFV7JQ2BSCY8KSFD9F2ILSQK", "start_time": "1.51674522247e+12", "human_length": "1", "nodes_expanded": "999", "instance": "prb38526", "end_time": "1.51674522247e+12", "optimal_length": "11", "subject": "A21S7MA9DCW95E"}
{"rt": "0.0", "trial_number": "4", "skipped": "False", "complete": "False", "assignment": "3X87C8JFV7JQ2BSCY8KSFD9F2ILSQK", "start_time": "1.51674518145e+12", "human_length": "1", "nodes_expanded": "999", "instance": "prb38526", "end_time": "1.51674518145e+12", "optimal_length": "11", "subject": "A21S7MA9DCW95E"}
{"rt": "45550.0", "trial_number": "5", "skipped": "False", "complete": "True", "assignment": "3X87C8JFV7JQ2BSCY8KSFD9F2ILSQK", "start_time": "1.51674522247e+12", "human_length": "20", "nodes_expanded": "999", "instance": "prb38526", "end_time": "1.51674526802e+12", "optimal_length": "11", "subject": "A21S7MA9DCW95E"}
{"rt": "37721.0", "trial_number": "0", "skipped": "False", "complete": "False", "assignment": "3X87C8JFV7JQ2BSCY8KSFD9F2ILSQK", "start_time": "1.51674518145e+12", "human_length": "17", "nodes_expanded": "999", "instance": "prb38526", "end_time": "1.51674521918e+12", "optimal_length": "11", "subject": "A21S7MA9DCW95E"}
{"rt": "45550.0", "trial_number": "1", "skipped": "False", "complete": "True", "assignment": "3X87C8JFV7JQ2BSCY8KSFD9F2ILSQK", "start_time": "1.51674522247e+12", "human_length": "20", "nodes_expanded": "999", "instance": "prb38526", "end_time": "1.51674526802e+12", "optimal_length": "11", "subject": "A21S7MA9DCW95E"}
{"rt": "0.0", "trial_number": "0", "skipped": "False", "complete": "False", "assignment": "3IHR8NYAM89M0EPM8U9LH53ZJDTP4U", "start_time": "1.51682529706e+12", "human_length": "1", "nodes_expanded": "999", "instance": "prb38526", "end_time": "1.51682529706e+12", "optimal_length": "11", "subject": "A23437BMZ5T1FH"}
{"rt": "12394.0", "trial_number": "1", "skipped": "False", "complete": "True", "assignment": "3IHR8NYAM89M0EPM8U9LH53ZJDTP4U", "start_time": "1.51682529706e+12", "human_length": "12", "nodes_expanded": "999", "instance": "prb38526", "end_time": "1.51682530946e+12", "optimal_length": "11", "subject": "A23437BMZ5T1FH"}
{"rt": "65532.0", "trial_number": "0", "skipped": "False", "complete": "True", "assignment": "30IQTZXKALEAAZ9CBKW0ZFZP6O5X07", "start_time": "1.51794633995e+12", "human_length": "30", "nodes_expanded": "999", "instance": "prb38526", "end_time": "1.51794640548e+12", "optimal_length": "11", "subject": "A23XJ8I86R0O3B"}
{"rt": "47654.0", "trial_number": "0", "skipped": "False", "complete": "True", "assignment": "3ZV9H2YQQEFR2R3JK2IXZUJPXAF3WW", "start_time": "1.51630683813e+12", "human_length": "15", "nodes_expanded": "999", "instance": "prb38526", "end_time": "1.51630688579e+12", "optimal_length": "11", "subject": "A289D98Z4GAZ28"}
{"rt": "46415.0", "trial_number": "0", "skipped": "False", "complete": "True", "assignment": "3IAS3U3I0GOAT69PLB8WT61CKJ22BO", "start_time": "1.5179402128e+12", "human_length": "26", "nodes_expanded": "999", "instance": "prb38526", "end_time": "1.51794025922e+12", "optimal_length": "11", "subject": "A2C84POENS2UNY"}
{"rt": "66872.0", "trial_number": "0", "skipped": "False", "complete": "True", "assignment": "37WLF8U1WQYZ4AWKEQXSIM1ELVEK6W", "start_time": "1.51683239085e+12", "human_length": "34", "nodes_expanded": "999", "instance": "prb38526", "end_time": "1.51683245772e+12", "optimal_length": "11", "subject": "A2EPBSY0VPI38S"}
{"rt": "44989.0", "trial_number": "0", "skipped": "False", "complete": "False", "assignment": "3X4MXAO0BHWJLTOLVSJTHSM54OHWRG", "start_time": "1.51682292144e+12", "human_length": "29", "nodes_expanded": "999", "instance": "prb38526", "end_time": "1.51682296643e+12", "optimal_length": "11", "subject": "A2IBQA01NR5N76"}
{"rt": "0.0", "trial_number": "1", "skipped": "False", "complete": "False", "assignment": "3X4MXAO0BHWJLTOLVSJTHSM54OHWRG", "start_time": "1.51682296943e+12", "human_length": "1", "nodes_expanded": "999", "instance": "prb38526", "end_time": "1.51682296943e+12", "optimal_length": "11", "subject": "A2IBQA01NR5N76"}
{"rt": "0.0", "trial_number": "2", "skipped": "False", "complete": "False", "assignment": "3X4MXAO0BHWJLTOLVSJTHSM54OHWRG", "start_time": "1.51682292144e+12", "human_length": "1", "nodes_expanded": "999", "instance": "prb38526", "end_time": "1.51682292144e+12", "optimal_length": "11", "subject": "A2IBQA01NR5N76"}
{"rt": "26530.0", "trial_number": "3", "skipped": "False", "complete": "True", "assignment": "3X4MXAO0BHWJLTOLVSJTHSM54OHWRG", "start_time": "1.51682296943e+12", "human_length": "17", "nodes_expanded": "999", "instance": "prb38526", "end_time": "1.51682299596e+12", "optimal_length": "11", "subject": "A2IBQA01NR5N76"}
{"rt": "44989.0", "trial_number": "0", "skipped": "False", "complete": "False", "assignment": "3X4MXAO0BHWJLTOLVSJTHSM54OHWRG", "start_time": "1.51682292144e+12", "human_length": "29", "nodes_expanded": "999", "instance": "prb38526", "end_time": "1.51682296643e+12", "optimal_length": "11", "subject": "A2IBQA01NR5N76"}
{"rt": "26530.0", "trial_number": "1", "skipped": "False", "complete": "True", "assignment": "3X4MXAO0BHWJLTOLVSJTHSM54OHWRG", "start_time": "1.51682296943e+12", "human_length": "17", "nodes_expanded": "999", "instance": "prb38526", "end_time": "1.51682299596e+12", "optimal_length": "11", "subject": "A2IBQA01NR5N76"}
{"rt": "20346.0", "trial_number": "0", "skipped": "False", "complete": "True", "assignment": "3TYCR1GOTDRCCQYD1V64UK7OE48LZS", "start_time": "1.51639015144e+12", "human_length": "14", "nodes_expanded": "999", "instance": "prb38526", "end_time": "1.51639017178e+12", "optimal_length": "11", "subject": "A2MYB6MLQW0IGN"}
{"rt": "42584.0", "trial_number": "0", "skipped": "False", "complete": "True", "assignment": "3TAYZSBPLMG9ASQRWXURJVBCPLN2SH", "start_time": "1.51813713861e+12", "human_length": "26", "nodes_expanded": "999", "instance": "prb38526", "end_time": "1.51813718119e+12", "optimal_length": "11", "subject": "A2RCYLKY072XXO"}
{"rt": "0.0", "trial_number": "0", "skipped": "False", "complete": "False", "assignment": "3IJXV6UZ1YR1KY4G6BFEG1DXP7SRI1", "start_time": "1.51674882883e+12", "human_length": "1", "nodes_expanded": "999", "instance": "prb38526", "end_time": "1.51674882883e+12", "optimal_length": "11", "subject": "A2RTJ6BDY0DZVZ"}
{"rt": "0.0", "trial_number": "1", "skipped": "False", "complete": "False", "assignment": "3IJXV6UZ1YR1KY4G6BFEG1DXP7SRI1", "start_time": "1.51674882883e+12", "human_length": "1", "nodes_expanded": "999", "instance": "prb38526", "end_time": "1.51674882883e+12", "optimal_length": "11", "subject": "A2RTJ6BDY0DZVZ"}
{"rt": "24357.0", "trial_number": "2", "skipped": "False", "complete": "True", "assignment": "3IJXV6UZ1YR1KY4G6BFEG1DXP7SRI1", "start_time": "1.51674882883e+12", "human_length": "11", "nodes_expanded": "999", "instance": "prb38526", "end_time": "1.51674885319e+12", "optimal_length": "11", "subject": "A2RTJ6BDY0DZVZ"}
{"rt": "24357.0", "trial_number": "0", "skipped": "False", "complete": "True", "assignment": "3IJXV6UZ1YR1KY4G6BFEG1DXP7SRI1", "start_time": "1.51674882883e+12", "human_length": "11", "nodes_expanded": "999", "instance": "prb38526", "end_time": "1.51674885319e+12", "optimal_length": "11", "subject": "A2RTJ6BDY0DZVZ"}
{"rt": "0.0", "trial_number": "0", "skipped": "False", "complete": "False", "assignment": "3WSELTNVR4AZUVYAYCSWZIQW0J4ATB", "start_time": "1.51673965041e+12", "human_length": "1", "nodes_expanded": "999", "instance": "prb38526", "end_time": "1.51673965041e+12", "optimal_length": "11", "subject": "A2TQNX64349OZ9"}
{"rt": "0.0", "trial_number": "1", "skipped": "False", "complete": "False", "assignment": "3WSELTNVR4AZUVYAYCSWZIQW0J4ATB", "start_time": "1.51673965041e+12", "human_length": "1", "nodes_expanded": "999", "instance": "prb38526", "end_time": "1.51673965041e+12", "optimal_length": "11", "subject": "A2TQNX64349OZ9"}
{"rt": "28528.0", "trial_number": "2", "skipped": "False", "complete": "True", "assignment": "3WSELTNVR4AZUVYAYCSWZIQW0J4ATB", "start_time": "1.51673965041e+12", "human_length": "25", "nodes_expanded": "999", "instance": "prb38526", "end_time": "1.51673967894e+12", "optimal_length": "11", "subject": "A2TQNX64349OZ9"}
{"rt": "28528.0", "trial_number": "0", "skipped": "False", "complete": "True", "assignment": "3WSELTNVR4AZUVYAYCSWZIQW0J4ATB", "start_time": "1.51673965041e+12", "human_length": "25", "nodes_expanded": "999", "instance": "prb38526", "end_time": "1.51673967894e+12", "optimal_length": "11", "subject": "A2TQNX64349OZ9"}
{"rt": "19696.0", "trial_number": "0", "skipped": "False", "complete": "True", "assignment": "37TD41K0AIHM8AITTQJXV8KY05QCSB", "start_time": "1.5175231264e+12", "human_length": "14", "nodes_expanded": "999", "instance": "prb38526", "end_time": "1.5175231461e+12", "optimal_length": "11", "subject": "A30KYQGABO7JER"}
{"rt": "28974.0", "trial_number": "0", "skipped": "False", "complete": "True", "assignment": "3TXD01ZLD5PZSJXIPG8FRBQYTI9U4X", "start_time": "1.51794388759e+12", "human_length": "17", "nodes_expanded": "999", "instance": "prb38526", "end_time": "1.51794391657e+12", "optimal_length": "11", "subject": "A3BPRPN10HJD4B"}
{"rt": "24129.0", "trial_number": "0", "skipped": "False", "complete": "True", "assignment": "34HJIJKLP64Z5YMIU6IKNXSH7PDV4I", "start_time": "1.51794101855e+12", "human_length": "15", "nodes_expanded": "999", "instance": "prb38526", "end_time": "1.51794104268e+12", "optimal_length": "11", "subject": "A3CTXNQ2GXIQSP"}
{"rt": "24494.0", "trial_number": "0", "skipped": "False", "complete": "True", "assignment": "3TPWUS5F8A9FFRZ2DVTYSXNJ6BWWC6", "start_time": "1.51794244978e+12", "human_length": "13", "nodes_expanded": "999", "instance": "prb38526", "end_time": "1.51794247427e+12", "optimal_length": "11", "subject": "A3GXC3VG37CQ3G"}
{"rt": "0.0", "trial_number": "0", "skipped": "False", "complete": "False", "assignment": "3I2PTA7R3U2SESF4TZBQORI5LSJQKK", "start_time": "1.51675854254e+12", "human_length": "1", "nodes_expanded": "999", "instance": "prb38526", "end_time": "1.51675854254e+12", "optimal_length": "11", "subject": "A3NMQ3019X6YE0"}
{"rt": "0.0", "trial_number": "1", "skipped": "False", "complete": "False", "assignment": "3I2PTA7R3U2SESF4TZBQORI5LSJQKK", "start_time": "1.51675854254e+12", "human_length": "1", "nodes_expanded": "999", "instance": "prb38526", "end_time": "1.51675854254e+12", "optimal_length": "11", "subject": "A3NMQ3019X6YE0"}
{"rt": "49167.0", "trial_number": "2", "skipped": "False", "complete": "True", "assignment": "3I2PTA7R3U2SESF4TZBQORI5LSJQKK", "start_time": "1.51675854254e+12", "human_length": "22", "nodes_expanded": "999", "instance": "prb38526", "end_time": "1.51675859171e+12", "optimal_length": "11", "subject": "A3NMQ3019X6YE0"}
{"rt": "49167.0", "trial_number": "0", "skipped": "False", "complete": "True", "assignment": "3I2PTA7R3U2SESF4TZBQORI5LSJQKK", "start_time": "1.51675854254e+12", "human_length": "22", "nodes_expanded": "999", "instance": "prb38526", "end_time": "1.51675859171e+12", "optimal_length": "11", "subject": "A3NMQ3019X6YE0"}
{"rt": "28468.0", "trial_number": "0", "skipped": "False", "complete": "False", "assignment": "3STRJBFXOXZ5687WA35LTWTS7QZKTT", "start_time": "1.51794673978e+12", "human_length": "10", "nodes_expanded": "999", "instance": "prb38526", "end_time": "1.51794676825e+12", "optimal_length": "11", "subject": "A3OB6REG5CGHK1"}
{"rt": "54930.0", "trial_number": "1", "skipped": "False", "complete": "False", "assignment": "3STRJBFXOXZ5687WA35LTWTS7QZKTT", "start_time": "1.51794677715e+12", "human_length": "26", "nodes_expanded": "999", "instance": "prb38526", "end_time": "1.51794683208e+12", "optimal_length": "11", "subject": "A3OB6REG5CGHK1"}
{"rt": "48501.0", "trial_number": "2", "skipped": "False", "complete": "True", "assignment": "3STRJBFXOXZ5687WA35LTWTS7QZKTT", "start_time": "1.51794685594e+12", "human_length": "16", "nodes_expanded": "999", "instance": "prb38526", "end_time": "1.51794690444e+12", "optimal_length": "11", "subject": "A3OB6REG5CGHK1"}
{"rt": "0.0", "trial_number": "0", "skipped": "False", "complete": "False", "assignment": "3X87C8JFV7JQ2BSCY8KSFD9F2ILSQK", "start_time": "1.51674044715e+12", "human_length": "1", "nodes_expanded": "999", "instance": "prb38526", "end_time": "1.51674044715e+12", "optimal_length": "11", "subject": "A3Q0XAGQ7TD7MP"}
{"rt": "0.0", "trial_number": "1", "skipped": "False", "complete": "False", "assignment": "3X87C8JFV7JQ2BSCY8KSFD9F2ILSQK", "start_time": "1.51674044715e+12", "human_length": "1", "nodes_expanded": "999", "instance": "prb38526", "end_time": "1.51674044715e+12", "optimal_length": "11", "subject": "A3Q0XAGQ7TD7MP"}
{"rt": "25955.0", "trial_number": "2", "skipped": "False", "complete": "True", "assignment": "3X87C8JFV7JQ2BSCY8KSFD9F2ILSQK", "start_time": "1.51674044715e+12", "human_length": "12", "nodes_expanded": "999", "instance": "prb38526", "end_time": "1.51674047311e+12", "optimal_length": "11", "subject": "A3Q0XAGQ7TD7MP"}
{"rt": "99911.0", "trial_number": "3", "skipped": "False", "complete": "True", "assignment": "3GLB5JMZFY3TNXFGYMKRQ0JDXNTDGZ", "start_time": "1.5179478444e+12", "human_length": "41", "nodes_expanded": "999", "instance": "prb38526", "end_time": "1.51794794431e+12", "optimal_length": "11", "subject": "A3Q0XAGQ7TD7MP"}
{"rt": "25955.0", "trial_number": "0", "skipped": "False", "complete": "True", "assignment": "3X87C8JFV7JQ2BSCY8KSFD9F2ILSQK", "start_time": "1.51674044715e+12", "human_length": "12", "nodes_expanded": "999", "instance": "prb38526", "end_time": "1.51674047311e+12", "optimal_length": "11", "subject": "A3Q0XAGQ7TD7MP"}
{"rt": "99911.0", "trial_number": "1", "skipped": "False", "complete": "True", "assignment": "3GLB5JMZFY3TNXFGYMKRQ0JDXNTDGZ", "start_time": "1.5179478444e+12", "human_length": "41", "nodes_expanded": "999", "instance": "prb38526", "end_time": "1.51794794431e+12", "optimal_length": "11", "subject": "A3Q0XAGQ7TD7MP"}
{"rt": "31427.0", "trial_number": "0", "skipped": "False", "complete": "False", "assignment": "3M0BCWMB8W4W5M7WZVX3HDH1P53WB1", "start_time": "1.51815990072e+12", "human_length": "17", "nodes_expanded": "999", "instance": "prb38526", "end_time": "1.51815993214e+12", "optimal_length": "11", "subject": "A53S7J4JGWG38"}
{"rt": "10516.0", "trial_number": "1", "skipped": "True", "complete": "False", "assignment": "3M0BCWMB8W4W5M7WZVX3HDH1P53WB1", "start_time": "1.51815993377e+12", "human_length": "6", "nodes_expanded": "999", "instance": "prb38526", "end_time": "1.51815994428e+12", "optimal_length": "11", "subject": "A53S7J4JGWG38"}
{"rt": "48760.0", "trial_number": "0", "skipped": "False", "complete": "False", "assignment": "3U84XHCDIDLGEIRSV37N835DV0K4ZS", "start_time": "1.51794035448e+12", "human_length": "16", "nodes_expanded": "999", "instance": "prb38526", "end_time": "1.51794040324e+12", "optimal_length": "11", "subject": "A8KX1HFH8NE2Q"}
{"rt": "77497.0", "trial_number": "1", "skipped": "False", "complete": "True", "assignment": "3U84XHCDIDLGEIRSV37N835DV0K4ZS", "start_time": "1.51794040738e+12", "human_length": "23", "nodes_expanded": "999", "instance": "prb38526", "end_time": "1.51794048487e+12", "optimal_length": "11", "subject": "A8KX1HFH8NE2Q"}
{"rt": "17723.0", "trial_number": "0", "skipped": "False", "complete": "True", "assignment": "3IXEICO793RY7TM78ZBKJDOA7ADT6Q", "start_time": "1.51816978363e+12", "human_length": "12", "nodes_expanded": "999", "instance": "prb38526", "end_time": "1.51816980136e+12", "optimal_length": "11", "subject": "ALH1K6ZAQQMN7"}
{"rt": "19088.0", "trial_number": "0", "skipped": "False", "complete": "False", "assignment": "37QW5D2ZRHUKW7SGCE3STMOFBMK8SX", "start_time": "1.51815673467e+12", "human_length": "14", "nodes_expanded": "999", "instance": "prb38526", "end_time": "1.51815675375e+12", "optimal_length": "11", "subject": "AMW2XLD9443OH"}
{"rt": "17008.0", "trial_number": "1", "skipped": "False", "complete": "True", "assignment": "37QW5D2ZRHUKW7SGCE3STMOFBMK8SX", "start_time": "1.5181567576e+12", "human_length": "13", "nodes_expanded": "999", "instance": "prb38526", "end_time": "1.51815677461e+12", "optimal_length": "11", "subject": "AMW2XLD9443OH"}
{"rt": "15803.0", "trial_number": "0", "skipped": "False", "complete": "True", "assignment": "3HWRJOOET6A15827PHPSLWK1MOYSEU", "start_time": "1.5181453076e+12", "human_length": "13", "nodes_expanded": "999", "instance": "prb38526", "end_time": "1.51814532340e+12", "optimal_length": "11", "subject": "AO1QGAUZ85T6L"}
{"rt": "13539.0", "trial_number": "0", "skipped": "False", "complete": "True", "assignment": "3AZHRG4CU5SYU12YRVPCSZALW5003R", "start_time": "1.5163045886e+12", "human_length": "12", "nodes_expanded": "999", "instance": "prb38526", "end_time": "1.51630460214e+12", "optimal_length": "11", "subject": "ARWF605I7RWM7"}
{"rt": "44291.0", "trial_number": "0", "skipped": "False", "complete": "False", "assignment": "33PPO7FECWN7JOLBOAKUBCWTC0AIDL", "start_time": "1.51794931138e+12", "human_length": "12", "nodes_expanded": "999", "instance": "prb38526", "end_time": "1.51794935567e+12", "optimal_length": "11", "subject": "AXKM02NVXNGOM"}
{"rt": "66035.0", "trial_number": "1", "skipped": "False", "complete": "True", "assignment": "33PPO7FECWN7JOLBOAKUBCWTC0AIDL", "start_time": "1.51794935981e+12", "human_length": "18", "nodes_expanded": "999", "instance": "prb38526", "end_time": "1.51794942584e+12", "optimal_length": "11", "subject": "AXKM02NVXNGOM"}
