{"rt": "71326.0", "trial_number": "0", "skipped": "False", "complete": "True", "assignment": "3TYCR1GOTDRCCQYD1V64UK7OHTBZLQ", "start_time": "1.51753503964e+12", "human_length": "56", "nodes_expanded": "999", "instance": "prb34551", "end_time": "1.51753511096e+12", "optimal_length": "14", "subject": "A13BZCNJ0WR1T7"}
{"rt": "48381.0", "trial_number": "0", "skipped": "False", "complete": "False", "assignment": "3VE8AYVF8N5BS2NU6U3TMN50JMNF8V", "start_time": "1.51673616171e+12", "human_length": "23", "nodes_expanded": "999", "instance": "prb34551", "end_time": "1.51673621009e+12", "optimal_length": "14", "subject": "A18QU0YQB6Q8DF"}
{"rt": "0.0", "trial_number": "1", "skipped": "False", "complete": "False", "assignment": "3VE8AYVF8N5BS2NU6U3TMN50JMNF8V", "start_time": "1.51673621195e+12", "human_length": "1", "nodes_expanded": "999", "instance": "prb34551", "end_time": "1.51673621195e+12", "optimal_length": "14", "subject": "A18QU0YQB6Q8DF"}
{"rt": "0.0", "trial_number": "2", "skipped": "False", "complete": "False", "assignment": "3VE8AYVF8N5BS2NU6U3TMN50JMNF8V", "start_time": "1.51673616171e+12", "human_length": "1", "nodes_expanded": "999", "instance": "prb34551", "end_time": "1.51673616171e+12", "optimal_length": "14", "subject": "A18QU0YQB6Q8DF"}
{"rt": "0.0", "trial_number": "3", "skipped": "False", "complete": "False", "assignment": "3VE8AYVF8N5BS2NU6U3TMN50JMNF8V", "start_time": "1.51673621195e+12", "human_length": "1", "nodes_expanded": "999", "instance": "prb34551", "end_time": "1.51673621195e+12", "optimal_length": "14", "subject": "A18QU0YQB6Q8DF"}
{"rt": "0.0", "trial_number": "4", "skipped": "False", "complete": "False", "assignment": "3VE8AYVF8N5BS2NU6U3TMN50JMNF8V", "start_time": "1.51673616171e+12", "human_length": "1", "nodes_expanded": "999", "instance": "prb34551", "end_time": "1.51673616171e+12", "optimal_length": "14", "subject": "A18QU0YQB6Q8DF"}
{"rt": "48406.0", "trial_number": "5", "skipped": "False", "complete": "True", "assignment": "3VE8AYVF8N5BS2NU6U3TMN50JMNF8V", "start_time": "1.51673621195e+12", "human_length": "25", "nodes_expanded": "999", "instance": "prb34551", "end_time": "1.51673626036e+12", "optimal_length": "14", "subject": "A18QU0YQB6Q8DF"}
{"rt": "48381.0", "trial_number": "0", "skipped": "False", "complete": "False", "assignment": "3VE8AYVF8N5BS2NU6U3TMN50JMNF8V", "start_time": "1.51673616171e+12", "human_length": "23", "nodes_expanded": "999", "instance": "prb34551", "end_time": "1.51673621009e+12", "optimal_length": "14", "subject": "A18QU0YQB6Q8DF"}
{"rt": "48406.0", "trial_number": "1", "skipped": "False", "complete": "True", "assignment": "3VE8AYVF8N5BS2NU6U3TMN50JMNF8V", "start_time": "1.51673621195e+12", "human_length": "25", "nodes_expanded": "999", "instance": "prb34551", "end_time": "1.51673626036e+12", "optimal_length": "14", "subject": "A18QU0YQB6Q8DF"}
{"rt": "51587.0", "trial_number": "0", "skipped": "False", "complete": "True", "assignment": "3IJXV6UZ1YR1KY4G6BFEG1DXR47RIC", "start_time": "1.51797452336e+12", "human_length": "56", "nodes_expanded": "999", "instance": "prb34551", "end_time": "1.51797457495e+12", "optimal_length": "14", "subject": "A18T3WK7J16C1B"}
{"rt": "20405.0", "trial_number": "0", "skipped": "False", "complete": "True", "assignment": "3PMBY0YE28B43VMUKKJ6EDF85RV9C8", "start_time": "1.51638665552e+12", "human_length": "16", "nodes_expanded": "999", "instance": "prb34551", "end_time": "1.51638667593e+12", "optimal_length": "14", "subject": "A191V7PT3DQKDP"}
{"rt": "20606.0", "trial_number": "0", "skipped": "False", "complete": "True", "assignment": "3ZSANO2JCGFTBM23KS9Y3E51YP4FSQ", "start_time": "1.51814313646e+12", "human_length": "20", "nodes_expanded": "999", "instance": "prb34551", "end_time": "1.51814315706e+12", "optimal_length": "14", "subject": "A1F42D4L22K5ND"}
{"rt": "28284.0", "trial_number": "0", "skipped": "False", "complete": "True", "assignment": "3TS1AR6UQRM7SOIBWPBN8N9589Y7FV", "start_time": "1.51683905311e+12", "human_length": "23", "nodes_expanded": "999", "instance": "prb34551", "end_time": "1.5168390814e+12", "optimal_length": "14", "subject": "A1F4N58CAX8IMK"}
{"rt": "15443.0", "trial_number": "1", "skipped": "False", "complete": "True", "assignment": "35DR22AR5ES6RR89U7EJ1DXW91AX3P", "start_time": "1.51795248249e+12", "human_length": "14", "nodes_expanded": "999", "instance": "prb34551", "end_time": "1.51795249793e+12", "optimal_length": "14", "subject": "A1F4N58CAX8IMK"}
{"rt": "24628.0", "trial_number": "0", "skipped": "False", "complete": "True", "assignment": "33F859I567LE8WC74WB3GA7E94XBHW", "start_time": "1.5179678457e+12", "human_length": "14", "nodes_expanded": "999", "instance": "prb34551", "end_time": "1.51796787032e+12", "optimal_length": "14", "subject": "A1GQS6USF2JEYG"}
{"rt": "52231.0", "trial_number": "0", "skipped": "False", "complete": "True", "assignment": "3XLBSAQ9Z5KDX59BX15UBFPNNHYZ7Q", "start_time": "1.51814516092e+12", "human_length": "39", "nodes_expanded": "999", "instance": "prb34551", "end_time": "1.51814521315e+12", "optimal_length": "14", "subject": "A1HFNOKU591WCY"}
{"rt": "20682.0", "trial_number": "0", "skipped": "False", "complete": "True", "assignment": "3FTF2T8WLSQDHTSZ1BJ7Q7MB14SW9H", "start_time": "1.5181367193e+12", "human_length": "16", "nodes_expanded": "999", "instance": "prb34551", "end_time": "1.51813673998e+12", "optimal_length": "14", "subject": "A1IUH9D7N69VS"}
{"rt": "0.0", "trial_number": "0", "skipped": "False", "complete": "False", "assignment": "3YW4XOSQKRTI0K0Z2YPDTDJVFABU1I", "start_time": "1.5168303092e+12", "human_length": "1", "nodes_expanded": "999", "instance": "prb34551", "end_time": "1.5168303092e+12", "optimal_length": "14", "subject": "A1LR0VQIHQUJAM"}
{"rt": "18674.0", "trial_number": "1", "skipped": "False", "complete": "True", "assignment": "3YW4XOSQKRTI0K0Z2YPDTDJVFABU1I", "start_time": "1.5168303092e+12", "human_length": "18", "nodes_expanded": "999", "instance": "prb34551", "end_time": "1.51683032787e+12", "optimal_length": "14", "subject": "A1LR0VQIHQUJAM"}
{"rt": "58773.0", "trial_number": "0", "skipped": "False", "complete": "True", "assignment": "3R5F3LQFV3SKIB1AENMWM1BICT5OZB", "start_time": "1.51795691665e+12", "human_length": "30", "nodes_expanded": "999", "instance": "prb34551", "end_time": "1.51795697542e+12", "optimal_length": "14", "subject": "A1N1EF0MIRSEZZ"}
{"rt": "12344.0", "trial_number": "0", "skipped": "True", "complete": "False", "assignment": "31LM9EDVOM0C0BWUVMJXJINN3QPJNI", "start_time": "1.51752434404e+12", "human_length": "7", "nodes_expanded": "999", "instance": "prb34551", "end_time": "1.51752435638e+12", "optimal_length": "14", "subject": "A1NT8BT94ME6F5"}
{"rt": "0.0", "trial_number": "0", "skipped": "False", "complete": "False", "assignment": "3SB5N7Y3O4CZODEMMAWWBTZU4C90GB", "start_time": "1.51813926947e+12", "human_length": "1", "nodes_expanded": "999", "instance": "prb34551", "end_time": "1.51813926947e+12", "optimal_length": "14", "subject": "A1RVMADIZE3BXK"}
{"rt": "26850.0", "trial_number": "1", "skipped": "False", "complete": "False", "assignment": "3SB5N7Y3O4CZODEMMAWWBTZU4C90GB", "start_time": "1.51813926951e+12", "human_length": "7", "nodes_expanded": "999", "instance": "prb34551", "end_time": "1.51813929636e+12", "optimal_length": "14", "subject": "A1RVMADIZE3BXK"}
{"rt": "49486.0", "trial_number": "2", "skipped": "False", "complete": "True", "assignment": "3SB5N7Y3O4CZODEMMAWWBTZU4C90GB", "start_time": "1.5181393067e+12", "human_length": "25", "nodes_expanded": "999", "instance": "prb34551", "end_time": "1.51813935619e+12", "optimal_length": "14", "subject": "A1RVMADIZE3BXK"}
{"rt": "23372.0", "trial_number": "0", "skipped": "False", "complete": "True", "assignment": "3PB5A5BD0WED6OE679H5Q89HBDGG71", "start_time": "1.5179528014e+12", "human_length": "16", "nodes_expanded": "999", "instance": "prb34551", "end_time": "1.51795282477e+12", "optimal_length": "14", "subject": "A1USR9JCAMDGM3"}
{"rt": "27178.0", "trial_number": "0", "skipped": "False", "complete": "True", "assignment": "3XC1O3LBOTUGQEPEV3HM8W67X4RTLL", "start_time": "1.51813782784e+12", "human_length": "19", "nodes_expanded": "999", "instance": "prb34551", "end_time": "1.51813785502e+12", "optimal_length": "14", "subject": "A1ZTSCPETU3UJW"}
{"rt": "23204.0", "trial_number": "0", "skipped": "False", "complete": "True", "assignment": "34BBWHLWHBJ6SUL255PK30LEGY5IWG", "start_time": "1.51639452633e+12", "human_length": "24", "nodes_expanded": "999", "instance": "prb34551", "end_time": "1.51639454953e+12", "optimal_length": "14", "subject": "A214HWAW1PYWO8"}
{"rt": "0.0", "trial_number": "0", "skipped": "False", "complete": "False", "assignment": "3X87C8JFV7JQ2BSCY8KSFD9F2ILSQK", "start_time": "1.51674585166e+12", "human_length": "1", "nodes_expanded": "999", "instance": "prb34551", "end_time": "1.51674585166e+12", "optimal_length": "14", "subject": "A21S7MA9DCW95E"}
{"rt": "0.0", "trial_number": "1", "skipped": "False", "complete": "False", "assignment": "3X87C8JFV7JQ2BSCY8KSFD9F2ILSQK", "start_time": "1.51674585166e+12", "human_length": "1", "nodes_expanded": "999", "instance": "prb34551", "end_time": "1.51674585166e+12", "optimal_length": "14", "subject": "A21S7MA9DCW95E"}
{"rt": "63126.0", "trial_number": "2", "skipped": "False", "complete": "True", "assignment": "3X87C8JFV7JQ2BSCY8KSFD9F2ILSQK", "start_time": "1.51674585166e+12", "human_length": "40", "nodes_expanded": "999", "instance": "prb34551", "end_time": "1.51674591478e+12", "optimal_length": "14", "subject": "A21S7MA9DCW95E"}
{"rt": "63126.0", "trial_number": "0", "skipped": "False", "complete": "True", "assignment": "3X87C8JFV7JQ2BSCY8KSFD9F2ILSQK", "start_time": "1.51674585166e+12", "human_length": "40", "nodes_expanded": "999", "instance": "prb34551", "end_time": "1.51674591478e+12", "optimal_length": "14", "subject": "A21S7MA9DCW95E"}
{"rt": "0.0", "trial_number": "0", "skipped": "False", "complete": "False", "assignment": "3IHR8NYAM89M0EPM8U9LH53ZJDTP4U", "start_time": "1.51682667518e+12", "human_length": "1", "nodes_expanded": "999", "instance": "prb34551", "end_time": "1.51682667518e+12", "optimal_length": "14", "subject": "A23437BMZ5T1FH"}
{"rt": "21052.0", "trial_number": "1", "skipped": "False", "complete": "True", "assignment": "3IHR8NYAM89M0EPM8U9LH53ZJDTP4U", "start_time": "1.51682667518e+12", "human_length": "18", "nodes_expanded": "999", "instance": "prb34551", "end_time": "1.51682669623e+12", "optimal_length": "14", "subject": "A23437BMZ5T1FH"}
{"rt": "27186.0", "trial_number": "0", "skipped": "True", "complete": "False", "assignment": "3SITXWYCNWHBUMCM90TPJWV8Y7AXBW", "start_time": "1.51816658642e+12", "human_length": "18", "nodes_expanded": "999", "instance": "prb34551", "end_time": "1.51816661361e+12", "optimal_length": "14", "subject": "A28RX7L0QZ993M"}
{"rt": "89678.0", "trial_number": "0", "skipped": "False", "complete": "True", "assignment": "3IAS3U3I0GOAT69PLB8WT61CKJ22BO", "start_time": "1.51793947242e+12", "human_length": "52", "nodes_expanded": "999", "instance": "prb34551", "end_time": "1.51793956209e+12", "optimal_length": "14", "subject": "A2C84POENS2UNY"}
{"rt": "36134.0", "trial_number": "0", "skipped": "False", "complete": "True", "assignment": "3TYCR1GOTDRCCQYD1V64UK7OE48LZS", "start_time": "1.51639180235e+12", "human_length": "22", "nodes_expanded": "999", "instance": "prb34551", "end_time": "1.51639183848e+12", "optimal_length": "14", "subject": "A2MYB6MLQW0IGN"}
{"rt": "29828.0", "trial_number": "0", "skipped": "False", "complete": "True", "assignment": "3FUI0JHJPY6UBT1VAI7VUX8S3KH33W", "start_time": "1.51815145425e+12", "human_length": "21", "nodes_expanded": "999", "instance": "prb34551", "end_time": "1.51815148408e+12", "optimal_length": "14", "subject": "A2QIZ31TMHU0GD"}
{"rt": "23533.0", "trial_number": "0", "skipped": "False", "complete": "True", "assignment": "3TAYZSBPLMG9ASQRWXURJVBCPLN2SH", "start_time": "1.51813776386e+12", "human_length": "20", "nodes_expanded": "999", "instance": "prb34551", "end_time": "1.51813778739e+12", "optimal_length": "14", "subject": "A2RCYLKY072XXO"}
{"rt": "56351.0", "trial_number": "0", "skipped": "False", "complete": "False", "assignment": "3IJXV6UZ1YR1KY4G6BFEG1DXP7SRI1", "start_time": "1.51675202046e+12", "human_length": "39", "nodes_expanded": "999", "instance": "prb34551", "end_time": "1.51675207681e+12", "optimal_length": "14", "subject": "A2RTJ6BDY0DZVZ"}
{"rt": "0.0", "trial_number": "1", "skipped": "False", "complete": "False", "assignment": "3IJXV6UZ1YR1KY4G6BFEG1DXP7SRI1", "start_time": "1.51675207856e+12", "human_length": "1", "nodes_expanded": "999", "instance": "prb34551", "end_time": "1.51675207856e+12", "optimal_length": "14", "subject": "A2RTJ6BDY0DZVZ"}
{"rt": "0.0", "trial_number": "2", "skipped": "False", "complete": "False", "assignment": "3IJXV6UZ1YR1KY4G6BFEG1DXP7SRI1", "start_time": "1.51675202046e+12", "human_length": "1", "nodes_expanded": "999", "instance": "prb34551", "end_time": "1.51675202046e+12", "optimal_length": "14", "subject": "A2RTJ6BDY0DZVZ"}
{"rt": "0.0", "trial_number": "3", "skipped": "False", "complete": "False", "assignment": "3IJXV6UZ1YR1KY4G6BFEG1DXP7SRI1", "start_time": "1.51675207856e+12", "human_length": "1", "nodes_expanded": "999", "instance": "prb34551", "end_time": "1.51675207856e+12", "optimal_length": "14", "subject": "A2RTJ6BDY0DZVZ"}
{"rt": "0.0", "trial_number": "4", "skipped": "False", "complete": "False", "assignment": "3IJXV6UZ1YR1KY4G6BFEG1DXP7SRI1", "start_time": "1.51675202046e+12", "human_length": "1", "nodes_expanded": "999", "instance": "prb34551", "end_time": "1.51675202046e+12", "optimal_length": "14", "subject": "A2RTJ6BDY0DZVZ"}
{"rt": "32070.0", "trial_number": "5", "skipped": "False", "complete": "True", "assignment": "3IJXV6UZ1YR1KY4G6BFEG1DXP7SRI1", "start_time": "1.51675207856e+12", "human_length": "18", "nodes_expanded": "999", "instance": "prb34551", "end_time": "1.51675211063e+12", "optimal_length": "14", "subject": "A2RTJ6BDY0DZVZ"}
{"rt": "56351.0", "trial_number": "0", "skipped": "False", "complete": "False", "assignment": "3IJXV6UZ1YR1KY4G6BFEG1DXP7SRI1", "start_time": "1.51675202046e+12", "human_length": "39", "nodes_expanded": "999", "instance": "prb34551", "end_time": "1.51675207681e+12", "optimal_length": "14", "subject": "A2RTJ6BDY0DZVZ"}
{"rt": "32070.0", "trial_number": "1", "skipped": "False", "complete": "True", "assignment": "3IJXV6UZ1YR1KY4G6BFEG1DXP7SRI1", "start_time": "1.51675207856e+12", "human_length": "18", "nodes_expanded": "999", "instance": "prb34551", "end_time": "1.51675211063e+12", "optimal_length": "14", "subject": "A2RTJ6BDY0DZVZ"}
{"rt": "0.0", "trial_number": "0", "skipped": "False", "complete": "False", "assignment": "3WSELTNVR4AZUVYAYCSWZIQW0J4ATB", "start_time": "1.51674045548e+12", "human_length": "1", "nodes_expanded": "999", "instance": "prb34551", "end_time": "1.51674045548e+12", "optimal_length": "14", "subject": "A2TQNX64349OZ9"}
{"rt": "0.0", "trial_number": "1", "skipped": "False", "complete": "False", "assignment": "3WSELTNVR4AZUVYAYCSWZIQW0J4ATB", "start_time": "1.51674045548e+12", "human_length": "1", "nodes_expanded": "999", "instance": "prb34551", "end_time": "1.51674045548e+12", "optimal_length": "14", "subject": "A2TQNX64349OZ9"}
{"rt": "24451.0", "trial_number": "2", "skipped": "False", "complete": "True", "assignment": "3WSELTNVR4AZUVYAYCSWZIQW0J4ATB", "start_time": "1.51674045548e+12", "human_length": "19", "nodes_expanded": "999", "instance": "prb34551", "end_time": "1.51674047993e+12", "optimal_length": "14", "subject": "A2TQNX64349OZ9"}
{"rt": "24451.0", "trial_number": "0", "skipped": "False", "complete": "True", "assignment": "3WSELTNVR4AZUVYAYCSWZIQW0J4ATB", "start_time": "1.51674045548e+12", "human_length": "19", "nodes_expanded": "999", "instance": "prb34551", "end_time": "1.51674047993e+12", "optimal_length": "14", "subject": "A2TQNX64349OZ9"}
{"rt": "46477.0", "trial_number": "0", "skipped": "False", "complete": "True", "assignment": "37TD41K0AIHM8AITTQJXV8KY05QCSB", "start_time": "1.51752367349e+12", "human_length": "25", "nodes_expanded": "999", "instance": "prb34551", "end_time": "1.51752371996e+12", "optimal_length": "14", "subject": "A30KYQGABO7JER"}
{"rt": "148260.0", "trial_number": "0", "skipped": "True", "complete": "False", "assignment": "3TXD01ZLD5PZSJXIPG8FRBQYTI9U4X", "start_time": "1.5179453455e+12", "human_length": "59", "nodes_expanded": "999", "instance": "prb34551", "end_time": "1.51794549376e+12", "optimal_length": "14", "subject": "A3BPRPN10HJD4B"}
{"rt": "33312.0", "trial_number": "0", "skipped": "False", "complete": "True", "assignment": "34HJIJKLP64Z5YMIU6IKNXSH7PDV4I", "start_time": "1.5179430393e+12", "human_length": "18", "nodes_expanded": "999", "instance": "prb34551", "end_time": "1.51794307261e+12", "optimal_length": "14", "subject": "A3CTXNQ2GXIQSP"}
{"rt": "22109.0", "trial_number": "0", "skipped": "False", "complete": "True", "assignment": "3TPWUS5F8A9FFRZ2DVTYSXNJ6BWWC6", "start_time": "1.51794081138e+12", "human_length": "14", "nodes_expanded": "999", "instance": "prb34551", "end_time": "1.51794083349e+12", "optimal_length": "14", "subject": "A3GXC3VG37CQ3G"}
{"rt": "43751.0", "trial_number": "0", "skipped": "False", "complete": "True", "assignment": "3V5Q80FXIYZ5QB5C6ITQBN30WY823U", "start_time": "1.51753299665e+12", "human_length": "21", "nodes_expanded": "999", "instance": "prb34551", "end_time": "1.5175330404e+12", "optimal_length": "14", "subject": "A3NMQ3019X6YE0"}
{"rt": "43751.0", "trial_number": "0", "skipped": "False", "complete": "True", "assignment": "3V5Q80FXIYZ5QB5C6ITQBN30WY823U", "start_time": "1.51753299665e+12", "human_length": "21", "nodes_expanded": "999", "instance": "prb34551", "end_time": "1.5175330404e+12", "optimal_length": "14", "subject": "A3NMQ3019X6YE0"}
{"rt": "23186.0", "trial_number": "0", "skipped": "False", "complete": "True", "assignment": "3STRJBFXOXZ5687WA35LTWTS7QZKTT", "start_time": "1.51794437224e+12", "human_length": "19", "nodes_expanded": "999", "instance": "prb34551", "end_time": "1.51794439543e+12", "optimal_length": "14", "subject": "A3OB6REG5CGHK1"}
{"rt": "0.0", "trial_number": "0", "skipped": "False", "complete": "False", "assignment": "3X87C8JFV7JQ2BSCY8KSFD9F2ILSQK", "start_time": "1.51673989047e+12", "human_length": "1", "nodes_expanded": "999", "instance": "prb34551", "end_time": "1.51673989047e+12", "optimal_length": "14", "subject": "A3Q0XAGQ7TD7MP"}
{"rt": "0.0", "trial_number": "1", "skipped": "False", "complete": "False", "assignment": "3X87C8JFV7JQ2BSCY8KSFD9F2ILSQK", "start_time": "1.51673989047e+12", "human_length": "1", "nodes_expanded": "999", "instance": "prb34551", "end_time": "1.51673989047e+12", "optimal_length": "14", "subject": "A3Q0XAGQ7TD7MP"}
{"rt": "29595.0", "trial_number": "2", "skipped": "False", "complete": "True", "assignment": "3X87C8JFV7JQ2BSCY8KSFD9F2ILSQK", "start_time": "1.51673989047e+12", "human_length": "16", "nodes_expanded": "999", "instance": "prb34551", "end_time": "1.51673992006e+12", "optimal_length": "14", "subject": "A3Q0XAGQ7TD7MP"}
{"rt": "37456.0", "trial_number": "3", "skipped": "False", "complete": "True", "assignment": "3GLB5JMZFY3TNXFGYMKRQ0JDXNTDGZ", "start_time": "1.51794614133e+12", "human_length": "17", "nodes_expanded": "999", "instance": "prb34551", "end_time": "1.51794617878e+12", "optimal_length": "14", "subject": "A3Q0XAGQ7TD7MP"}
{"rt": "29595.0", "trial_number": "0", "skipped": "False", "complete": "True", "assignment": "3X87C8JFV7JQ2BSCY8KSFD9F2ILSQK", "start_time": "1.51673989047e+12", "human_length": "16", "nodes_expanded": "999", "instance": "prb34551", "end_time": "1.51673992006e+12", "optimal_length": "14", "subject": "A3Q0XAGQ7TD7MP"}
{"rt": "37456.0", "trial_number": "1", "skipped": "False", "complete": "True", "assignment": "3GLB5JMZFY3TNXFGYMKRQ0JDXNTDGZ", "start_time": "1.51794614133e+12", "human_length": "17", "nodes_expanded": "999", "instance": "prb34551", "end_time": "1.51794617878e+12", "optimal_length": "14", "subject": "A3Q0XAGQ7TD7MP"}
{"rt": "64088.0", "trial_number": "0", "skipped": "False", "complete": "True", "assignment": "3M0BCWMB8W4W5M7WZVX3HDH1P53WB1", "start_time": "1.51815747845e+12", "human_length": "32", "nodes_expanded": "999", "instance": "prb34551", "end_time": "1.51815754254e+12", "optimal_length": "14", "subject": "A53S7J4JGWG38"}
{"rt": "0.0", "trial_number": "0", "skipped": "False", "complete": "False", "assignment": "34T446B1C1MM71YHKO0DL2EF3BLC0W", "start_time": "1.51673412227e+12", "human_length": "1", "nodes_expanded": "999", "instance": "prb34551", "end_time": "1.51673412227e+12", "optimal_length": "14", "subject": "ABL3H3O3BI8ZD"}
{"rt": "0.0", "trial_number": "1", "skipped": "False", "complete": "False", "assignment": "34T446B1C1MM71YHKO0DL2EF3BLC0W", "start_time": "1.51673412227e+12", "human_length": "1", "nodes_expanded": "999", "instance": "prb34551", "end_time": "1.51673412227e+12", "optimal_length": "14", "subject": "ABL3H3O3BI8ZD"}
{"rt": "42866.0", "trial_number": "2", "skipped": "False", "complete": "True", "assignment": "34T446B1C1MM71YHKO0DL2EF3BLC0W", "start_time": "1.51673412227e+12", "human_length": "32", "nodes_expanded": "999", "instance": "prb34551", "end_time": "1.51673416513e+12", "optimal_length": "14", "subject": "ABL3H3O3BI8ZD"}
{"rt": "42866.0", "trial_number": "0", "skipped": "False", "complete": "True", "assignment": "34T446B1C1MM71YHKO0DL2EF3BLC0W", "start_time": "1.51673412227e+12", "human_length": "32", "nodes_expanded": "999", "instance": "prb34551", "end_time": "1.51673416513e+12", "optimal_length": "14", "subject": "ABL3H3O3BI8ZD"}
{"rt": "13182.0", "trial_number": "0", "skipped": "False", "complete": "True", "assignment": "3IXEICO793RY7TM78ZBKJDOA7ADT6Q", "start_time": "1.5181695576e+12", "human_length": "15", "nodes_expanded": "999", "instance": "prb34551", "end_time": "1.51816957078e+12", "optimal_length": "14", "subject": "ALH1K6ZAQQMN7"}
{"rt": "55358.0", "trial_number": "0", "skipped": "False", "complete": "True", "assignment": "37QW5D2ZRHUKW7SGCE3STMOFBMK8SX", "start_time": "1.51815879075e+12", "human_length": "17", "nodes_expanded": "999", "instance": "prb34551", "end_time": "1.51815884611e+12", "optimal_length": "14", "subject": "AMW2XLD9443OH"}
{"rt": "31405.0", "trial_number": "0", "skipped": "False", "complete": "True", "assignment": "33PPO7FECWN7JOLBOAKUBCWTC0AIDL", "start_time": "1.5179507753e+12", "human_length": "17", "nodes_expanded": "999", "instance": "prb34551", "end_time": "1.51795080670e+12", "optimal_length": "14", "subject": "AXKM02NVXNGOM"}
