{"rt": "12685.0", "trial_number": "0", "skipped": "False", "complete": "True", "assignment": "3TYCR1GOTDRCCQYD1V64UK7OHTBZLQ", "start_time": "1.51753762656e+12", "human_length": "12", "nodes_expanded": "999", "instance": "prb34092", "end_time": "1.51753763924e+12", "optimal_length": "11", "subject": "A13BZCNJ0WR1T7"}
{"rt": "0.0", "trial_number": "0", "skipped": "False", "complete": "False", "assignment": "3YW4XOSQKRTI0K0Z2YPDTDJVFABU1I", "start_time": "1.51682246332e+12", "human_length": "1", "nodes_expanded": "999", "instance": "prb34092", "end_time": "1.51682246332e+12", "optimal_length": "11", "subject": "A15781PHGW377Y"}
{"rt": "58224.0", "trial_number": "1", "skipped": "False", "complete": "True", "assignment": "3YW4XOSQKRTI0K0Z2YPDTDJVFABU1I", "start_time": "1.51682246332e+12", "human_length": "12", "nodes_expanded": "999", "instance": "prb34092", "end_time": "1.51682252154e+12", "optimal_length": "11", "subject": "A15781PHGW377Y"}
{"rt": "58224.0", "trial_number": "0", "skipped": "False", "complete": "True", "assignment": "3YW4XOSQKRTI0K0Z2YPDTDJVFABU1I", "start_time": "1.51682246332e+12", "human_length": "12", "nodes_expanded": "999", "instance": "prb34092", "end_time": "1.51682252154e+12", "optimal_length": "11", "subject": "A15781PHGW377Y"}
{"rt": "0.0", "trial_number": "0", "skipped": "False", "complete": "False", "assignment": "3VE8AYVF8N5BS2NU6U3TMN50JMNF8V", "start_time": "1.51673817496e+12", "human_length": "1", "nodes_expanded": "999", "instance": "prb34092", "end_time": "1.51673817496e+12", "optimal_length": "11", "subject": "A18QU0YQB6Q8DF"}
{"rt": "0.0", "trial_number": "1", "skipped": "False", "complete": "False", "assignment": "3VE8AYVF8N5BS2NU6U3TMN50JMNF8V", "start_time": "1.51673817496e+12", "human_length": "1", "nodes_expanded": "999", "instance": "prb34092", "end_time": "1.51673817496e+12", "optimal_length": "11", "subject": "A18QU0YQB6Q8DF"}
{"rt": "43473.0", "trial_number": "2", "skipped": "True", "complete": "False", "assignment": "3VE8AYVF8N5BS2NU6U3TMN50JMNF8V", "start_time": "1.51673817496e+12", "human_length": "43", "nodes_expanded": "999", "instance": "prb34092", "end_time": "1.51673821843e+12", "optimal_length": "11", "subject": "A18QU0YQB6Q8DF"}
{"rt": "43473.0", "trial_number": "0", "skipped": "True", "complete": "False", "assignment": "3VE8AYVF8N5BS2NU6U3TMN50JMNF8V", "start_time": "1.51673817496e+12", "human_length": "17", "nodes_expanded": "999", "instance": "prb34092", "end_time": "1.51673821843e+12", "optimal_length": "11", "subject": "A18QU0YQB6Q8DF"}
{"rt": "17220.0", "trial_number": "0", "skipped": "False", "complete": "True", "assignment": "3IJXV6UZ1YR1KY4G6BFEG1DXR47RIC", "start_time": "1.51797294864e+12", "human_length": "19", "nodes_expanded": "999", "instance": "prb34092", "end_time": "1.51797296586e+12", "optimal_length": "11", "subject": "A18T3WK7J16C1B"}
{"rt": "10934.0", "trial_number": "0", "skipped": "False", "complete": "True", "assignment": "3PMBY0YE28B43VMUKKJ6EDF85RV9C8", "start_time": "1.51638614172e+12", "human_length": "12", "nodes_expanded": "999", "instance": "prb34092", "end_time": "1.51638615265e+12", "optimal_length": "11", "subject": "A191V7PT3DQKDP"}
{"rt": "15961.0", "trial_number": "0", "skipped": "False", "complete": "True", "assignment": "3ZSANO2JCGFTBM23KS9Y3E51YP4FSQ", "start_time": "1.51814294535e+12", "human_length": "14", "nodes_expanded": "999", "instance": "prb34092", "end_time": "1.51814296131e+12", "optimal_length": "11", "subject": "A1F42D4L22K5ND"}
{"rt": "51382.0", "trial_number": "0", "skipped": "False", "complete": "True", "assignment": "3TS1AR6UQRM7SOIBWPBN8N9589Y7FV", "start_time": "1.51683745697e+12", "human_length": "38", "nodes_expanded": "999", "instance": "prb34092", "end_time": "1.51683750835e+12", "optimal_length": "11", "subject": "A1F4N58CAX8IMK"}
{"rt": "26525.0", "trial_number": "1", "skipped": "False", "complete": "True", "assignment": "35DR22AR5ES6RR89U7EJ1DXW91AX3P", "start_time": "1.51795256437e+12", "human_length": "23", "nodes_expanded": "999", "instance": "prb34092", "end_time": "1.51795259089e+12", "optimal_length": "11", "subject": "A1F4N58CAX8IMK"}
{"rt": "22258.0", "trial_number": "0", "skipped": "False", "complete": "True", "assignment": "33F859I567LE8WC74WB3GA7E94XBHW", "start_time": "1.51796787152e+12", "human_length": "16", "nodes_expanded": "999", "instance": "prb34092", "end_time": "1.51796789378e+12", "optimal_length": "11", "subject": "A1GQS6USF2JEYG"}
{"rt": "13304.0", "trial_number": "0", "skipped": "False", "complete": "True", "assignment": "3XLBSAQ9Z5KDX59BX15UBFPNNHYZ7Q", "start_time": "1.51814527477e+12", "human_length": "11", "nodes_expanded": "999", "instance": "prb34092", "end_time": "1.51814528808e+12", "optimal_length": "11", "subject": "A1HFNOKU591WCY"}
{"rt": "15888.0", "trial_number": "0", "skipped": "False", "complete": "True", "assignment": "3FTF2T8WLSQDHTSZ1BJ7Q7MB14SW9H", "start_time": "1.51813803054e+12", "human_length": "14", "nodes_expanded": "999", "instance": "prb34092", "end_time": "1.51813804643e+12", "optimal_length": "11", "subject": "A1IUH9D7N69VS"}
{"rt": "0.0", "trial_number": "0", "skipped": "False", "complete": "False", "assignment": "3YW4XOSQKRTI0K0Z2YPDTDJVFABU1I", "start_time": "1.51683123534e+12", "human_length": "1", "nodes_expanded": "999", "instance": "prb34092", "end_time": "1.51683123534e+12", "optimal_length": "11", "subject": "A1LR0VQIHQUJAM"}
{"rt": "13928.0", "trial_number": "1", "skipped": "False", "complete": "True", "assignment": "3YW4XOSQKRTI0K0Z2YPDTDJVFABU1I", "start_time": "1.51683123534e+12", "human_length": "14", "nodes_expanded": "999", "instance": "prb34092", "end_time": "1.51683124926e+12", "optimal_length": "11", "subject": "A1LR0VQIHQUJAM"}
{"rt": "39679.0", "trial_number": "0", "skipped": "False", "complete": "True", "assignment": "31LM9EDVOM0C0BWUVMJXJINN3QPJNI", "start_time": "1.51752330967e+12", "human_length": "20", "nodes_expanded": "999", "instance": "prb34092", "end_time": "1.51752334935e+12", "optimal_length": "11", "subject": "A1NT8BT94ME6F5"}
{"rt": "24939.0", "trial_number": "0", "skipped": "False", "complete": "True", "assignment": "3SB5N7Y3O4CZODEMMAWWBTZU4C90GB", "start_time": "1.51813889048e+12", "human_length": "14", "nodes_expanded": "999", "instance": "prb34092", "end_time": "1.51813891542e+12", "optimal_length": "11", "subject": "A1RVMADIZE3BXK"}
{"rt": "31025.0", "trial_number": "0", "skipped": "False", "complete": "False", "assignment": "3RUIQRXJBCWS71H9MUFVM5WQ3SCLLJ", "start_time": "1.51815536651e+12", "human_length": "10", "nodes_expanded": "999", "instance": "prb34092", "end_time": "1.51815539754e+12", "optimal_length": "11", "subject": "A1SJRFJWFXSDH4"}
{"rt": "48580.0", "trial_number": "1", "skipped": "False", "complete": "True", "assignment": "3RUIQRXJBCWS71H9MUFVM5WQ3SCLLJ", "start_time": "1.51815541318e+12", "human_length": "16", "nodes_expanded": "999", "instance": "prb34092", "end_time": "1.51815546176e+12", "optimal_length": "11", "subject": "A1SJRFJWFXSDH4"}
{"rt": "24471.0", "trial_number": "0", "skipped": "True", "complete": "False", "assignment": "3XC1O3LBOTUGQEPEV3HM8W67X4RTLL", "start_time": "1.51813886753e+12", "human_length": "10", "nodes_expanded": "999", "instance": "prb34092", "end_time": "1.518138892e+12", "optimal_length": "11", "subject": "A1ZTSCPETU3UJW"}
{"rt": "60016.0", "trial_number": "0", "skipped": "False", "complete": "True", "assignment": "34BBWHLWHBJ6SUL255PK30LEGY5IWG", "start_time": "1.51639383856e+12", "human_length": "18", "nodes_expanded": "999", "instance": "prb34092", "end_time": "1.51639389858e+12", "optimal_length": "11", "subject": "A214HWAW1PYWO8"}
{"rt": "0.0", "trial_number": "0", "skipped": "False", "complete": "False", "assignment": "3X87C8JFV7JQ2BSCY8KSFD9F2ILSQK", "start_time": "1.51674721703e+12", "human_length": "1", "nodes_expanded": "999", "instance": "prb34092", "end_time": "1.51674721703e+12", "optimal_length": "11", "subject": "A21S7MA9DCW95E"}
{"rt": "0.0", "trial_number": "1", "skipped": "False", "complete": "False", "assignment": "3X87C8JFV7JQ2BSCY8KSFD9F2ILSQK", "start_time": "1.51674721703e+12", "human_length": "1", "nodes_expanded": "999", "instance": "prb34092", "end_time": "1.51674721703e+12", "optimal_length": "11", "subject": "A21S7MA9DCW95E"}
{"rt": "18663.0", "trial_number": "2", "skipped": "False", "complete": "True", "assignment": "3X87C8JFV7JQ2BSCY8KSFD9F2ILSQK", "start_time": "1.51674721703e+12", "human_length": "12", "nodes_expanded": "999", "instance": "prb34092", "end_time": "1.5167472357e+12", "optimal_length": "11", "subject": "A21S7MA9DCW95E"}
{"rt": "18663.0", "trial_number": "0", "skipped": "False", "complete": "True", "assignment": "3X87C8JFV7JQ2BSCY8KSFD9F2ILSQK", "start_time": "1.51674721703e+12", "human_length": "12", "nodes_expanded": "999", "instance": "prb34092", "end_time": "1.5167472357e+12", "optimal_length": "11", "subject": "A21S7MA9DCW95E"}
{"rt": "0.0", "trial_number": "0", "skipped": "False", "complete": "False", "assignment": "3IHR8NYAM89M0EPM8U9LH53ZJDTP4U", "start_time": "1.51682646535e+12", "human_length": "1", "nodes_expanded": "999", "instance": "prb34092", "end_time": "1.51682646535e+12", "optimal_length": "11", "subject": "A23437BMZ5T1FH"}
{"rt": "12604.0", "trial_number": "1", "skipped": "False", "complete": "True", "assignment": "3IHR8NYAM89M0EPM8U9LH53ZJDTP4U", "start_time": "1.51682646535e+12", "human_length": "14", "nodes_expanded": "999", "instance": "prb34092", "end_time": "1.51682647795e+12", "optimal_length": "11", "subject": "A23437BMZ5T1FH"}
{"rt": "0.0", "trial_number": "0", "skipped": "False", "complete": "False", "assignment": "3X4MXAO0BHWJLTOLVSJTHSM54OHWRG", "start_time": "1.51682525258e+12", "human_length": "1", "nodes_expanded": "999", "instance": "prb34092", "end_time": "1.51682525258e+12", "optimal_length": "11", "subject": "A2IBQA01NR5N76"}
{"rt": "37154.0", "trial_number": "1", "skipped": "False", "complete": "True", "assignment": "3X4MXAO0BHWJLTOLVSJTHSM54OHWRG", "start_time": "1.51682525258e+12", "human_length": "20", "nodes_expanded": "999", "instance": "prb34092", "end_time": "1.51682528973e+12", "optimal_length": "11", "subject": "A2IBQA01NR5N76"}
{"rt": "35643.0", "trial_number": "0", "skipped": "False", "complete": "True", "assignment": "3FUI0JHJPY6UBT1VAI7VUX8S3KH33W", "start_time": "1.51814956616e+12", "human_length": "17", "nodes_expanded": "999", "instance": "prb34092", "end_time": "1.5181496018e+12", "optimal_length": "11", "subject": "A2QIZ31TMHU0GD"}
{"rt": "25341.0", "trial_number": "0", "skipped": "False", "complete": "True", "assignment": "3TAYZSBPLMG9ASQRWXURJVBCPLN2SH", "start_time": "1.51813643518e+12", "human_length": "14", "nodes_expanded": "999", "instance": "prb34092", "end_time": "1.51813646052e+12", "optimal_length": "11", "subject": "A2RCYLKY072XXO"}
{"rt": "0.0", "trial_number": "0", "skipped": "False", "complete": "False", "assignment": "3IJXV6UZ1YR1KY4G6BFEG1DXP7SRI1", "start_time": "1.51675098414e+12", "human_length": "1", "nodes_expanded": "999", "instance": "prb34092", "end_time": "1.51675098414e+12", "optimal_length": "11", "subject": "A2RTJ6BDY0DZVZ"}
{"rt": "0.0", "trial_number": "1", "skipped": "False", "complete": "False", "assignment": "3IJXV6UZ1YR1KY4G6BFEG1DXP7SRI1", "start_time": "1.51675098414e+12", "human_length": "1", "nodes_expanded": "999", "instance": "prb34092", "end_time": "1.51675098414e+12", "optimal_length": "11", "subject": "A2RTJ6BDY0DZVZ"}
{"rt": "17839.0", "trial_number": "2", "skipped": "False", "complete": "True", "assignment": "3IJXV6UZ1YR1KY4G6BFEG1DXP7SRI1", "start_time": "1.51675098414e+12", "human_length": "13", "nodes_expanded": "999", "instance": "prb34092", "end_time": "1.51675100198e+12", "optimal_length": "11", "subject": "A2RTJ6BDY0DZVZ"}
{"rt": "17839.0", "trial_number": "0", "skipped": "False", "complete": "True", "assignment": "3IJXV6UZ1YR1KY4G6BFEG1DXP7SRI1", "start_time": "1.51675098414e+12", "human_length": "13", "nodes_expanded": "999", "instance": "prb34092", "end_time": "1.51675100198e+12", "optimal_length": "11", "subject": "A2RTJ6BDY0DZVZ"}
{"rt": "0.0", "trial_number": "0", "skipped": "False", "complete": "False", "assignment": "3WSELTNVR4AZUVYAYCSWZIQW0J4ATB", "start_time": "1.51674027912e+12", "human_length": "1", "nodes_expanded": "999", "instance": "prb34092", "end_time": "1.51674027912e+12", "optimal_length": "11", "subject": "A2TQNX64349OZ9"}
{"rt": "0.0", "trial_number": "1", "skipped": "False", "complete": "False", "assignment": "3WSELTNVR4AZUVYAYCSWZIQW0J4ATB", "start_time": "1.51674027912e+12", "human_length": "1", "nodes_expanded": "999", "instance": "prb34092", "end_time": "1.51674027912e+12", "optimal_length": "11", "subject": "A2TQNX64349OZ9"}
{"rt": "16466.0", "trial_number": "2", "skipped": "True", "complete": "False", "assignment": "3WSELTNVR4AZUVYAYCSWZIQW0J4ATB", "start_time": "1.51674027912e+12", "human_length": "21", "nodes_expanded": "999", "instance": "prb34092", "end_time": "1.51674029559e+12", "optimal_length": "11", "subject": "A2TQNX64349OZ9"}
{"rt": "16466.0", "trial_number": "0", "skipped": "True", "complete": "False", "assignment": "3WSELTNVR4AZUVYAYCSWZIQW0J4ATB", "start_time": "1.51674027912e+12", "human_length": "9", "nodes_expanded": "999", "instance": "prb34092", "end_time": "1.51674029559e+12", "optimal_length": "11", "subject": "A2TQNX64349OZ9"}
{"rt": "22389.0", "trial_number": "0", "skipped": "False", "complete": "True", "assignment": "3JCG6DTRV4YEPVDZ64VNKDUEMPGQQ1", "start_time": "1.51794719131e+12", "human_length": "11", "nodes_expanded": "999", "instance": "prb34092", "end_time": "1.5179472137e+12", "optimal_length": "11", "subject": "A2V7KYLBCBTI3B"}
{"rt": "17618.0", "trial_number": "0", "skipped": "False", "complete": "True", "assignment": "37TD41K0AIHM8AITTQJXV8KY05QCSB", "start_time": "1.51752550389e+12", "human_length": "11", "nodes_expanded": "999", "instance": "prb34092", "end_time": "1.51752552150e+12", "optimal_length": "11", "subject": "A30KYQGABO7JER"}
{"rt": "18447.0", "trial_number": "0", "skipped": "False", "complete": "True", "assignment": "34HJIJKLP64Z5YMIU6IKNXSH7PDV4I", "start_time": "1.51794320101e+12", "human_length": "12", "nodes_expanded": "999", "instance": "prb34092", "end_time": "1.51794321945e+12", "optimal_length": "11", "subject": "A3CTXNQ2GXIQSP"}
{"rt": "40849.0", "trial_number": "0", "skipped": "False", "complete": "False", "assignment": "3TMFV4NEP9MD3O9PWJDTQBR0HZYW8I", "start_time": "1.51814480329e+12", "human_length": "23", "nodes_expanded": "999", "instance": "prb34092", "end_time": "1.51814484414e+12", "optimal_length": "11", "subject": "A3GOOI75XOF24V"}
{"rt": "58093.0", "trial_number": "1", "skipped": "False", "complete": "False", "assignment": "3TMFV4NEP9MD3O9PWJDTQBR0HZYW8I", "start_time": "1.51814484764e+12", "human_length": "21", "nodes_expanded": "999", "instance": "prb34092", "end_time": "1.51814490574e+12", "optimal_length": "11", "subject": "A3GOOI75XOF24V"}
{"rt": "36747.0", "trial_number": "2", "skipped": "False", "complete": "True", "assignment": "3TMFV4NEP9MD3O9PWJDTQBR0HZYW8I", "start_time": "1.51814490663e+12", "human_length": "18", "nodes_expanded": "999", "instance": "prb34092", "end_time": "1.51814494338e+12", "optimal_length": "11", "subject": "A3GOOI75XOF24V"}
{"rt": "18264.0", "trial_number": "0", "skipped": "False", "complete": "True", "assignment": "3TPWUS5F8A9FFRZ2DVTYSXNJ6BWWC6", "start_time": "1.51794156706e+12", "human_length": "11", "nodes_expanded": "999", "instance": "prb34092", "end_time": "1.51794158532e+12", "optimal_length": "11", "subject": "A3GXC3VG37CQ3G"}
{"rt": "23721.0", "trial_number": "0", "skipped": "False", "complete": "True", "assignment": "3V5Q80FXIYZ5QB5C6ITQBN30WY823U", "start_time": "1.51753518441e+12", "human_length": "17", "nodes_expanded": "999", "instance": "prb34092", "end_time": "1.51753520813e+12", "optimal_length": "11", "subject": "A3NMQ3019X6YE0"}
{"rt": "23721.0", "trial_number": "0", "skipped": "False", "complete": "True", "assignment": "3V5Q80FXIYZ5QB5C6ITQBN30WY823U", "start_time": "1.51753518441e+12", "human_length": "17", "nodes_expanded": "999", "instance": "prb34092", "end_time": "1.51753520813e+12", "optimal_length": "11", "subject": "A3NMQ3019X6YE0"}
{"rt": "0.0", "trial_number": "0", "skipped": "False", "complete": "False", "assignment": "3X87C8JFV7JQ2BSCY8KSFD9F2ILSQK", "start_time": "1.5167380457e+12", "human_length": "1", "nodes_expanded": "999", "instance": "prb34092", "end_time": "1.5167380457e+12", "optimal_length": "11", "subject": "A3Q0XAGQ7TD7MP"}
{"rt": "0.0", "trial_number": "1", "skipped": "False", "complete": "False", "assignment": "3X87C8JFV7JQ2BSCY8KSFD9F2ILSQK", "start_time": "1.5167380457e+12", "human_length": "1", "nodes_expanded": "999", "instance": "prb34092", "end_time": "1.5167380457e+12", "optimal_length": "11", "subject": "A3Q0XAGQ7TD7MP"}
{"rt": "24565.0", "trial_number": "2", "skipped": "False", "complete": "True", "assignment": "3X87C8JFV7JQ2BSCY8KSFD9F2ILSQK", "start_time": "1.5167380457e+12", "human_length": "11", "nodes_expanded": "999", "instance": "prb34092", "end_time": "1.51673807027e+12", "optimal_length": "11", "subject": "A3Q0XAGQ7TD7MP"}
{"rt": "26880.0", "trial_number": "3", "skipped": "False", "complete": "True", "assignment": "3GLB5JMZFY3TNXFGYMKRQ0JDXNTDGZ", "start_time": "1.51794722181e+12", "human_length": "13", "nodes_expanded": "999", "instance": "prb34092", "end_time": "1.51794724869e+12", "optimal_length": "11", "subject": "A3Q0XAGQ7TD7MP"}
{"rt": "24565.0", "trial_number": "0", "skipped": "False", "complete": "True", "assignment": "3X87C8JFV7JQ2BSCY8KSFD9F2ILSQK", "start_time": "1.5167380457e+12", "human_length": "11", "nodes_expanded": "999", "instance": "prb34092", "end_time": "1.51673807027e+12", "optimal_length": "11", "subject": "A3Q0XAGQ7TD7MP"}
{"rt": "26880.0", "trial_number": "1", "skipped": "False", "complete": "True", "assignment": "3GLB5JMZFY3TNXFGYMKRQ0JDXNTDGZ", "start_time": "1.51794722181e+12", "human_length": "13", "nodes_expanded": "999", "instance": "prb34092", "end_time": "1.51794724869e+12", "optimal_length": "11", "subject": "A3Q0XAGQ7TD7MP"}
{"rt": "43860.0", "trial_number": "0", "skipped": "False", "complete": "True", "assignment": "3M0BCWMB8W4W5M7WZVX3HDH1P53WB1", "start_time": "1.51816047557e+12", "human_length": "11", "nodes_expanded": "999", "instance": "prb34092", "end_time": "1.51816051943e+12", "optimal_length": "11", "subject": "A53S7J4JGWG38"}
{"rt": "33616.0", "trial_number": "0", "skipped": "False", "complete": "True", "assignment": "33PPO7FECWN7JOLBOAKUBCWTC0AIDL", "start_time": "1.51794264138e+12", "human_length": "26", "nodes_expanded": "999", "instance": "prb34092", "end_time": "1.517942675e+12", "optimal_length": "11", "subject": "AB5IVPS4OP9M7"}
{"rt": "15952.0", "trial_number": "0", "skipped": "False", "complete": "True", "assignment": "3IXEICO793RY7TM78ZBKJDOA7ADT6Q", "start_time": "1.51816846987e+12", "human_length": "16", "nodes_expanded": "999", "instance": "prb34092", "end_time": "1.51816848582e+12", "optimal_length": "11", "subject": "ALH1K6ZAQQMN7"}
{"rt": "23125.0", "trial_number": "0", "skipped": "False", "complete": "True", "assignment": "37QW5D2ZRHUKW7SGCE3STMOFBMK8SX", "start_time": "1.51815652717e+12", "human_length": "15", "nodes_expanded": "999", "instance": "prb34092", "end_time": "1.5181565503e+12", "optimal_length": "11", "subject": "AMW2XLD9443OH"}
{"rt": "13404.0", "trial_number": "0", "skipped": "False", "complete": "True", "assignment": "3AZHRG4CU5SYU12YRVPCSZALW5003R", "start_time": "1.51630602816e+12", "human_length": "15", "nodes_expanded": "999", "instance": "prb34092", "end_time": "1.51630604156e+12", "optimal_length": "11", "subject": "ARWF605I7RWM7"}
{"rt": "24875.0", "trial_number": "0", "skipped": "False", "complete": "True", "assignment": "3ZSY5X72NYJBGKFJ46SJ0Y9J0RLROB", "start_time": "1.51638778367e+12", "human_length": "14", "nodes_expanded": "999", "instance": "prb34092", "end_time": "1.51638780854e+12", "optimal_length": "11", "subject": "AU4KK3OYS2UZF"}
{"rt": "20952.0", "trial_number": "0", "skipped": "False", "complete": "True", "assignment": "33PPO7FECWN7JOLBOAKUBCWTC0AIDL", "start_time": "1.51794830493e+12", "human_length": "11", "nodes_expanded": "999", "instance": "prb34092", "end_time": "1.51794832588e+12", "optimal_length": "11", "subject": "AXKM02NVXNGOM"}
