{"meta_move": "drag_end", "rt": "4696.0", "trial_number": "1", "pre_actions": "1", "move": "4@28", "instance": "prb33117", "distance_to_goal": "NA", "progress": "NA", "move_number": "0", "optimal_length": "14", "subject": "A15781PHGW377Y:3YW4XOSQKRTI0K0Z2YPDTDJVFABU1I"}
{"meta_move": "drag_end", "rt": "2309.0", "trial_number": "1", "pre_actions": "1", "move": "6@34", "instance": "prb33117", "distance_to_goal": "NA", "progress": "NA", "move_number": "1", "optimal_length": "14", "subject": "A15781PHGW377Y:3YW4XOSQKRTI0K0Z2YPDTDJVFABU1I"}
{"meta_move": "drag_end", "rt": "2829.0", "trial_number": "1", "pre_actions": "1", "move": "1@26", "instance": "prb33117", "distance_to_goal": "NA", "progress": "NA", "move_number": "2", "optimal_length": "14", "subject": "A15781PHGW377Y:3YW4XOSQKRTI0K0Z2YPDTDJVFABU1I"}
{"meta_move": "drag_end", "rt": "3583.0", "trial_number": "1", "pre_actions": "1", "move": "3@9", "instance": "prb33117", "distance_to_goal": "NA", "progress": "NA", "move_number": "3", "optimal_length": "14", "subject": "A15781PHGW377Y:3YW4XOSQKRTI0K0Z2YPDTDJVFABU1I"}
{"meta_move": "drag_end", "rt": "1283.0", "trial_number": "1", "pre_actions": "1", "move": "1@8", "instance": "prb33117", "distance_to_goal": "NA", "progress": "NA", "move_number": "3", "optimal_length": "14", "subject": "A15781PHGW377Y:3YW4XOSQKRTI0K0Z2YPDTDJVFABU1I"}
{"meta_move": "drag_end", "rt": "2140.0", "trial_number": "1", "pre_actions": "1", "move": "1@20", "instance": "prb33117", "distance_to_goal": "NA", "progress": "NA", "move_number": "4", "optimal_length": "14", "subject": "A15781PHGW377Y:3YW4XOSQKRTI0K0Z2YPDTDJVFABU1I"}
{"meta_move": "drag_end", "rt": "2036.0", "trial_number": "1", "pre_actions": "1", "move": "3@21", "instance": "prb33117", "distance_to_goal": "NA", "progress": "NA", "move_number": "5", "optimal_length": "14", "subject": "A15781PHGW377Y:3YW4XOSQKRTI0K0Z2YPDTDJVFABU1I"}
{"meta_move": "drag_end", "rt": "1047.0", "trial_number": "1", "pre_actions": "1", "move": "r@14", "instance": "prb33117", "distance_to_goal": "NA", "progress": "NA", "move_number": "6", "optimal_length": "14", "subject": "A15781PHGW377Y:3YW4XOSQKRTI0K0Z2YPDTDJVFABU1I"}
{"meta_move": "drag_end", "rt": "1172.0", "trial_number": "1", "pre_actions": "1", "move": "2@3", "instance": "prb33117", "distance_to_goal": "NA", "progress": "NA", "move_number": "7", "optimal_length": "14", "subject": "A15781PHGW377Y:3YW4XOSQKRTI0K0Z2YPDTDJVFABU1I"}
{"meta_move": "drag_end", "rt": "1016.0", "trial_number": "1", "pre_actions": "1", "move": "0@1", "instance": "prb33117", "distance_to_goal": "NA", "progress": "NA", "move_number": "8", "optimal_length": "14", "subject": "A15781PHGW377Y:3YW4XOSQKRTI0K0Z2YPDTDJVFABU1I"}
{"meta_move": "drag_end", "rt": "1286.0", "trial_number": "1", "pre_actions": "1", "move": "r@12", "instance": "prb33117", "distance_to_goal": "NA", "progress": "NA", "move_number": "9", "optimal_length": "14", "subject": "A15781PHGW377Y:3YW4XOSQKRTI0K0Z2YPDTDJVFABU1I"}
{"meta_move": "drag_end", "rt": "1173.0", "trial_number": "1", "pre_actions": "1", "move": "1@2", "instance": "prb33117", "distance_to_goal": "NA", "progress": "NA", "move_number": "10", "optimal_length": "14", "subject": "A15781PHGW377Y:3YW4XOSQKRTI0K0Z2YPDTDJVFABU1I"}
{"meta_move": "drag_end", "rt": "1360.0", "trial_number": "1", "pre_actions": "1", "move": "3@9", "instance": "prb33117", "distance_to_goal": "NA", "progress": "NA", "move_number": "11", "optimal_length": "14", "subject": "A15781PHGW377Y:3YW4XOSQKRTI0K0Z2YPDTDJVFABU1I"}
{"meta_move": "drag_end", "rt": "1126.0", "trial_number": "1", "pre_actions": "1", "move": "4@24", "instance": "prb33117", "distance_to_goal": "NA", "progress": "NA", "move_number": "12", "optimal_length": "14", "subject": "A15781PHGW377Y:3YW4XOSQKRTI0K0Z2YPDTDJVFABU1I"}
{"meta_move": "drag_end", "rt": "1152.0", "trial_number": "1", "pre_actions": "1", "move": "6@30", "instance": "prb33117", "distance_to_goal": "NA", "progress": "NA", "move_number": "13", "optimal_length": "14", "subject": "A15781PHGW377Y:3YW4XOSQKRTI0K0Z2YPDTDJVFABU1I"}
{"meta_move": "drag_end", "rt": "963.0", "trial_number": "1", "pre_actions": "1", "move": "3@21", "instance": "prb33117", "distance_to_goal": "NA", "progress": "NA", "move_number": "14", "optimal_length": "14", "subject": "A15781PHGW377Y:3YW4XOSQKRTI0K0Z2YPDTDJVFABU1I"}
{"meta_move": "drag_end", "rt": "628.0", "trial_number": "1", "pre_actions": "1", "move": "5@22", "instance": "prb33117", "distance_to_goal": "NA", "progress": "NA", "move_number": "15", "optimal_length": "14", "subject": "A15781PHGW377Y:3YW4XOSQKRTI0K0Z2YPDTDJVFABU1I"}
{"meta_move": "drag_end", "rt": "709.0", "trial_number": "1", "pre_actions": "1", "move": "7@23", "instance": "prb33117", "distance_to_goal": "NA", "progress": "NA", "move_number": "16", "optimal_length": "14", "subject": "A15781PHGW377Y:3YW4XOSQKRTI0K0Z2YPDTDJVFABU1I"}
{"meta_move": "win", "rt": "869.0", "trial_number": "1", "pre_actions": "1", "move": "r@12", "instance": "prb33117", "distance_to_goal": "1", "progress": "NA", "move_number": "17", "optimal_length": "14", "subject": "A15781PHGW377Y:3YW4XOSQKRTI0K0Z2YPDTDJVFABU1I"}
{"meta_move": "drag_end", "rt": "103.0", "trial_number": "0", "pre_actions": "0", "move": "r@16", "instance": "prb33117", "distance_to_goal": "NA", "progress": "NA", "move_number": "17", "optimal_length": "14", "subject": "A15781PHGW377Y:3YW4XOSQKRTI0K0Z2YPDTDJVFABU1I"}
{"meta_move": "drag_end", "rt": "3003.0", "trial_number": "1", "pre_actions": "1", "move": "1@26", "instance": "prb33117", "distance_to_goal": "NA", "progress": "NA", "move_number": "0", "optimal_length": "14", "subject": "A15FXHC1CVNW31:3TS1AR6UQRM7SOIBWPBN8N9589Y7FV"}
{"meta_move": "drag_end", "rt": "790.0", "trial_number": "1", "pre_actions": "1", "move": "4@28", "instance": "prb33117", "distance_to_goal": "NA", "progress": "NA", "move_number": "1", "optimal_length": "14", "subject": "A15FXHC1CVNW31:3TS1AR6UQRM7SOIBWPBN8N9589Y7FV"}
{"meta_move": "drag_end", "rt": "828.0", "trial_number": "1", "pre_actions": "1", "move": "3@21", "instance": "prb33117", "distance_to_goal": "NA", "progress": "NA", "move_number": "2", "optimal_length": "14", "subject": "A15FXHC1CVNW31:3TS1AR6UQRM7SOIBWPBN8N9589Y7FV"}
{"meta_move": "drag_end", "rt": "686.0", "trial_number": "1", "pre_actions": "1", "move": "5@4", "instance": "prb33117", "distance_to_goal": "NA", "progress": "NA", "move_number": "3", "optimal_length": "14", "subject": "A15FXHC1CVNW31:3TS1AR6UQRM7SOIBWPBN8N9589Y7FV"}
{"meta_move": "drag_end", "rt": "1363.0", "trial_number": "1", "pre_actions": "1", "move": "3@9", "instance": "prb33117", "distance_to_goal": "NA", "progress": "NA", "move_number": "4", "optimal_length": "14", "subject": "A15FXHC1CVNW31:3TS1AR6UQRM7SOIBWPBN8N9589Y7FV"}
{"meta_move": "drag_end", "rt": "599.0", "trial_number": "1", "pre_actions": "1", "move": "4@27", "instance": "prb33117", "distance_to_goal": "NA", "progress": "NA", "move_number": "5", "optimal_length": "14", "subject": "A15FXHC1CVNW31:3TS1AR6UQRM7SOIBWPBN8N9589Y7FV"}
{"meta_move": "drag_end", "rt": "957.0", "trial_number": "1", "pre_actions": "1", "move": "7@29", "instance": "prb33117", "distance_to_goal": "NA", "progress": "NA", "move_number": "6", "optimal_length": "14", "subject": "A15FXHC1CVNW31:3TS1AR6UQRM7SOIBWPBN8N9589Y7FV"}
{"meta_move": "drag_end", "rt": "2741.0", "trial_number": "1", "pre_actions": "1", "move": "1@14", "instance": "prb33117", "distance_to_goal": "NA", "progress": "NA", "move_number": "7", "optimal_length": "14", "subject": "A15FXHC1CVNW31:3TS1AR6UQRM7SOIBWPBN8N9589Y7FV"}
{"meta_move": "drag_end", "rt": "660.0", "trial_number": "1", "pre_actions": "1", "move": "4@26", "instance": "prb33117", "distance_to_goal": "NA", "progress": "NA", "move_number": "8", "optimal_length": "14", "subject": "A15FXHC1CVNW31:3TS1AR6UQRM7SOIBWPBN8N9589Y7FV"}
{"meta_move": "drag_end", "rt": "682.0", "trial_number": "1", "pre_actions": "1", "move": "5@22", "instance": "prb33117", "distance_to_goal": "NA", "progress": "NA", "move_number": "9", "optimal_length": "14", "subject": "A15FXHC1CVNW31:3TS1AR6UQRM7SOIBWPBN8N9589Y7FV"}
{"meta_move": "drag_end", "rt": "1322.0", "trial_number": "1", "pre_actions": "1", "move": "2@3", "instance": "prb33117", "distance_to_goal": "NA", "progress": "NA", "move_number": "10", "optimal_length": "14", "subject": "A15FXHC1CVNW31:3TS1AR6UQRM7SOIBWPBN8N9589Y7FV"}
{"meta_move": "drag_end", "rt": "890.0", "trial_number": "1", "pre_actions": "1", "move": "1@2", "instance": "prb33117", "distance_to_goal": "NA", "progress": "NA", "move_number": "11", "optimal_length": "14", "subject": "A15FXHC1CVNW31:3TS1AR6UQRM7SOIBWPBN8N9589Y7FV"}
{"meta_move": "drag_end", "rt": "3071.0", "trial_number": "1", "pre_actions": "1", "move": "r@13", "instance": "prb33117", "distance_to_goal": "NA", "progress": "NA", "move_number": "12", "optimal_length": "14", "subject": "A15FXHC1CVNW31:3TS1AR6UQRM7SOIBWPBN8N9589Y7FV"}
{"meta_move": "drag_end", "rt": "2239.0", "trial_number": "1", "pre_actions": "1", "move": "5@10", "instance": "prb33117", "distance_to_goal": "NA", "progress": "NA", "move_number": "13", "optimal_length": "14", "subject": "A15FXHC1CVNW31:3TS1AR6UQRM7SOIBWPBN8N9589Y7FV"}
{"meta_move": "drag_end", "rt": "867.0", "trial_number": "1", "pre_actions": "1", "move": "7@11", "instance": "prb33117", "distance_to_goal": "NA", "progress": "NA", "move_number": "14", "optimal_length": "14", "subject": "A15FXHC1CVNW31:3TS1AR6UQRM7SOIBWPBN8N9589Y7FV"}
{"meta_move": "drag_end", "rt": "1241.0", "trial_number": "1", "pre_actions": "1", "move": "4@28", "instance": "prb33117", "distance_to_goal": "NA", "progress": "NA", "move_number": "15", "optimal_length": "14", "subject": "A15FXHC1CVNW31:3TS1AR6UQRM7SOIBWPBN8N9589Y7FV"}
{"meta_move": "drag_end", "rt": "720.0", "trial_number": "1", "pre_actions": "1", "move": "3@21", "instance": "prb33117", "distance_to_goal": "NA", "progress": "NA", "move_number": "16", "optimal_length": "14", "subject": "A15FXHC1CVNW31:3TS1AR6UQRM7SOIBWPBN8N9589Y7FV"}
{"meta_move": "drag_end", "rt": "1510.0", "trial_number": "1", "pre_actions": "1", "move": "3@9", "instance": "prb33117", "distance_to_goal": "NA", "progress": "NA", "move_number": "17", "optimal_length": "14", "subject": "A15FXHC1CVNW31:3TS1AR6UQRM7SOIBWPBN8N9589Y7FV"}
{"meta_move": "drag_end", "rt": "1110.0", "trial_number": "1", "pre_actions": "1", "move": "r@12", "instance": "prb33117", "distance_to_goal": "NA", "progress": "NA", "move_number": "18", "optimal_length": "14", "subject": "A15FXHC1CVNW31:3TS1AR6UQRM7SOIBWPBN8N9589Y7FV"}
{"meta_move": "drag_end", "rt": "2729.0", "trial_number": "1", "pre_actions": "1", "move": "1@26", "instance": "prb33117", "distance_to_goal": "NA", "progress": "NA", "move_number": "19", "optimal_length": "14", "subject": "A15FXHC1CVNW31:3TS1AR6UQRM7SOIBWPBN8N9589Y7FV"}
{"meta_move": "drag_end", "rt": "3286.0", "trial_number": "1", "pre_actions": "1", "move": "1@26", "instance": "prb33117", "distance_to_goal": "NA", "progress": "NA", "move_number": "20", "optimal_length": "14", "subject": "A15FXHC1CVNW31:3TS1AR6UQRM7SOIBWPBN8N9589Y7FV"}
{"meta_move": "drag_end", "rt": "1467.0", "trial_number": "1", "pre_actions": "1", "move": "r@13", "instance": "prb33117", "distance_to_goal": "NA", "progress": "NA", "move_number": "20", "optimal_length": "14", "subject": "A15FXHC1CVNW31:3TS1AR6UQRM7SOIBWPBN8N9589Y7FV"}
{"meta_move": "drag_end", "rt": "474.0", "trial_number": "1", "pre_actions": "1", "move": "3@21", "instance": "prb33117", "distance_to_goal": "NA", "progress": "NA", "move_number": "21", "optimal_length": "14", "subject": "A15FXHC1CVNW31:3TS1AR6UQRM7SOIBWPBN8N9589Y7FV"}
{"meta_move": "drag_end", "rt": "512.0", "trial_number": "1", "pre_actions": "1", "move": "r@14", "instance": "prb33117", "distance_to_goal": "NA", "progress": "NA", "move_number": "22", "optimal_length": "14", "subject": "A15FXHC1CVNW31:3TS1AR6UQRM7SOIBWPBN8N9589Y7FV"}
{"meta_move": "drag_end", "rt": "869.0", "trial_number": "1", "pre_actions": "1", "move": "0@1", "instance": "prb33117", "distance_to_goal": "NA", "progress": "NA", "move_number": "23", "optimal_length": "14", "subject": "A15FXHC1CVNW31:3TS1AR6UQRM7SOIBWPBN8N9589Y7FV"}
{"meta_move": "drag_end", "rt": "652.0", "trial_number": "1", "pre_actions": "1", "move": "r@12", "instance": "prb33117", "distance_to_goal": "NA", "progress": "NA", "move_number": "24", "optimal_length": "14", "subject": "A15FXHC1CVNW31:3TS1AR6UQRM7SOIBWPBN8N9589Y7FV"}
{"meta_move": "drag_end", "rt": "1662.0", "trial_number": "1", "pre_actions": "1", "move": "1@2", "instance": "prb33117", "distance_to_goal": "NA", "progress": "NA", "move_number": "25", "optimal_length": "14", "subject": "A15FXHC1CVNW31:3TS1AR6UQRM7SOIBWPBN8N9589Y7FV"}
{"meta_move": "drag_end", "rt": "829.0", "trial_number": "1", "pre_actions": "1", "move": "3@21", "instance": "prb33117", "distance_to_goal": "NA", "progress": "NA", "move_number": "26", "optimal_length": "14", "subject": "A15FXHC1CVNW31:3TS1AR6UQRM7SOIBWPBN8N9589Y7FV"}
{"meta_move": "drag_end", "rt": "1739.0", "trial_number": "1", "pre_actions": "1", "move": "6@31", "instance": "prb33117", "distance_to_goal": "NA", "progress": "NA", "move_number": "26", "optimal_length": "14", "subject": "A15FXHC1CVNW31:3TS1AR6UQRM7SOIBWPBN8N9589Y7FV"}
{"meta_move": "drag_end", "rt": "671.0", "trial_number": "1", "pre_actions": "1", "move": "3@9", "instance": "prb33117", "distance_to_goal": "NA", "progress": "NA", "move_number": "27", "optimal_length": "14", "subject": "A15FXHC1CVNW31:3TS1AR6UQRM7SOIBWPBN8N9589Y7FV"}
{"meta_move": "drag_end", "rt": "1090.0", "trial_number": "1", "pre_actions": "1", "move": "4@24", "instance": "prb33117", "distance_to_goal": "NA", "progress": "NA", "move_number": "28", "optimal_length": "14", "subject": "A15FXHC1CVNW31:3TS1AR6UQRM7SOIBWPBN8N9589Y7FV"}
{"meta_move": "drag_end", "rt": "558.0", "trial_number": "1", "pre_actions": "1", "move": "3@21", "instance": "prb33117", "distance_to_goal": "NA", "progress": "NA", "move_number": "29", "optimal_length": "14", "subject": "A15FXHC1CVNW31:3TS1AR6UQRM7SOIBWPBN8N9589Y7FV"}
{"meta_move": "drag_end", "rt": "442.0", "trial_number": "1", "pre_actions": "1", "move": "5@22", "instance": "prb33117", "distance_to_goal": "NA", "progress": "NA", "move_number": "30", "optimal_length": "14", "subject": "A15FXHC1CVNW31:3TS1AR6UQRM7SOIBWPBN8N9589Y7FV"}
{"meta_move": "drag_end", "rt": "496.0", "trial_number": "1", "pre_actions": "1", "move": "7@29", "instance": "prb33117", "distance_to_goal": "NA", "progress": "NA", "move_number": "31", "optimal_length": "14", "subject": "A15FXHC1CVNW31:3TS1AR6UQRM7SOIBWPBN8N9589Y7FV"}
{"meta_move": "win", "rt": "570.0", "trial_number": "1", "pre_actions": "1", "move": "r@12", "instance": "prb33117", "distance_to_goal": "1", "progress": "NA", "move_number": "32", "optimal_length": "14", "subject": "A15FXHC1CVNW31:3TS1AR6UQRM7SOIBWPBN8N9589Y7FV"}
{"meta_move": "drag_end", "rt": "296.0", "trial_number": "0", "pre_actions": "0", "move": "r@16", "instance": "prb33117", "distance_to_goal": "NA", "progress": "NA", "move_number": "32", "optimal_length": "14", "subject": "A15FXHC1CVNW31:3TS1AR6UQRM7SOIBWPBN8N9589Y7FV"}
{"meta_move": "drag_end", "rt": "7287.0", "trial_number": "4", "pre_actions": "1", "move": "2@3", "instance": "prb33117", "distance_to_goal": "NA", "progress": "NA", "move_number": "0", "optimal_length": "14", "subject": "A18QU0YQB6Q8DF:3VE8AYVF8N5BS2NU6U3TMN50JMNF8V"}
{"meta_move": "drag_end", "rt": "1306.0", "trial_number": "4", "pre_actions": "1", "move": "1@2", "instance": "prb33117", "distance_to_goal": "NA", "progress": "NA", "move_number": "1", "optimal_length": "14", "subject": "A18QU0YQB6Q8DF:3VE8AYVF8N5BS2NU6U3TMN50JMNF8V"}
{"meta_move": "drag_end", "rt": "2692.0", "trial_number": "4", "pre_actions": "1", "move": "4@28", "instance": "prb33117", "distance_to_goal": "NA", "progress": "NA", "move_number": "2", "optimal_length": "14", "subject": "A18QU0YQB6Q8DF:3VE8AYVF8N5BS2NU6U3TMN50JMNF8V"}
{"meta_move": "drag_end", "rt": "1556.0", "trial_number": "4", "pre_actions": "1", "move": "3@21", "instance": "prb33117", "distance_to_goal": "NA", "progress": "NA", "move_number": "3", "optimal_length": "14", "subject": "A18QU0YQB6Q8DF:3VE8AYVF8N5BS2NU6U3TMN50JMNF8V"}
{"meta_move": "drag_end", "rt": "1913.0", "trial_number": "4", "pre_actions": "1", "move": "3@9", "instance": "prb33117", "distance_to_goal": "NA", "progress": "NA", "move_number": "4", "optimal_length": "14", "subject": "A18QU0YQB6Q8DF:3VE8AYVF8N5BS2NU6U3TMN50JMNF8V"}
{"meta_move": "drag_end", "rt": "2088.0", "trial_number": "4", "pre_actions": "1", "move": "0@19", "instance": "prb33117", "distance_to_goal": "NA", "progress": "NA", "move_number": "5", "optimal_length": "14", "subject": "A18QU0YQB6Q8DF:3VE8AYVF8N5BS2NU6U3TMN50JMNF8V"}
{"meta_move": "drag_end", "rt": "566.0", "trial_number": "4", "pre_actions": "1", "move": "0@19", "instance": "prb33117", "distance_to_goal": "NA", "progress": "NA", "move_number": "5", "optimal_length": "14", "subject": "A18QU0YQB6Q8DF:3VE8AYVF8N5BS2NU6U3TMN50JMNF8V"}
{"meta_move": "drag_end", "rt": "708.0", "trial_number": "4", "pre_actions": "1", "move": "0@19", "instance": "prb33117", "distance_to_goal": "NA", "progress": "NA", "move_number": "5", "optimal_length": "14", "subject": "A18QU0YQB6Q8DF:3VE8AYVF8N5BS2NU6U3TMN50JMNF8V"}
{"meta_move": "drag_end", "rt": "2062.0", "trial_number": "4", "pre_actions": "1", "move": "r@12", "instance": "prb33117", "distance_to_goal": "NA", "progress": "NA", "move_number": "5", "optimal_length": "14", "subject": "A18QU0YQB6Q8DF:3VE8AYVF8N5BS2NU6U3TMN50JMNF8V"}
{"meta_move": "drag_end", "rt": "1828.0", "trial_number": "4", "pre_actions": "1", "move": "4@26", "instance": "prb33117", "distance_to_goal": "NA", "progress": "NA", "move_number": "5", "optimal_length": "14", "subject": "A18QU0YQB6Q8DF:3VE8AYVF8N5BS2NU6U3TMN50JMNF8V"}
{"meta_move": "drag_end", "rt": "1773.0", "trial_number": "4", "pre_actions": "1", "move": "7@29", "instance": "prb33117", "distance_to_goal": "NA", "progress": "NA", "move_number": "6", "optimal_length": "14", "subject": "A18QU0YQB6Q8DF:3VE8AYVF8N5BS2NU6U3TMN50JMNF8V"}
{"meta_move": "drag_end", "rt": "1223.0", "trial_number": "4", "pre_actions": "1", "move": "5@10", "instance": "prb33117", "distance_to_goal": "NA", "progress": "NA", "move_number": "7", "optimal_length": "14", "subject": "A18QU0YQB6Q8DF:3VE8AYVF8N5BS2NU6U3TMN50JMNF8V"}
{"meta_move": "drag_end", "rt": "737.0", "trial_number": "4", "pre_actions": "1", "move": "5@22", "instance": "prb33117", "distance_to_goal": "NA", "progress": "NA", "move_number": "7", "optimal_length": "14", "subject": "A18QU0YQB6Q8DF:3VE8AYVF8N5BS2NU6U3TMN50JMNF8V"}
{"meta_move": "drag_end", "rt": "4418.0", "trial_number": "4", "pre_actions": "1", "move": "1@14", "instance": "prb33117", "distance_to_goal": "NA", "progress": "NA", "move_number": "8", "optimal_length": "14", "subject": "A18QU0YQB6Q8DF:3VE8AYVF8N5BS2NU6U3TMN50JMNF8V"}
{"meta_move": "drag_end", "rt": "2046.0", "trial_number": "4", "pre_actions": "1", "move": "1@2", "instance": "prb33117", "distance_to_goal": "NA", "progress": "NA", "move_number": "9", "optimal_length": "14", "subject": "A18QU0YQB6Q8DF:3VE8AYVF8N5BS2NU6U3TMN50JMNF8V"}
{"meta_move": "drag_end", "rt": "1004.0", "trial_number": "4", "pre_actions": "1", "move": "r@13", "instance": "prb33117", "distance_to_goal": "NA", "progress": "NA", "move_number": "10", "optimal_length": "14", "subject": "A18QU0YQB6Q8DF:3VE8AYVF8N5BS2NU6U3TMN50JMNF8V"}
{"meta_move": "drag_end", "rt": "2037.0", "trial_number": "4", "pre_actions": "1", "move": "5@10", "instance": "prb33117", "distance_to_goal": "NA", "progress": "NA", "move_number": "11", "optimal_length": "14", "subject": "A18QU0YQB6Q8DF:3VE8AYVF8N5BS2NU6U3TMN50JMNF8V"}
{"meta_move": "drag_end", "rt": "989.0", "trial_number": "4", "pre_actions": "1", "move": "4@27", "instance": "prb33117", "distance_to_goal": "NA", "progress": "NA", "move_number": "12", "optimal_length": "14", "subject": "A18QU0YQB6Q8DF:3VE8AYVF8N5BS2NU6U3TMN50JMNF8V"}
{"meta_move": "drag_end", "rt": "2403.0", "trial_number": "4", "pre_actions": "1", "move": "r@12", "instance": "prb33117", "distance_to_goal": "NA", "progress": "NA", "move_number": "13", "optimal_length": "14", "subject": "A18QU0YQB6Q8DF:3VE8AYVF8N5BS2NU6U3TMN50JMNF8V"}
{"meta_move": "drag_end", "rt": "1300.0", "trial_number": "4", "pre_actions": "1", "move": "1@26", "instance": "prb33117", "distance_to_goal": "NA", "progress": "NA", "move_number": "14", "optimal_length": "14", "subject": "A18QU0YQB6Q8DF:3VE8AYVF8N5BS2NU6U3TMN50JMNF8V"}
{"meta_move": "drag_end", "rt": "2108.0", "trial_number": "4", "pre_actions": "1", "move": "4@27", "instance": "prb33117", "distance_to_goal": "NA", "progress": "NA", "move_number": "15", "optimal_length": "14", "subject": "A18QU0YQB6Q8DF:3VE8AYVF8N5BS2NU6U3TMN50JMNF8V"}
{"meta_move": "drag_end", "rt": "1478.0", "trial_number": "4", "pre_actions": "1", "move": "7@11", "instance": "prb33117", "distance_to_goal": "NA", "progress": "NA", "move_number": "15", "optimal_length": "14", "subject": "A18QU0YQB6Q8DF:3VE8AYVF8N5BS2NU6U3TMN50JMNF8V"}
{"meta_move": "drag_end", "rt": "2209.0", "trial_number": "4", "pre_actions": "1", "move": "4@28", "instance": "prb33117", "distance_to_goal": "NA", "progress": "NA", "move_number": "16", "optimal_length": "14", "subject": "A18QU0YQB6Q8DF:3VE8AYVF8N5BS2NU6U3TMN50JMNF8V"}
{"meta_move": "drag_end", "rt": "1021.0", "trial_number": "4", "pre_actions": "1", "move": "3@21", "instance": "prb33117", "distance_to_goal": "NA", "progress": "NA", "move_number": "17", "optimal_length": "14", "subject": "A18QU0YQB6Q8DF:3VE8AYVF8N5BS2NU6U3TMN50JMNF8V"}
{"meta_move": "drag_end", "rt": "3412.0", "trial_number": "4", "pre_actions": "1", "move": "2@0", "instance": "prb33117", "distance_to_goal": "NA", "progress": "NA", "move_number": "18", "optimal_length": "14", "subject": "A18QU0YQB6Q8DF:3VE8AYVF8N5BS2NU6U3TMN50JMNF8V"}
{"meta_move": "drag_end", "rt": "2227.0", "trial_number": "4", "pre_actions": "1", "move": "7@5", "instance": "prb33117", "distance_to_goal": "NA", "progress": "NA", "move_number": "19", "optimal_length": "14", "subject": "A18QU0YQB6Q8DF:3VE8AYVF8N5BS2NU6U3TMN50JMNF8V"}
{"meta_move": "drag_end", "rt": "1655.0", "trial_number": "4", "pre_actions": "1", "move": "3@3", "instance": "prb33117", "distance_to_goal": "NA", "progress": "NA", "move_number": "20", "optimal_length": "14", "subject": "A18QU0YQB6Q8DF:3VE8AYVF8N5BS2NU6U3TMN50JMNF8V"}
{"meta_move": "drag_end", "rt": "1184.0", "trial_number": "4", "pre_actions": "1", "move": "4@27", "instance": "prb33117", "distance_to_goal": "NA", "progress": "NA", "move_number": "21", "optimal_length": "14", "subject": "A18QU0YQB6Q8DF:3VE8AYVF8N5BS2NU6U3TMN50JMNF8V"}
{"meta_move": "drag_end", "rt": "792.0", "trial_number": "4", "pre_actions": "1", "move": "5@4", "instance": "prb33117", "distance_to_goal": "NA", "progress": "NA", "move_number": "22", "optimal_length": "14", "subject": "A18QU0YQB6Q8DF:3VE8AYVF8N5BS2NU6U3TMN50JMNF8V"}
{"meta_move": "drag_end", "rt": "4272.0", "trial_number": "4", "pre_actions": "1", "move": "4@28", "instance": "prb33117", "distance_to_goal": "NA", "progress": "NA", "move_number": "23", "optimal_length": "14", "subject": "A18QU0YQB6Q8DF:3VE8AYVF8N5BS2NU6U3TMN50JMNF8V"}
{"meta_move": "drag_end", "rt": "3709.0", "trial_number": "4", "pre_actions": "1", "move": "1@8", "instance": "prb33117", "distance_to_goal": "NA", "progress": "NA", "move_number": "24", "optimal_length": "14", "subject": "A18QU0YQB6Q8DF:3VE8AYVF8N5BS2NU6U3TMN50JMNF8V"}
{"meta_move": "drag_end", "rt": "1136.0", "trial_number": "4", "pre_actions": "1", "move": "0@19", "instance": "prb33117", "distance_to_goal": "NA", "progress": "NA", "move_number": "25", "optimal_length": "14", "subject": "A18QU0YQB6Q8DF:3VE8AYVF8N5BS2NU6U3TMN50JMNF8V"}
{"meta_move": "drag_end", "rt": "910.0", "trial_number": "4", "pre_actions": "1", "move": "6@34", "instance": "prb33117", "distance_to_goal": "NA", "progress": "NA", "move_number": "25", "optimal_length": "14", "subject": "A18QU0YQB6Q8DF:3VE8AYVF8N5BS2NU6U3TMN50JMNF8V"}
{"meta_move": "drag_end", "rt": "958.0", "trial_number": "4", "pre_actions": "1", "move": "0@25", "instance": "prb33117", "distance_to_goal": "NA", "progress": "NA", "move_number": "26", "optimal_length": "14", "subject": "A18QU0YQB6Q8DF:3VE8AYVF8N5BS2NU6U3TMN50JMNF8V"}
{"meta_move": "drag_end", "rt": "2309.0", "trial_number": "4", "pre_actions": "1", "move": "1@26", "instance": "prb33117", "distance_to_goal": "NA", "progress": "NA", "move_number": "27", "optimal_length": "14", "subject": "A18QU0YQB6Q8DF:3VE8AYVF8N5BS2NU6U3TMN50JMNF8V"}
{"meta_move": "drag_end", "rt": "2302.0", "trial_number": "4", "pre_actions": "1", "move": "3@21", "instance": "prb33117", "distance_to_goal": "NA", "progress": "NA", "move_number": "28", "optimal_length": "14", "subject": "A18QU0YQB6Q8DF:3VE8AYVF8N5BS2NU6U3TMN50JMNF8V"}
{"meta_move": "drag_end", "rt": "8581.0", "trial_number": "4", "pre_actions": "1", "move": "r@14", "instance": "prb33117", "distance_to_goal": "NA", "progress": "NA", "move_number": "29", "optimal_length": "14", "subject": "A18QU0YQB6Q8DF:3VE8AYVF8N5BS2NU6U3TMN50JMNF8V"}
{"meta_move": "drag_end", "rt": "6400.0", "trial_number": "4", "pre_actions": "1", "move": "r@12", "instance": "prb33117", "distance_to_goal": "NA", "progress": "NA", "move_number": "30", "optimal_length": "14", "subject": "A18QU0YQB6Q8DF:3VE8AYVF8N5BS2NU6U3TMN50JMNF8V"}
{"meta_move": "drag_end", "rt": "860.0", "trial_number": "4", "pre_actions": "1", "move": "3@3", "instance": "prb33117", "distance_to_goal": "NA", "progress": "NA", "move_number": "31", "optimal_length": "14", "subject": "A18QU0YQB6Q8DF:3VE8AYVF8N5BS2NU6U3TMN50JMNF8V"}
{"meta_move": "drag_end", "rt": "843.0", "trial_number": "4", "pre_actions": "1", "move": "1@8", "instance": "prb33117", "distance_to_goal": "NA", "progress": "NA", "move_number": "32", "optimal_length": "14", "subject": "A18QU0YQB6Q8DF:3VE8AYVF8N5BS2NU6U3TMN50JMNF8V"}
{"meta_move": "drag_end", "rt": "853.0", "trial_number": "4", "pre_actions": "1", "move": "0@19", "instance": "prb33117", "distance_to_goal": "NA", "progress": "NA", "move_number": "33", "optimal_length": "14", "subject": "A18QU0YQB6Q8DF:3VE8AYVF8N5BS2NU6U3TMN50JMNF8V"}
{"meta_move": "drag_end", "rt": "1324.0", "trial_number": "4", "pre_actions": "1", "move": "6@30", "instance": "prb33117", "distance_to_goal": "NA", "progress": "NA", "move_number": "34", "optimal_length": "14", "subject": "A18QU0YQB6Q8DF:3VE8AYVF8N5BS2NU6U3TMN50JMNF8V"}
{"meta_move": "drag_end", "rt": "1516.0", "trial_number": "4", "pre_actions": "1", "move": "1@26", "instance": "prb33117", "distance_to_goal": "NA", "progress": "NA", "move_number": "35", "optimal_length": "14", "subject": "A18QU0YQB6Q8DF:3VE8AYVF8N5BS2NU6U3TMN50JMNF8V"}
{"meta_move": "drag_end", "rt": "3718.0", "trial_number": "4", "pre_actions": "1", "move": "1@14", "instance": "prb33117", "distance_to_goal": "NA", "progress": "NA", "move_number": "36", "optimal_length": "14", "subject": "A18QU0YQB6Q8DF:3VE8AYVF8N5BS2NU6U3TMN50JMNF8V"}
{"meta_move": "drag_end", "rt": "1984.0", "trial_number": "4", "pre_actions": "1", "move": "4@26", "instance": "prb33117", "distance_to_goal": "NA", "progress": "NA", "move_number": "37", "optimal_length": "14", "subject": "A18QU0YQB6Q8DF:3VE8AYVF8N5BS2NU6U3TMN50JMNF8V"}
{"meta_move": "drag_end", "rt": "1127.0", "trial_number": "4", "pre_actions": "1", "move": "5@22", "instance": "prb33117", "distance_to_goal": "NA", "progress": "NA", "move_number": "38", "optimal_length": "14", "subject": "A18QU0YQB6Q8DF:3VE8AYVF8N5BS2NU6U3TMN50JMNF8V"}
{"meta_move": "drag_end", "rt": "4170.0", "trial_number": "4", "pre_actions": "1", "move": "1@8", "instance": "prb33117", "distance_to_goal": "NA", "progress": "NA", "move_number": "39", "optimal_length": "14", "subject": "A18QU0YQB6Q8DF:3VE8AYVF8N5BS2NU6U3TMN50JMNF8V"}
{"meta_move": "drag_end", "rt": "1275.0", "trial_number": "4", "pre_actions": "1", "move": "0@19", "instance": "prb33117", "distance_to_goal": "NA", "progress": "NA", "move_number": "40", "optimal_length": "14", "subject": "A18QU0YQB6Q8DF:3VE8AYVF8N5BS2NU6U3TMN50JMNF8V"}
{"meta_move": "drag_end", "rt": "708.0", "trial_number": "4", "pre_actions": "1", "move": "4@26", "instance": "prb33117", "distance_to_goal": "NA", "progress": "NA", "move_number": "40", "optimal_length": "14", "subject": "A18QU0YQB6Q8DF:3VE8AYVF8N5BS2NU6U3TMN50JMNF8V"}
{"meta_move": "drag_end", "rt": "988.0", "trial_number": "4", "pre_actions": "1", "move": "5@4", "instance": "prb33117", "distance_to_goal": "NA", "progress": "NA", "move_number": "40", "optimal_length": "14", "subject": "A18QU0YQB6Q8DF:3VE8AYVF8N5BS2NU6U3TMN50JMNF8V"}
{"meta_move": "drag_end", "rt": "1928.0", "trial_number": "4", "pre_actions": "1", "move": "4@28", "instance": "prb33117", "distance_to_goal": "NA", "progress": "NA", "move_number": "41", "optimal_length": "14", "subject": "A18QU0YQB6Q8DF:3VE8AYVF8N5BS2NU6U3TMN50JMNF8V"}
{"meta_move": "drag_end", "rt": "1316.0", "trial_number": "4", "pre_actions": "1", "move": "3@21", "instance": "prb33117", "distance_to_goal": "NA", "progress": "NA", "move_number": "42", "optimal_length": "14", "subject": "A18QU0YQB6Q8DF:3VE8AYVF8N5BS2NU6U3TMN50JMNF8V"}
{"meta_move": "drag_end", "rt": "2043.0", "trial_number": "4", "pre_actions": "1", "move": "7@17", "instance": "prb33117", "distance_to_goal": "NA", "progress": "NA", "move_number": "43", "optimal_length": "14", "subject": "A18QU0YQB6Q8DF:3VE8AYVF8N5BS2NU6U3TMN50JMNF8V"}
{"meta_move": "drag_end", "rt": "740.0", "trial_number": "4", "pre_actions": "1", "move": "7@5", "instance": "prb33117", "distance_to_goal": "NA", "progress": "NA", "move_number": "44", "optimal_length": "14", "subject": "A18QU0YQB6Q8DF:3VE8AYVF8N5BS2NU6U3TMN50JMNF8V"}
{"meta_move": "drag_end", "rt": "1244.0", "trial_number": "4", "pre_actions": "1", "move": "1@26", "instance": "prb33117", "distance_to_goal": "NA", "progress": "NA", "move_number": "45", "optimal_length": "14", "subject": "A18QU0YQB6Q8DF:3VE8AYVF8N5BS2NU6U3TMN50JMNF8V"}
{"meta_move": "drag_end", "rt": "1540.0", "trial_number": "4", "pre_actions": "1", "move": "r@14", "instance": "prb33117", "distance_to_goal": "NA", "progress": "NA", "move_number": "46", "optimal_length": "14", "subject": "A18QU0YQB6Q8DF:3VE8AYVF8N5BS2NU6U3TMN50JMNF8V"}
{"meta_move": "drag_end", "rt": "3260.0", "trial_number": "4", "pre_actions": "1", "move": "0@7", "instance": "prb33117", "distance_to_goal": "NA", "progress": "NA", "move_number": "47", "optimal_length": "14", "subject": "A18QU0YQB6Q8DF:3VE8AYVF8N5BS2NU6U3TMN50JMNF8V"}
{"meta_move": "drag_end", "rt": "1386.0", "trial_number": "4", "pre_actions": "1", "move": "6@30", "instance": "prb33117", "distance_to_goal": "NA", "progress": "NA", "move_number": "48", "optimal_length": "14", "subject": "A18QU0YQB6Q8DF:3VE8AYVF8N5BS2NU6U3TMN50JMNF8V"}
{"meta_move": "drag_end", "rt": "1359.0", "trial_number": "4", "pre_actions": "1", "move": "4@28", "instance": "prb33117", "distance_to_goal": "NA", "progress": "NA", "move_number": "48", "optimal_length": "14", "subject": "A18QU0YQB6Q8DF:3VE8AYVF8N5BS2NU6U3TMN50JMNF8V"}
{"meta_move": "drag_end", "rt": "996.0", "trial_number": "4", "pre_actions": "1", "move": "5@10", "instance": "prb33117", "distance_to_goal": "NA", "progress": "NA", "move_number": "48", "optimal_length": "14", "subject": "A18QU0YQB6Q8DF:3VE8AYVF8N5BS2NU6U3TMN50JMNF8V"}
{"meta_move": "drag_end", "rt": "3509.0", "trial_number": "1", "pre_actions": "1", "move": "1@8", "instance": "prb33117", "distance_to_goal": "NA", "progress": "NA", "move_number": "0", "optimal_length": "14", "subject": "A191V7PT3DQKDP:3PMBY0YE28B43VMUKKJ6EDF85RV9C8"}
{"meta_move": "drag_end", "rt": "776.0", "trial_number": "1", "pre_actions": "1", "move": "4@28", "instance": "prb33117", "distance_to_goal": "NA", "progress": "NA", "move_number": "1", "optimal_length": "14", "subject": "A191V7PT3DQKDP:3PMBY0YE28B43VMUKKJ6EDF85RV9C8"}
{"meta_move": "drag_end", "rt": "1824.0", "trial_number": "1", "pre_actions": "1", "move": "6@34", "instance": "prb33117", "distance_to_goal": "NA", "progress": "NA", "move_number": "2", "optimal_length": "14", "subject": "A191V7PT3DQKDP:3PMBY0YE28B43VMUKKJ6EDF85RV9C8"}
{"meta_move": "drag_end", "rt": "784.0", "trial_number": "1", "pre_actions": "1", "move": "0@25", "instance": "prb33117", "distance_to_goal": "NA", "progress": "NA", "move_number": "3", "optimal_length": "14", "subject": "A191V7PT3DQKDP:3PMBY0YE28B43VMUKKJ6EDF85RV9C8"}
{"meta_move": "drag_end", "rt": "1216.0", "trial_number": "1", "pre_actions": "1", "move": "1@26", "instance": "prb33117", "distance_to_goal": "NA", "progress": "NA", "move_number": "4", "optimal_length": "14", "subject": "A191V7PT3DQKDP:3PMBY0YE28B43VMUKKJ6EDF85RV9C8"}
{"meta_move": "drag_end", "rt": "2175.0", "trial_number": "1", "pre_actions": "1", "move": "3@21", "instance": "prb33117", "distance_to_goal": "NA", "progress": "NA", "move_number": "5", "optimal_length": "14", "subject": "A191V7PT3DQKDP:3PMBY0YE28B43VMUKKJ6EDF85RV9C8"}
{"meta_move": "drag_end", "rt": "2208.0", "trial_number": "1", "pre_actions": "1", "move": "5@4", "instance": "prb33117", "distance_to_goal": "NA", "progress": "NA", "move_number": "6", "optimal_length": "14", "subject": "A191V7PT3DQKDP:3PMBY0YE28B43VMUKKJ6EDF85RV9C8"}
{"meta_move": "drag_end", "rt": "673.0", "trial_number": "1", "pre_actions": "1", "move": "2@0", "instance": "prb33117", "distance_to_goal": "NA", "progress": "NA", "move_number": "7", "optimal_length": "14", "subject": "A191V7PT3DQKDP:3PMBY0YE28B43VMUKKJ6EDF85RV9C8"}
{"meta_move": "drag_end", "rt": "920.0", "trial_number": "1", "pre_actions": "1", "move": "3@3", "instance": "prb33117", "distance_to_goal": "NA", "progress": "NA", "move_number": "8", "optimal_length": "14", "subject": "A191V7PT3DQKDP:3PMBY0YE28B43VMUKKJ6EDF85RV9C8"}
{"meta_move": "drag_end", "rt": "1560.0", "trial_number": "1", "pre_actions": "1", "move": "1@8", "instance": "prb33117", "distance_to_goal": "NA", "progress": "NA", "move_number": "9", "optimal_length": "14", "subject": "A191V7PT3DQKDP:3PMBY0YE28B43VMUKKJ6EDF85RV9C8"}
{"meta_move": "drag_end", "rt": "4800.0", "trial_number": "1", "pre_actions": "1", "move": "1@26", "instance": "prb33117", "distance_to_goal": "NA", "progress": "NA", "move_number": "10", "optimal_length": "14", "subject": "A191V7PT3DQKDP:3PMBY0YE28B43VMUKKJ6EDF85RV9C8"}
{"meta_move": "drag_end", "rt": "1048.0", "trial_number": "1", "pre_actions": "1", "move": "3@21", "instance": "prb33117", "distance_to_goal": "NA", "progress": "NA", "move_number": "11", "optimal_length": "14", "subject": "A191V7PT3DQKDP:3PMBY0YE28B43VMUKKJ6EDF85RV9C8"}
{"meta_move": "drag_end", "rt": "775.0", "trial_number": "1", "pre_actions": "1", "move": "r@14", "instance": "prb33117", "distance_to_goal": "NA", "progress": "NA", "move_number": "12", "optimal_length": "14", "subject": "A191V7PT3DQKDP:3PMBY0YE28B43VMUKKJ6EDF85RV9C8"}
{"meta_move": "drag_end", "rt": "912.0", "trial_number": "1", "pre_actions": "1", "move": "0@7", "instance": "prb33117", "distance_to_goal": "NA", "progress": "NA", "move_number": "13", "optimal_length": "14", "subject": "A191V7PT3DQKDP:3PMBY0YE28B43VMUKKJ6EDF85RV9C8"}
{"meta_move": "drag_end", "rt": "2424.0", "trial_number": "1", "pre_actions": "1", "move": "1@26", "instance": "prb33117", "distance_to_goal": "NA", "progress": "NA", "move_number": "14", "optimal_length": "14", "subject": "A191V7PT3DQKDP:3PMBY0YE28B43VMUKKJ6EDF85RV9C8"}
{"meta_move": "drag_end", "rt": "960.0", "trial_number": "1", "pre_actions": "1", "move": "0@25", "instance": "prb33117", "distance_to_goal": "NA", "progress": "NA", "move_number": "14", "optimal_length": "14", "subject": "A191V7PT3DQKDP:3PMBY0YE28B43VMUKKJ6EDF85RV9C8"}
{"meta_move": "drag_end", "rt": "1992.0", "trial_number": "1", "pre_actions": "1", "move": "2@0", "instance": "prb33117", "distance_to_goal": "NA", "progress": "NA", "move_number": "15", "optimal_length": "14", "subject": "A191V7PT3DQKDP:3PMBY0YE28B43VMUKKJ6EDF85RV9C8"}
{"meta_move": "drag_end", "rt": "968.0", "trial_number": "1", "pre_actions": "1", "move": "5@10", "instance": "prb33117", "distance_to_goal": "NA", "progress": "NA", "move_number": "15", "optimal_length": "14", "subject": "A191V7PT3DQKDP:3PMBY0YE28B43VMUKKJ6EDF85RV9C8"}
{"meta_move": "drag_end", "rt": "752.0", "trial_number": "1", "pre_actions": "1", "move": "2@3", "instance": "prb33117", "distance_to_goal": "NA", "progress": "NA", "move_number": "16", "optimal_length": "14", "subject": "A191V7PT3DQKDP:3PMBY0YE28B43VMUKKJ6EDF85RV9C8"}
{"meta_move": "drag_end", "rt": "936.0", "trial_number": "1", "pre_actions": "1", "move": "0@1", "instance": "prb33117", "distance_to_goal": "NA", "progress": "NA", "move_number": "17", "optimal_length": "14", "subject": "A191V7PT3DQKDP:3PMBY0YE28B43VMUKKJ6EDF85RV9C8"}
{"meta_move": "drag_end", "rt": "984.0", "trial_number": "1", "pre_actions": "1", "move": "r@12", "instance": "prb33117", "distance_to_goal": "NA", "progress": "NA", "move_number": "18", "optimal_length": "14", "subject": "A191V7PT3DQKDP:3PMBY0YE28B43VMUKKJ6EDF85RV9C8"}
{"meta_move": "drag_end", "rt": "984.0", "trial_number": "1", "pre_actions": "1", "move": "1@2", "instance": "prb33117", "distance_to_goal": "NA", "progress": "NA", "move_number": "19", "optimal_length": "14", "subject": "A191V7PT3DQKDP:3PMBY0YE28B43VMUKKJ6EDF85RV9C8"}
{"meta_move": "drag_end", "rt": "1960.0", "trial_number": "1", "pre_actions": "1", "move": "3@9", "instance": "prb33117", "distance_to_goal": "NA", "progress": "NA", "move_number": "20", "optimal_length": "14", "subject": "A191V7PT3DQKDP:3PMBY0YE28B43VMUKKJ6EDF85RV9C8"}
{"meta_move": "drag_end", "rt": "608.0", "trial_number": "1", "pre_actions": "1", "move": "4@24", "instance": "prb33117", "distance_to_goal": "NA", "progress": "NA", "move_number": "21", "optimal_length": "14", "subject": "A191V7PT3DQKDP:3PMBY0YE28B43VMUKKJ6EDF85RV9C8"}
{"meta_move": "drag_end", "rt": "656.0", "trial_number": "1", "pre_actions": "1", "move": "6@30", "instance": "prb33117", "distance_to_goal": "NA", "progress": "NA", "move_number": "22", "optimal_length": "14", "subject": "A191V7PT3DQKDP:3PMBY0YE28B43VMUKKJ6EDF85RV9C8"}
{"meta_move": "drag_end", "rt": "648.0", "trial_number": "1", "pre_actions": "1", "move": "3@21", "instance": "prb33117", "distance_to_goal": "NA", "progress": "NA", "move_number": "23", "optimal_length": "14", "subject": "A191V7PT3DQKDP:3PMBY0YE28B43VMUKKJ6EDF85RV9C8"}
{"meta_move": "drag_end", "rt": "425.0", "trial_number": "1", "pre_actions": "1", "move": "5@22", "instance": "prb33117", "distance_to_goal": "NA", "progress": "NA", "move_number": "24", "optimal_length": "14", "subject": "A191V7PT3DQKDP:3PMBY0YE28B43VMUKKJ6EDF85RV9C8"}
{"meta_move": "drag_end", "rt": "471.0", "trial_number": "1", "pre_actions": "1", "move": "7@29", "instance": "prb33117", "distance_to_goal": "NA", "progress": "NA", "move_number": "25", "optimal_length": "14", "subject": "A191V7PT3DQKDP:3PMBY0YE28B43VMUKKJ6EDF85RV9C8"}
{"meta_move": "win", "rt": "560.0", "trial_number": "1", "pre_actions": "1", "move": "r@12", "instance": "prb33117", "distance_to_goal": "1", "progress": "NA", "move_number": "26", "optimal_length": "14", "subject": "A191V7PT3DQKDP:3PMBY0YE28B43VMUKKJ6EDF85RV9C8"}
{"meta_move": "drag_end", "rt": "152.0", "trial_number": "0", "pre_actions": "0", "move": "r@16", "instance": "prb33117", "distance_to_goal": "NA", "progress": "NA", "move_number": "26", "optimal_length": "14", "subject": "A191V7PT3DQKDP:3PMBY0YE28B43VMUKKJ6EDF85RV9C8"}
{"meta_move": "drag_end", "rt": "2382.0", "trial_number": "1", "pre_actions": "1", "move": "7@5", "instance": "prb33117", "distance_to_goal": "NA", "progress": "NA", "move_number": "0", "optimal_length": "14", "subject": "A1F4N58CAX8IMK:3TS1AR6UQRM7SOIBWPBN8N9589Y7FV"}
{"meta_move": "drag_end", "rt": "632.0", "trial_number": "1", "pre_actions": "1", "move": "4@28", "instance": "prb33117", "distance_to_goal": "NA", "progress": "NA", "move_number": "1", "optimal_length": "14", "subject": "A1F4N58CAX8IMK:3TS1AR6UQRM7SOIBWPBN8N9589Y7FV"}
{"meta_move": "drag_end", "rt": "575.0", "trial_number": "1", "pre_actions": "1", "move": "1@26", "instance": "prb33117", "distance_to_goal": "NA", "progress": "NA", "move_number": "2", "optimal_length": "14", "subject": "A1F4N58CAX8IMK:3TS1AR6UQRM7SOIBWPBN8N9589Y7FV"}
{"meta_move": "drag_end", "rt": "712.0", "trial_number": "1", "pre_actions": "1", "move": "3@21", "instance": "prb33117", "distance_to_goal": "NA", "progress": "NA", "move_number": "3", "optimal_length": "14", "subject": "A1F4N58CAX8IMK:3TS1AR6UQRM7SOIBWPBN8N9589Y7FV"}
{"meta_move": "drag_end", "rt": "921.0", "trial_number": "1", "pre_actions": "1", "move": "2@0", "instance": "prb33117", "distance_to_goal": "NA", "progress": "NA", "move_number": "4", "optimal_length": "14", "subject": "A1F4N58CAX8IMK:3TS1AR6UQRM7SOIBWPBN8N9589Y7FV"}
{"meta_move": "drag_end", "rt": "958.0", "trial_number": "1", "pre_actions": "1", "move": "5@4", "instance": "prb33117", "distance_to_goal": "NA", "progress": "NA", "move_number": "5", "optimal_length": "14", "subject": "A1F4N58CAX8IMK:3TS1AR6UQRM7SOIBWPBN8N9589Y7FV"}
{"meta_move": "drag_end", "rt": "841.0", "trial_number": "1", "pre_actions": "1", "move": "3@3", "instance": "prb33117", "distance_to_goal": "NA", "progress": "NA", "move_number": "6", "optimal_length": "14", "subject": "A1F4N58CAX8IMK:3TS1AR6UQRM7SOIBWPBN8N9589Y7FV"}
{"meta_move": "drag_end", "rt": "1463.0", "trial_number": "1", "pre_actions": "1", "move": "1@8", "instance": "prb33117", "distance_to_goal": "NA", "progress": "NA", "move_number": "7", "optimal_length": "14", "subject": "A1F4N58CAX8IMK:3TS1AR6UQRM7SOIBWPBN8N9589Y7FV"}
{"meta_move": "drag_end", "rt": "1536.0", "trial_number": "1", "pre_actions": "1", "move": "4@26", "instance": "prb33117", "distance_to_goal": "NA", "progress": "NA", "move_number": "8", "optimal_length": "14", "subject": "A1F4N58CAX8IMK:3TS1AR6UQRM7SOIBWPBN8N9589Y7FV"}
{"meta_move": "drag_end", "rt": "832.0", "trial_number": "1", "pre_actions": "1", "move": "7@29", "instance": "prb33117", "distance_to_goal": "NA", "progress": "NA", "move_number": "9", "optimal_length": "14", "subject": "A1F4N58CAX8IMK:3TS1AR6UQRM7SOIBWPBN8N9589Y7FV"}
{"meta_move": "drag_end", "rt": "744.0", "trial_number": "1", "pre_actions": "1", "move": "5@22", "instance": "prb33117", "distance_to_goal": "NA", "progress": "NA", "move_number": "10", "optimal_length": "14", "subject": "A1F4N58CAX8IMK:3TS1AR6UQRM7SOIBWPBN8N9589Y7FV"}
{"meta_move": "drag_end", "rt": "977.0", "trial_number": "1", "pre_actions": "1", "move": "0@19", "instance": "prb33117", "distance_to_goal": "NA", "progress": "NA", "move_number": "11", "optimal_length": "14", "subject": "A1F4N58CAX8IMK:3TS1AR6UQRM7SOIBWPBN8N9589Y7FV"}
{"meta_move": "drag_end", "rt": "656.0", "trial_number": "1", "pre_actions": "1", "move": "6@32", "instance": "prb33117", "distance_to_goal": "NA", "progress": "NA", "move_number": "11", "optimal_length": "14", "subject": "A1F4N58CAX8IMK:3TS1AR6UQRM7SOIBWPBN8N9589Y7FV"}
{"meta_move": "drag_end", "rt": "633.0", "trial_number": "1", "pre_actions": "1", "move": "0@25", "instance": "prb33117", "distance_to_goal": "NA", "progress": "NA", "move_number": "12", "optimal_length": "14", "subject": "A1F4N58CAX8IMK:3TS1AR6UQRM7SOIBWPBN8N9589Y7FV"}
{"meta_move": "drag_end", "rt": "1831.0", "trial_number": "1", "pre_actions": "1", "move": "5@4", "instance": "prb33117", "distance_to_goal": "NA", "progress": "NA", "move_number": "13", "optimal_length": "14", "subject": "A1F4N58CAX8IMK:3TS1AR6UQRM7SOIBWPBN8N9589Y7FV"}
{"meta_move": "drag_end", "rt": "1320.0", "trial_number": "1", "pre_actions": "1", "move": "4@27", "instance": "prb33117", "distance_to_goal": "NA", "progress": "NA", "move_number": "14", "optimal_length": "14", "subject": "A1F4N58CAX8IMK:3TS1AR6UQRM7SOIBWPBN8N9589Y7FV"}
{"meta_move": "drag_end", "rt": "552.0", "trial_number": "1", "pre_actions": "1", "move": "6@33", "instance": "prb33117", "distance_to_goal": "NA", "progress": "NA", "move_number": "15", "optimal_length": "14", "subject": "A1F4N58CAX8IMK:3TS1AR6UQRM7SOIBWPBN8N9589Y7FV"}
{"meta_move": "drag_end", "rt": "672.0", "trial_number": "1", "pre_actions": "1", "move": "r@12", "instance": "prb33117", "distance_to_goal": "NA", "progress": "NA", "move_number": "16", "optimal_length": "14", "subject": "A1F4N58CAX8IMK:3TS1AR6UQRM7SOIBWPBN8N9589Y7FV"}
{"meta_move": "drag_end", "rt": "712.0", "trial_number": "1", "pre_actions": "1", "move": "1@26", "instance": "prb33117", "distance_to_goal": "NA", "progress": "NA", "move_number": "16", "optimal_length": "14", "subject": "A1F4N58CAX8IMK:3TS1AR6UQRM7SOIBWPBN8N9589Y7FV"}
{"meta_move": "drag_end", "rt": "679.0", "trial_number": "1", "pre_actions": "1", "move": "r@13", "instance": "prb33117", "distance_to_goal": "NA", "progress": "NA", "move_number": "17", "optimal_length": "14", "subject": "A1F4N58CAX8IMK:3TS1AR6UQRM7SOIBWPBN8N9589Y7FV"}
{"meta_move": "drag_end", "rt": "1353.0", "trial_number": "1", "pre_actions": "1", "move": "0@19", "instance": "prb33117", "distance_to_goal": "NA", "progress": "NA", "move_number": "18", "optimal_length": "14", "subject": "A1F4N58CAX8IMK:3TS1AR6UQRM7SOIBWPBN8N9589Y7FV"}
{"meta_move": "drag_end", "rt": "504.0", "trial_number": "1", "pre_actions": "1", "move": "1@20", "instance": "prb33117", "distance_to_goal": "NA", "progress": "NA", "move_number": "19", "optimal_length": "14", "subject": "A1F4N58CAX8IMK:3TS1AR6UQRM7SOIBWPBN8N9589Y7FV"}
{"meta_move": "drag_end", "rt": "744.0", "trial_number": "1", "pre_actions": "1", "move": "6@30", "instance": "prb33117", "distance_to_goal": "NA", "progress": "NA", "move_number": "20", "optimal_length": "14", "subject": "A1F4N58CAX8IMK:3TS1AR6UQRM7SOIBWPBN8N9589Y7FV"}
{"meta_move": "drag_end", "rt": "1774.0", "trial_number": "1", "pre_actions": "1", "move": "1@26", "instance": "prb33117", "distance_to_goal": "NA", "progress": "NA", "move_number": "21", "optimal_length": "14", "subject": "A1F4N58CAX8IMK:3TS1AR6UQRM7SOIBWPBN8N9589Y7FV"}
{"meta_move": "drag_end", "rt": "2264.0", "trial_number": "1", "pre_actions": "1", "move": "2@0", "instance": "prb33117", "distance_to_goal": "NA", "progress": "NA", "move_number": "22", "optimal_length": "14", "subject": "A1F4N58CAX8IMK:3TS1AR6UQRM7SOIBWPBN8N9589Y7FV"}
{"meta_move": "drag_end", "rt": "824.0", "trial_number": "1", "pre_actions": "1", "move": "5@10", "instance": "prb33117", "distance_to_goal": "NA", "progress": "NA", "move_number": "22", "optimal_length": "14", "subject": "A1F4N58CAX8IMK:3TS1AR6UQRM7SOIBWPBN8N9589Y7FV"}
{"meta_move": "drag_end", "rt": "1033.0", "trial_number": "1", "pre_actions": "1", "move": "3@9", "instance": "prb33117", "distance_to_goal": "NA", "progress": "NA", "move_number": "23", "optimal_length": "14", "subject": "A1F4N58CAX8IMK:3TS1AR6UQRM7SOIBWPBN8N9589Y7FV"}
{"meta_move": "drag_end", "rt": "592.0", "trial_number": "1", "pre_actions": "1", "move": "2@3", "instance": "prb33117", "distance_to_goal": "NA", "progress": "NA", "move_number": "24", "optimal_length": "14", "subject": "A1F4N58CAX8IMK:3TS1AR6UQRM7SOIBWPBN8N9589Y7FV"}
{"meta_move": "drag_end", "rt": "1104.0", "trial_number": "1", "pre_actions": "1", "move": "r@12", "instance": "prb33117", "distance_to_goal": "NA", "progress": "NA", "move_number": "25", "optimal_length": "14", "subject": "A1F4N58CAX8IMK:3TS1AR6UQRM7SOIBWPBN8N9589Y7FV"}
{"meta_move": "drag_end", "rt": "975.0", "trial_number": "1", "pre_actions": "1", "move": "1@2", "instance": "prb33117", "distance_to_goal": "NA", "progress": "NA", "move_number": "26", "optimal_length": "14", "subject": "A1F4N58CAX8IMK:3TS1AR6UQRM7SOIBWPBN8N9589Y7FV"}
{"meta_move": "drag_end", "rt": "1592.0", "trial_number": "1", "pre_actions": "1", "move": "r@13", "instance": "prb33117", "distance_to_goal": "NA", "progress": "NA", "move_number": "27", "optimal_length": "14", "subject": "A1F4N58CAX8IMK:3TS1AR6UQRM7SOIBWPBN8N9589Y7FV"}
{"meta_move": "drag_end", "rt": "705.0", "trial_number": "1", "pre_actions": "1", "move": "4@26", "instance": "prb33117", "distance_to_goal": "NA", "progress": "NA", "move_number": "28", "optimal_length": "14", "subject": "A1F4N58CAX8IMK:3TS1AR6UQRM7SOIBWPBN8N9589Y7FV"}
{"meta_move": "drag_end", "rt": "792.0", "trial_number": "1", "pre_actions": "1", "move": "5@22", "instance": "prb33117", "distance_to_goal": "NA", "progress": "NA", "move_number": "29", "optimal_length": "14", "subject": "A1F4N58CAX8IMK:3TS1AR6UQRM7SOIBWPBN8N9589Y7FV"}
{"meta_move": "drag_end", "rt": "3871.0", "trial_number": "1", "pre_actions": "1", "move": "7@11", "instance": "prb33117", "distance_to_goal": "NA", "progress": "NA", "move_number": "30", "optimal_length": "14", "subject": "A1F4N58CAX8IMK:3TS1AR6UQRM7SOIBWPBN8N9589Y7FV"}
{"meta_move": "drag_end", "rt": "777.0", "trial_number": "1", "pre_actions": "1", "move": "6@32", "instance": "prb33117", "distance_to_goal": "NA", "progress": "NA", "move_number": "31", "optimal_length": "14", "subject": "A1F4N58CAX8IMK:3TS1AR6UQRM7SOIBWPBN8N9589Y7FV"}
{"meta_move": "drag_end", "rt": "728.0", "trial_number": "1", "pre_actions": "1", "move": "0@25", "instance": "prb33117", "distance_to_goal": "NA", "progress": "NA", "move_number": "32", "optimal_length": "14", "subject": "A1F4N58CAX8IMK:3TS1AR6UQRM7SOIBWPBN8N9589Y7FV"}
{"meta_move": "drag_end", "rt": "1191.0", "trial_number": "1", "pre_actions": "1", "move": "5@10", "instance": "prb33117", "distance_to_goal": "NA", "progress": "NA", "move_number": "33", "optimal_length": "14", "subject": "A1F4N58CAX8IMK:3TS1AR6UQRM7SOIBWPBN8N9589Y7FV"}
{"meta_move": "drag_end", "rt": "904.0", "trial_number": "1", "pre_actions": "1", "move": "4@28", "instance": "prb33117", "distance_to_goal": "NA", "progress": "NA", "move_number": "34", "optimal_length": "14", "subject": "A1F4N58CAX8IMK:3TS1AR6UQRM7SOIBWPBN8N9589Y7FV"}
{"meta_move": "drag_end", "rt": "1240.0", "trial_number": "1", "pre_actions": "1", "move": "3@15", "instance": "prb33117", "distance_to_goal": "NA", "progress": "NA", "move_number": "35", "optimal_length": "14", "subject": "A1F4N58CAX8IMK:3TS1AR6UQRM7SOIBWPBN8N9589Y7FV"}
{"meta_move": "drag_end", "rt": "1024.0", "trial_number": "1", "pre_actions": "1", "move": "r@12", "instance": "prb33117", "distance_to_goal": "NA", "progress": "NA", "move_number": "36", "optimal_length": "14", "subject": "A1F4N58CAX8IMK:3TS1AR6UQRM7SOIBWPBN8N9589Y7FV"}
{"meta_move": "drag_end", "rt": "640.0", "trial_number": "1", "pre_actions": "1", "move": "1@20", "instance": "prb33117", "distance_to_goal": "NA", "progress": "NA", "move_number": "37", "optimal_length": "14", "subject": "A1F4N58CAX8IMK:3TS1AR6UQRM7SOIBWPBN8N9589Y7FV"}
{"meta_move": "drag_end", "rt": "2017.0", "trial_number": "1", "pre_actions": "1", "move": "r@12", "instance": "prb33117", "distance_to_goal": "NA", "progress": "NA", "move_number": "38", "optimal_length": "14", "subject": "A1F4N58CAX8IMK:3TS1AR6UQRM7SOIBWPBN8N9589Y7FV"}
{"meta_move": "drag_end", "rt": "1079.0", "trial_number": "1", "pre_actions": "1", "move": "r@12", "instance": "prb33117", "distance_to_goal": "NA", "progress": "NA", "move_number": "38", "optimal_length": "14", "subject": "A1F4N58CAX8IMK:3TS1AR6UQRM7SOIBWPBN8N9589Y7FV"}
{"meta_move": "drag_end", "rt": "873.0", "trial_number": "1", "pre_actions": "1", "move": "1@2", "instance": "prb33117", "distance_to_goal": "NA", "progress": "NA", "move_number": "38", "optimal_length": "14", "subject": "A1F4N58CAX8IMK:3TS1AR6UQRM7SOIBWPBN8N9589Y7FV"}
{"meta_move": "drag_end", "rt": "2103.0", "trial_number": "1", "pre_actions": "1", "move": "0@19", "instance": "prb33117", "distance_to_goal": "NA", "progress": "NA", "move_number": "39", "optimal_length": "14", "subject": "A1F4N58CAX8IMK:3TS1AR6UQRM7SOIBWPBN8N9589Y7FV"}
{"meta_move": "drag_end", "rt": "753.0", "trial_number": "1", "pre_actions": "1", "move": "6@30", "instance": "prb33117", "distance_to_goal": "NA", "progress": "NA", "move_number": "40", "optimal_length": "14", "subject": "A1F4N58CAX8IMK:3TS1AR6UQRM7SOIBWPBN8N9589Y7FV"}
{"meta_move": "drag_end", "rt": "1319.0", "trial_number": "1", "pre_actions": "1", "move": "3@21", "instance": "prb33117", "distance_to_goal": "NA", "progress": "NA", "move_number": "41", "optimal_length": "14", "subject": "A1F4N58CAX8IMK:3TS1AR6UQRM7SOIBWPBN8N9589Y7FV"}
{"meta_move": "drag_end", "rt": "1048.0", "trial_number": "1", "pre_actions": "1", "move": "r@14", "instance": "prb33117", "distance_to_goal": "NA", "progress": "NA", "move_number": "42", "optimal_length": "14", "subject": "A1F4N58CAX8IMK:3TS1AR6UQRM7SOIBWPBN8N9589Y7FV"}
{"meta_move": "drag_end", "rt": "713.0", "trial_number": "1", "pre_actions": "1", "move": "0@1", "instance": "prb33117", "distance_to_goal": "NA", "progress": "NA", "move_number": "43", "optimal_length": "14", "subject": "A1F4N58CAX8IMK:3TS1AR6UQRM7SOIBWPBN8N9589Y7FV"}
{"meta_move": "drag_end", "rt": "3144.0", "trial_number": "1", "pre_actions": "1", "move": "r@12", "instance": "prb33117", "distance_to_goal": "NA", "progress": "NA", "move_number": "44", "optimal_length": "14", "subject": "A1F4N58CAX8IMK:3TS1AR6UQRM7SOIBWPBN8N9589Y7FV"}
{"meta_move": "drag_end", "rt": "951.0", "trial_number": "1", "pre_actions": "1", "move": "3@9", "instance": "prb33117", "distance_to_goal": "NA", "progress": "NA", "move_number": "45", "optimal_length": "14", "subject": "A1F4N58CAX8IMK:3TS1AR6UQRM7SOIBWPBN8N9589Y7FV"}
{"meta_move": "drag_end", "rt": "921.0", "trial_number": "1", "pre_actions": "1", "move": "4@24", "instance": "prb33117", "distance_to_goal": "NA", "progress": "NA", "move_number": "46", "optimal_length": "14", "subject": "A1F4N58CAX8IMK:3TS1AR6UQRM7SOIBWPBN8N9589Y7FV"}
{"meta_move": "drag_end", "rt": "1360.0", "trial_number": "1", "pre_actions": "1", "move": "3@21", "instance": "prb33117", "distance_to_goal": "NA", "progress": "NA", "move_number": "47", "optimal_length": "14", "subject": "A1F4N58CAX8IMK:3TS1AR6UQRM7SOIBWPBN8N9589Y7FV"}
{"meta_move": "drag_end", "rt": "560.0", "trial_number": "1", "pre_actions": "1", "move": "5@22", "instance": "prb33117", "distance_to_goal": "NA", "progress": "NA", "move_number": "48", "optimal_length": "14", "subject": "A1F4N58CAX8IMK:3TS1AR6UQRM7SOIBWPBN8N9589Y7FV"}
{"meta_move": "drag_end", "rt": "1703.0", "trial_number": "1", "pre_actions": "1", "move": "7@29", "instance": "prb33117", "distance_to_goal": "NA", "progress": "NA", "move_number": "49", "optimal_length": "14", "subject": "A1F4N58CAX8IMK:3TS1AR6UQRM7SOIBWPBN8N9589Y7FV"}
{"meta_move": "win", "rt": "755.0", "trial_number": "1", "pre_actions": "1", "move": "r@12", "instance": "prb33117", "distance_to_goal": "1", "progress": "NA", "move_number": "50", "optimal_length": "14", "subject": "A1F4N58CAX8IMK:3TS1AR6UQRM7SOIBWPBN8N9589Y7FV"}
{"meta_move": "drag_end", "rt": "149.0", "trial_number": "0", "pre_actions": "0", "move": "r@16", "instance": "prb33117", "distance_to_goal": "NA", "progress": "NA", "move_number": "50", "optimal_length": "14", "subject": "A1F4N58CAX8IMK:3TS1AR6UQRM7SOIBWPBN8N9589Y7FV"}
{"meta_move": "drag_end", "rt": "22750.0", "trial_number": "1", "pre_actions": "1", "move": "1@8", "instance": "prb33117", "distance_to_goal": "NA", "progress": "NA", "move_number": "0", "optimal_length": "14", "subject": "A1LR0VQIHQUJAM:3YW4XOSQKRTI0K0Z2YPDTDJVFABU1I"}
{"meta_move": "drag_end", "rt": "2028.0", "trial_number": "1", "pre_actions": "1", "move": "1@26", "instance": "prb33117", "distance_to_goal": "NA", "progress": "NA", "move_number": "1", "optimal_length": "14", "subject": "A1LR0VQIHQUJAM:3YW4XOSQKRTI0K0Z2YPDTDJVFABU1I"}
{"meta_move": "drag_end", "rt": "957.0", "trial_number": "1", "pre_actions": "1", "move": "r@12", "instance": "prb33117", "distance_to_goal": "NA", "progress": "NA", "move_number": "2", "optimal_length": "14", "subject": "A1LR0VQIHQUJAM:3YW4XOSQKRTI0K0Z2YPDTDJVFABU1I"}
{"meta_move": "drag_end", "rt": "1131.0", "trial_number": "1", "pre_actions": "1", "move": "4@28", "instance": "prb33117", "distance_to_goal": "NA", "progress": "NA", "move_number": "2", "optimal_length": "14", "subject": "A1LR0VQIHQUJAM:3YW4XOSQKRTI0K0Z2YPDTDJVFABU1I"}
{"meta_move": "drag_end", "rt": "490.0", "trial_number": "1", "pre_actions": "1", "move": "3@21", "instance": "prb33117", "distance_to_goal": "NA", "progress": "NA", "move_number": "3", "optimal_length": "14", "subject": "A1LR0VQIHQUJAM:3YW4XOSQKRTI0K0Z2YPDTDJVFABU1I"}
{"meta_move": "drag_end", "rt": "600.0", "trial_number": "1", "pre_actions": "1", "move": "r@14", "instance": "prb33117", "distance_to_goal": "NA", "progress": "NA", "move_number": "4", "optimal_length": "14", "subject": "A1LR0VQIHQUJAM:3YW4XOSQKRTI0K0Z2YPDTDJVFABU1I"}
{"meta_move": "drag_end", "rt": "621.0", "trial_number": "1", "pre_actions": "1", "move": "0@7", "instance": "prb33117", "distance_to_goal": "NA", "progress": "NA", "move_number": "5", "optimal_length": "14", "subject": "A1LR0VQIHQUJAM:3YW4XOSQKRTI0K0Z2YPDTDJVFABU1I"}
{"meta_move": "drag_end", "rt": "1469.0", "trial_number": "1", "pre_actions": "1", "move": "2@3", "instance": "prb33117", "distance_to_goal": "NA", "progress": "NA", "move_number": "6", "optimal_length": "14", "subject": "A1LR0VQIHQUJAM:3YW4XOSQKRTI0K0Z2YPDTDJVFABU1I"}
{"meta_move": "drag_end", "rt": "562.0", "trial_number": "1", "pre_actions": "1", "move": "0@1", "instance": "prb33117", "distance_to_goal": "NA", "progress": "NA", "move_number": "7", "optimal_length": "14", "subject": "A1LR0VQIHQUJAM:3YW4XOSQKRTI0K0Z2YPDTDJVFABU1I"}
{"meta_move": "drag_end", "rt": "820.0", "trial_number": "1", "pre_actions": "1", "move": "r@12", "instance": "prb33117", "distance_to_goal": "NA", "progress": "NA", "move_number": "8", "optimal_length": "14", "subject": "A1LR0VQIHQUJAM:3YW4XOSQKRTI0K0Z2YPDTDJVFABU1I"}
{"meta_move": "drag_end", "rt": "870.0", "trial_number": "1", "pre_actions": "1", "move": "1@2", "instance": "prb33117", "distance_to_goal": "NA", "progress": "NA", "move_number": "9", "optimal_length": "14", "subject": "A1LR0VQIHQUJAM:3YW4XOSQKRTI0K0Z2YPDTDJVFABU1I"}
{"meta_move": "drag_end", "rt": "2631.0", "trial_number": "1", "pre_actions": "1", "move": "3@9", "instance": "prb33117", "distance_to_goal": "NA", "progress": "NA", "move_number": "10", "optimal_length": "14", "subject": "A1LR0VQIHQUJAM:3YW4XOSQKRTI0K0Z2YPDTDJVFABU1I"}
{"meta_move": "drag_end", "rt": "546.0", "trial_number": "1", "pre_actions": "1", "move": "4@24", "instance": "prb33117", "distance_to_goal": "NA", "progress": "NA", "move_number": "11", "optimal_length": "14", "subject": "A1LR0VQIHQUJAM:3YW4XOSQKRTI0K0Z2YPDTDJVFABU1I"}
{"meta_move": "drag_end", "rt": "644.0", "trial_number": "1", "pre_actions": "1", "move": "3@21", "instance": "prb33117", "distance_to_goal": "NA", "progress": "NA", "move_number": "12", "optimal_length": "14", "subject": "A1LR0VQIHQUJAM:3YW4XOSQKRTI0K0Z2YPDTDJVFABU1I"}
{"meta_move": "drag_end", "rt": "414.0", "trial_number": "1", "pre_actions": "1", "move": "5@22", "instance": "prb33117", "distance_to_goal": "NA", "progress": "NA", "move_number": "13", "optimal_length": "14", "subject": "A1LR0VQIHQUJAM:3YW4XOSQKRTI0K0Z2YPDTDJVFABU1I"}
{"meta_move": "drag_end", "rt": "549.0", "trial_number": "1", "pre_actions": "1", "move": "7@29", "instance": "prb33117", "distance_to_goal": "NA", "progress": "NA", "move_number": "14", "optimal_length": "14", "subject": "A1LR0VQIHQUJAM:3YW4XOSQKRTI0K0Z2YPDTDJVFABU1I"}
{"meta_move": "win", "rt": "615.0", "trial_number": "1", "pre_actions": "1", "move": "r@12", "instance": "prb33117", "distance_to_goal": "1", "progress": "NA", "move_number": "15", "optimal_length": "14", "subject": "A1LR0VQIHQUJAM:3YW4XOSQKRTI0K0Z2YPDTDJVFABU1I"}
{"meta_move": "drag_end", "rt": "62.0", "trial_number": "0", "pre_actions": "0", "move": "r@16", "instance": "prb33117", "distance_to_goal": "NA", "progress": "NA", "move_number": "15", "optimal_length": "14", "subject": "A1LR0VQIHQUJAM:3YW4XOSQKRTI0K0Z2YPDTDJVFABU1I"}
{"meta_move": "drag_end", "rt": "22311.0", "trial_number": "1", "pre_actions": "1", "move": "1@20", "instance": "prb33117", "distance_to_goal": "NA", "progress": "NA", "move_number": "0", "optimal_length": "14", "subject": "A1XDMS0KFSF5JW:3M0BCWMB8W4W5M7WZVX3HDH1M3FBWL"}
{"meta_move": "drag_end", "rt": "4268.0", "trial_number": "1", "pre_actions": "1", "move": "4@28", "instance": "prb33117", "distance_to_goal": "NA", "progress": "NA", "move_number": "1", "optimal_length": "14", "subject": "A1XDMS0KFSF5JW:3M0BCWMB8W4W5M7WZVX3HDH1M3FBWL"}
{"meta_move": "drag_end", "rt": "2198.0", "trial_number": "1", "pre_actions": "1", "move": "3@21", "instance": "prb33117", "distance_to_goal": "NA", "progress": "NA", "move_number": "2", "optimal_length": "14", "subject": "A1XDMS0KFSF5JW:3M0BCWMB8W4W5M7WZVX3HDH1M3FBWL"}
{"meta_move": "drag_end", "rt": "3621.0", "trial_number": "1", "pre_actions": "1", "move": "2@0", "instance": "prb33117", "distance_to_goal": "NA", "progress": "NA", "move_number": "3", "optimal_length": "14", "subject": "A1XDMS0KFSF5JW:3M0BCWMB8W4W5M7WZVX3HDH1M3FBWL"}
{"meta_move": "drag_end", "rt": "2748.0", "trial_number": "1", "pre_actions": "1", "move": "5@4", "instance": "prb33117", "distance_to_goal": "NA", "progress": "NA", "move_number": "4", "optimal_length": "14", "subject": "A1XDMS0KFSF5JW:3M0BCWMB8W4W5M7WZVX3HDH1M3FBWL"}
{"meta_move": "drag_end", "rt": "1354.0", "trial_number": "1", "pre_actions": "1", "move": "3@9", "instance": "prb33117", "distance_to_goal": "NA", "progress": "NA", "move_number": "5", "optimal_length": "14", "subject": "A1XDMS0KFSF5JW:3M0BCWMB8W4W5M7WZVX3HDH1M3FBWL"}
{"meta_move": "drag_end", "rt": "2178.0", "trial_number": "1", "pre_actions": "1", "move": "4@27", "instance": "prb33117", "distance_to_goal": "NA", "progress": "NA", "move_number": "6", "optimal_length": "14", "subject": "A1XDMS0KFSF5JW:3M0BCWMB8W4W5M7WZVX3HDH1M3FBWL"}
{"meta_move": "drag_end", "rt": "2358.0", "trial_number": "1", "pre_actions": "1", "move": "1@14", "instance": "prb33117", "distance_to_goal": "NA", "progress": "NA", "move_number": "7", "optimal_length": "14", "subject": "A1XDMS0KFSF5JW:3M0BCWMB8W4W5M7WZVX3HDH1M3FBWL"}
{"meta_move": "drag_end", "rt": "943.0", "trial_number": "1", "pre_actions": "1", "move": "4@26", "instance": "prb33117", "distance_to_goal": "NA", "progress": "NA", "move_number": "8", "optimal_length": "14", "subject": "A1XDMS0KFSF5JW:3M0BCWMB8W4W5M7WZVX3HDH1M3FBWL"}
{"meta_move": "drag_end", "rt": "2877.0", "trial_number": "1", "pre_actions": "1", "move": "5@22", "instance": "prb33117", "distance_to_goal": "NA", "progress": "NA", "move_number": "9", "optimal_length": "14", "subject": "A1XDMS0KFSF5JW:3M0BCWMB8W4W5M7WZVX3HDH1M3FBWL"}
{"meta_move": "drag_end", "rt": "4648.0", "trial_number": "1", "pre_actions": "1", "move": "5@10", "instance": "prb33117", "distance_to_goal": "NA", "progress": "NA", "move_number": "10", "optimal_length": "14", "subject": "A1XDMS0KFSF5JW:3M0BCWMB8W4W5M7WZVX3HDH1M3FBWL"}
{"meta_move": "drag_end", "rt": "12401.0", "trial_number": "2", "pre_actions": "1", "move": "5@10", "instance": "prb33117", "distance_to_goal": "NA", "progress": "NA", "move_number": "0", "optimal_length": "14", "subject": "A1XDMS0KFSF5JW:3M0BCWMB8W4W5M7WZVX3HDH1M3FBWL"}
{"meta_move": "drag_end", "rt": "6252.0", "trial_number": "2", "pre_actions": "1", "move": "1@14", "instance": "prb33117", "distance_to_goal": "NA", "progress": "NA", "move_number": "0", "optimal_length": "14", "subject": "A1XDMS0KFSF5JW:3M0BCWMB8W4W5M7WZVX3HDH1M3FBWL"}
{"meta_move": "drag_end", "rt": "8018.0", "trial_number": "2", "pre_actions": "1", "move": "7@11", "instance": "prb33117", "distance_to_goal": "NA", "progress": "NA", "move_number": "0", "optimal_length": "14", "subject": "A1XDMS0KFSF5JW:3M0BCWMB8W4W5M7WZVX3HDH1M3FBWL"}
{"meta_move": "drag_end", "rt": "1374.0", "trial_number": "2", "pre_actions": "1", "move": "2@0", "instance": "prb33117", "distance_to_goal": "NA", "progress": "NA", "move_number": "0", "optimal_length": "14", "subject": "A1XDMS0KFSF5JW:3M0BCWMB8W4W5M7WZVX3HDH1M3FBWL"}
{"meta_move": "drag_end", "rt": "5179.0", "trial_number": "2", "pre_actions": "1", "move": "4@26", "instance": "prb33117", "distance_to_goal": "NA", "progress": "NA", "move_number": "1", "optimal_length": "14", "subject": "A1XDMS0KFSF5JW:3M0BCWMB8W4W5M7WZVX3HDH1M3FBWL"}
{"meta_move": "drag_end", "rt": "877.0", "trial_number": "2", "pre_actions": "1", "move": "1@8", "instance": "prb33117", "distance_to_goal": "NA", "progress": "NA", "move_number": "2", "optimal_length": "14", "subject": "A1XDMS0KFSF5JW:3M0BCWMB8W4W5M7WZVX3HDH1M3FBWL"}
{"meta_move": "drag_end", "rt": "1512.0", "trial_number": "2", "pre_actions": "1", "move": "1@14", "instance": "prb33117", "distance_to_goal": "NA", "progress": "NA", "move_number": "3", "optimal_length": "14", "subject": "A1XDMS0KFSF5JW:3M0BCWMB8W4W5M7WZVX3HDH1M3FBWL"}
{"meta_move": "drag_end", "rt": "2332.0", "trial_number": "2", "pre_actions": "1", "move": "3@3", "instance": "prb33117", "distance_to_goal": "NA", "progress": "NA", "move_number": "4", "optimal_length": "14", "subject": "A1XDMS0KFSF5JW:3M0BCWMB8W4W5M7WZVX3HDH1M3FBWL"}
{"meta_move": "drag_end", "rt": "2690.0", "trial_number": "3", "pre_actions": "1", "move": "1@20", "instance": "prb33117", "distance_to_goal": "NA", "progress": "NA", "move_number": "0", "optimal_length": "14", "subject": "A1XDMS0KFSF5JW:3M0BCWMB8W4W5M7WZVX3HDH1M3FBWL"}
{"meta_move": "drag_end", "rt": "935.0", "trial_number": "3", "pre_actions": "1", "move": "r@13", "instance": "prb33117", "distance_to_goal": "NA", "progress": "NA", "move_number": "1", "optimal_length": "14", "subject": "A1XDMS0KFSF5JW:3M0BCWMB8W4W5M7WZVX3HDH1M3FBWL"}
{"meta_move": "drag_end", "rt": "2657.0", "trial_number": "3", "pre_actions": "1", "move": "2@0", "instance": "prb33117", "distance_to_goal": "NA", "progress": "NA", "move_number": "2", "optimal_length": "14", "subject": "A1XDMS0KFSF5JW:3M0BCWMB8W4W5M7WZVX3HDH1M3FBWL"}
{"meta_move": "drag_end", "rt": "1875.0", "trial_number": "3", "pre_actions": "1", "move": "4@28", "instance": "prb33117", "distance_to_goal": "NA", "progress": "NA", "move_number": "3", "optimal_length": "14", "subject": "A1XDMS0KFSF5JW:3M0BCWMB8W4W5M7WZVX3HDH1M3FBWL"}
{"meta_move": "drag_end", "rt": "1203.0", "trial_number": "3", "pre_actions": "1", "move": "3@21", "instance": "prb33117", "distance_to_goal": "NA", "progress": "NA", "move_number": "4", "optimal_length": "14", "subject": "A1XDMS0KFSF5JW:3M0BCWMB8W4W5M7WZVX3HDH1M3FBWL"}
{"meta_move": "drag_end", "rt": "933.0", "trial_number": "3", "pre_actions": "1", "move": "r@14", "instance": "prb33117", "distance_to_goal": "NA", "progress": "NA", "move_number": "5", "optimal_length": "14", "subject": "A1XDMS0KFSF5JW:3M0BCWMB8W4W5M7WZVX3HDH1M3FBWL"}
{"meta_move": "drag_end", "rt": "1052.0", "trial_number": "3", "pre_actions": "1", "move": "0@7", "instance": "prb33117", "distance_to_goal": "NA", "progress": "NA", "move_number": "6", "optimal_length": "14", "subject": "A1XDMS0KFSF5JW:3M0BCWMB8W4W5M7WZVX3HDH1M3FBWL"}
{"meta_move": "drag_end", "rt": "4645.0", "trial_number": "3", "pre_actions": "1", "move": "5@4", "instance": "prb33117", "distance_to_goal": "NA", "progress": "NA", "move_number": "7", "optimal_length": "14", "subject": "A1XDMS0KFSF5JW:3M0BCWMB8W4W5M7WZVX3HDH1M3FBWL"}
{"meta_move": "drag_end", "rt": "3164.0", "trial_number": "3", "pre_actions": "1", "move": "0@13", "instance": "prb33117", "distance_to_goal": "NA", "progress": "NA", "move_number": "8", "optimal_length": "14", "subject": "A1XDMS0KFSF5JW:3M0BCWMB8W4W5M7WZVX3HDH1M3FBWL"}
{"meta_move": "drag_end", "rt": "993.0", "trial_number": "3", "pre_actions": "1", "move": "0@7", "instance": "prb33117", "distance_to_goal": "NA", "progress": "NA", "move_number": "9", "optimal_length": "14", "subject": "A1XDMS0KFSF5JW:3M0BCWMB8W4W5M7WZVX3HDH1M3FBWL"}
{"meta_move": "drag_end", "rt": "1161.0", "trial_number": "3", "pre_actions": "1", "move": "6@31", "instance": "prb33117", "distance_to_goal": "NA", "progress": "NA", "move_number": "10", "optimal_length": "14", "subject": "A1XDMS0KFSF5JW:3M0BCWMB8W4W5M7WZVX3HDH1M3FBWL"}
{"meta_move": "drag_end", "rt": "3410.0", "trial_number": "3", "pre_actions": "1", "move": "0@19", "instance": "prb33117", "distance_to_goal": "NA", "progress": "NA", "move_number": "11", "optimal_length": "14", "subject": "A1XDMS0KFSF5JW:3M0BCWMB8W4W5M7WZVX3HDH1M3FBWL"}
{"meta_move": "drag_end", "rt": "1619.0", "trial_number": "3", "pre_actions": "1", "move": "r@13", "instance": "prb33117", "distance_to_goal": "NA", "progress": "NA", "move_number": "12", "optimal_length": "14", "subject": "A1XDMS0KFSF5JW:3M0BCWMB8W4W5M7WZVX3HDH1M3FBWL"}
{"meta_move": "drag_end", "rt": "984.0", "trial_number": "3", "pre_actions": "1", "move": "3@3", "instance": "prb33117", "distance_to_goal": "NA", "progress": "NA", "move_number": "13", "optimal_length": "14", "subject": "A1XDMS0KFSF5JW:3M0BCWMB8W4W5M7WZVX3HDH1M3FBWL"}
{"meta_move": "drag_end", "rt": "2197.0", "trial_number": "3", "pre_actions": "1", "move": "6@32", "instance": "prb33117", "distance_to_goal": "NA", "progress": "NA", "move_number": "14", "optimal_length": "14", "subject": "A1XDMS0KFSF5JW:3M0BCWMB8W4W5M7WZVX3HDH1M3FBWL"}
{"meta_move": "drag_end", "rt": "1018.0", "trial_number": "3", "pre_actions": "1", "move": "0@25", "instance": "prb33117", "distance_to_goal": "NA", "progress": "NA", "move_number": "15", "optimal_length": "14", "subject": "A1XDMS0KFSF5JW:3M0BCWMB8W4W5M7WZVX3HDH1M3FBWL"}
{"meta_move": "drag_end", "rt": "1244.0", "trial_number": "3", "pre_actions": "1", "move": "6@34", "instance": "prb33117", "distance_to_goal": "NA", "progress": "NA", "move_number": "16", "optimal_length": "14", "subject": "A1XDMS0KFSF5JW:3M0BCWMB8W4W5M7WZVX3HDH1M3FBWL"}
{"meta_move": "drag_end", "rt": "1622.0", "trial_number": "3", "pre_actions": "1", "move": "1@26", "instance": "prb33117", "distance_to_goal": "NA", "progress": "NA", "move_number": "17", "optimal_length": "14", "subject": "A1XDMS0KFSF5JW:3M0BCWMB8W4W5M7WZVX3HDH1M3FBWL"}
{"meta_move": "drag_end", "rt": "3699.0", "trial_number": "3", "pre_actions": "1", "move": "3@21", "instance": "prb33117", "distance_to_goal": "NA", "progress": "NA", "move_number": "18", "optimal_length": "14", "subject": "A1XDMS0KFSF5JW:3M0BCWMB8W4W5M7WZVX3HDH1M3FBWL"}
{"meta_move": "drag_end", "rt": "1293.0", "trial_number": "3", "pre_actions": "1", "move": "r@14", "instance": "prb33117", "distance_to_goal": "NA", "progress": "NA", "move_number": "19", "optimal_length": "14", "subject": "A1XDMS0KFSF5JW:3M0BCWMB8W4W5M7WZVX3HDH1M3FBWL"}
{"meta_move": "drag_end", "rt": "1578.0", "trial_number": "3", "pre_actions": "1", "move": "0@7", "instance": "prb33117", "distance_to_goal": "NA", "progress": "NA", "move_number": "20", "optimal_length": "14", "subject": "A1XDMS0KFSF5JW:3M0BCWMB8W4W5M7WZVX3HDH1M3FBWL"}
{"meta_move": "drag_end", "rt": "1553.0", "trial_number": "3", "pre_actions": "1", "move": "1@20", "instance": "prb33117", "distance_to_goal": "NA", "progress": "NA", "move_number": "21", "optimal_length": "14", "subject": "A1XDMS0KFSF5JW:3M0BCWMB8W4W5M7WZVX3HDH1M3FBWL"}
{"meta_move": "drag_end", "rt": "3205.0", "trial_number": "3", "pre_actions": "1", "move": "7@17", "instance": "prb33117", "distance_to_goal": "NA", "progress": "NA", "move_number": "22", "optimal_length": "14", "subject": "A1XDMS0KFSF5JW:3M0BCWMB8W4W5M7WZVX3HDH1M3FBWL"}
{"meta_move": "drag_end", "rt": "3362.0", "trial_number": "4", "pre_actions": "1", "move": "2@0", "instance": "prb33117", "distance_to_goal": "NA", "progress": "NA", "move_number": "0", "optimal_length": "14", "subject": "A1XDMS0KFSF5JW:3M0BCWMB8W4W5M7WZVX3HDH1M3FBWL"}
{"meta_move": "drag_end", "rt": "3886.0", "trial_number": "4", "pre_actions": "1", "move": "3@3", "instance": "prb33117", "distance_to_goal": "NA", "progress": "NA", "move_number": "1", "optimal_length": "14", "subject": "A1XDMS0KFSF5JW:3M0BCWMB8W4W5M7WZVX3HDH1M3FBWL"}
{"meta_move": "drag_end", "rt": "598.0", "trial_number": "4", "pre_actions": "1", "move": "5@4", "instance": "prb33117", "distance_to_goal": "NA", "progress": "NA", "move_number": "2", "optimal_length": "14", "subject": "A1XDMS0KFSF5JW:3M0BCWMB8W4W5M7WZVX3HDH1M3FBWL"}
{"meta_move": "drag_end", "rt": "2137.0", "trial_number": "4", "pre_actions": "1", "move": "7@5", "instance": "prb33117", "distance_to_goal": "NA", "progress": "NA", "move_number": "3", "optimal_length": "14", "subject": "A1XDMS0KFSF5JW:3M0BCWMB8W4W5M7WZVX3HDH1M3FBWL"}
{"meta_move": "drag_end", "rt": "1617.0", "trial_number": "4", "pre_actions": "1", "move": "1@8", "instance": "prb33117", "distance_to_goal": "NA", "progress": "NA", "move_number": "4", "optimal_length": "14", "subject": "A1XDMS0KFSF5JW:3M0BCWMB8W4W5M7WZVX3HDH1M3FBWL"}
{"meta_move": "drag_end", "rt": "2150.0", "trial_number": "4", "pre_actions": "1", "move": "4@28", "instance": "prb33117", "distance_to_goal": "NA", "progress": "NA", "move_number": "5", "optimal_length": "14", "subject": "A1XDMS0KFSF5JW:3M0BCWMB8W4W5M7WZVX3HDH1M3FBWL"}
{"meta_move": "drag_end", "rt": "2745.0", "trial_number": "4", "pre_actions": "1", "move": "1@8", "instance": "prb33117", "distance_to_goal": "NA", "progress": "NA", "move_number": "6", "optimal_length": "14", "subject": "A1XDMS0KFSF5JW:3M0BCWMB8W4W5M7WZVX3HDH1M3FBWL"}
{"meta_move": "drag_end", "rt": "1335.0", "trial_number": "4", "pre_actions": "1", "move": "6@34", "instance": "prb33117", "distance_to_goal": "NA", "progress": "NA", "move_number": "6", "optimal_length": "14", "subject": "A1XDMS0KFSF5JW:3M0BCWMB8W4W5M7WZVX3HDH1M3FBWL"}
{"meta_move": "drag_end", "rt": "916.0", "trial_number": "4", "pre_actions": "1", "move": "0@25", "instance": "prb33117", "distance_to_goal": "NA", "progress": "NA", "move_number": "7", "optimal_length": "14", "subject": "A1XDMS0KFSF5JW:3M0BCWMB8W4W5M7WZVX3HDH1M3FBWL"}
{"meta_move": "drag_end", "rt": "1679.0", "trial_number": "4", "pre_actions": "1", "move": "1@26", "instance": "prb33117", "distance_to_goal": "NA", "progress": "NA", "move_number": "8", "optimal_length": "14", "subject": "A1XDMS0KFSF5JW:3M0BCWMB8W4W5M7WZVX3HDH1M3FBWL"}
{"meta_move": "drag_end", "rt": "1242.0", "trial_number": "4", "pre_actions": "1", "move": "3@21", "instance": "prb33117", "distance_to_goal": "NA", "progress": "NA", "move_number": "9", "optimal_length": "14", "subject": "A1XDMS0KFSF5JW:3M0BCWMB8W4W5M7WZVX3HDH1M3FBWL"}
{"meta_move": "drag_end", "rt": "2116.0", "trial_number": "4", "pre_actions": "1", "move": "r@14", "instance": "prb33117", "distance_to_goal": "NA", "progress": "NA", "move_number": "10", "optimal_length": "14", "subject": "A1XDMS0KFSF5JW:3M0BCWMB8W4W5M7WZVX3HDH1M3FBWL"}
{"meta_move": "drag_end", "rt": "986.0", "trial_number": "4", "pre_actions": "1", "move": "0@7", "instance": "prb33117", "distance_to_goal": "NA", "progress": "NA", "move_number": "11", "optimal_length": "14", "subject": "A1XDMS0KFSF5JW:3M0BCWMB8W4W5M7WZVX3HDH1M3FBWL"}
{"meta_move": "drag_end", "rt": "2658.0", "trial_number": "4", "pre_actions": "1", "move": "2@0", "instance": "prb33117", "distance_to_goal": "NA", "progress": "NA", "move_number": "12", "optimal_length": "14", "subject": "A1XDMS0KFSF5JW:3M0BCWMB8W4W5M7WZVX3HDH1M3FBWL"}
{"meta_move": "drag_end", "rt": "884.0", "trial_number": "4", "pre_actions": "1", "move": "5@10", "instance": "prb33117", "distance_to_goal": "NA", "progress": "NA", "move_number": "12", "optimal_length": "14", "subject": "A1XDMS0KFSF5JW:3M0BCWMB8W4W5M7WZVX3HDH1M3FBWL"}
{"meta_move": "drag_end", "rt": "714.0", "trial_number": "4", "pre_actions": "1", "move": "2@2", "instance": "prb33117", "distance_to_goal": "NA", "progress": "NA", "move_number": "13", "optimal_length": "14", "subject": "A1XDMS0KFSF5JW:3M0BCWMB8W4W5M7WZVX3HDH1M3FBWL"}
{"meta_move": "drag_end", "rt": "837.0", "trial_number": "4", "pre_actions": "1", "move": "0@1", "instance": "prb33117", "distance_to_goal": "NA", "progress": "NA", "move_number": "14", "optimal_length": "14", "subject": "A1XDMS0KFSF5JW:3M0BCWMB8W4W5M7WZVX3HDH1M3FBWL"}
{"meta_move": "drag_end", "rt": "1261.0", "trial_number": "4", "pre_actions": "1", "move": "r@12", "instance": "prb33117", "distance_to_goal": "NA", "progress": "NA", "move_number": "15", "optimal_length": "14", "subject": "A1XDMS0KFSF5JW:3M0BCWMB8W4W5M7WZVX3HDH1M3FBWL"}
{"meta_move": "drag_end", "rt": "2948.0", "trial_number": "4", "pre_actions": "1", "move": "1@26", "instance": "prb33117", "distance_to_goal": "NA", "progress": "NA", "move_number": "16", "optimal_length": "14", "subject": "A1XDMS0KFSF5JW:3M0BCWMB8W4W5M7WZVX3HDH1M3FBWL"}
{"meta_move": "drag_end", "rt": "1655.0", "trial_number": "4", "pre_actions": "1", "move": "1@8", "instance": "prb33117", "distance_to_goal": "NA", "progress": "NA", "move_number": "16", "optimal_length": "14", "subject": "A1XDMS0KFSF5JW:3M0BCWMB8W4W5M7WZVX3HDH1M3FBWL"}
{"meta_move": "drag_end", "rt": "1042.0", "trial_number": "4", "pre_actions": "1", "move": "3@9", "instance": "prb33117", "distance_to_goal": "NA", "progress": "NA", "move_number": "17", "optimal_length": "14", "subject": "A1XDMS0KFSF5JW:3M0BCWMB8W4W5M7WZVX3HDH1M3FBWL"}
{"meta_move": "drag_end", "rt": "1188.0", "trial_number": "4", "pre_actions": "1", "move": "6@30", "instance": "prb33117", "distance_to_goal": "NA", "progress": "NA", "move_number": "18", "optimal_length": "14", "subject": "A1XDMS0KFSF5JW:3M0BCWMB8W4W5M7WZVX3HDH1M3FBWL"}
{"meta_move": "drag_end", "rt": "1532.0", "trial_number": "4", "pre_actions": "1", "move": "4@24", "instance": "prb33117", "distance_to_goal": "NA", "progress": "NA", "move_number": "19", "optimal_length": "14", "subject": "A1XDMS0KFSF5JW:3M0BCWMB8W4W5M7WZVX3HDH1M3FBWL"}
{"meta_move": "drag_end", "rt": "1274.0", "trial_number": "4", "pre_actions": "1", "move": "3@21", "instance": "prb33117", "distance_to_goal": "NA", "progress": "NA", "move_number": "20", "optimal_length": "14", "subject": "A1XDMS0KFSF5JW:3M0BCWMB8W4W5M7WZVX3HDH1M3FBWL"}
{"meta_move": "drag_end", "rt": "906.0", "trial_number": "4", "pre_actions": "1", "move": "5@22", "instance": "prb33117", "distance_to_goal": "NA", "progress": "NA", "move_number": "21", "optimal_length": "14", "subject": "A1XDMS0KFSF5JW:3M0BCWMB8W4W5M7WZVX3HDH1M3FBWL"}
{"meta_move": "drag_end", "rt": "957.0", "trial_number": "4", "pre_actions": "1", "move": "1@26", "instance": "prb33117", "distance_to_goal": "NA", "progress": "NA", "move_number": "22", "optimal_length": "14", "subject": "A1XDMS0KFSF5JW:3M0BCWMB8W4W5M7WZVX3HDH1M3FBWL"}
{"meta_move": "win", "rt": "728.0", "trial_number": "4", "pre_actions": "1", "move": "r@12", "instance": "prb33117", "distance_to_goal": "1", "progress": "NA", "move_number": "23", "optimal_length": "14", "subject": "A1XDMS0KFSF5JW:3M0BCWMB8W4W5M7WZVX3HDH1M3FBWL"}
{"meta_move": "drag_end", "rt": "142.0", "trial_number": "0", "pre_actions": "0", "move": "r@16", "instance": "prb33117", "distance_to_goal": "NA", "progress": "NA", "move_number": "23", "optimal_length": "14", "subject": "A1XDMS0KFSF5JW:3M0BCWMB8W4W5M7WZVX3HDH1M3FBWL"}
{"meta_move": "drag_end", "rt": "33755.0", "trial_number": "1", "pre_actions": "1", "move": "2@0", "instance": "prb33117", "distance_to_goal": "NA", "progress": "NA", "move_number": "0", "optimal_length": "14", "subject": "A214HWAW1PYWO8:34BBWHLWHBJ6SUL255PK30LEGY5IWG"}
{"meta_move": "drag_end", "rt": "573.0", "trial_number": "1", "pre_actions": "1", "move": "3@3", "instance": "prb33117", "distance_to_goal": "NA", "progress": "NA", "move_number": "1", "optimal_length": "14", "subject": "A214HWAW1PYWO8:34BBWHLWHBJ6SUL255PK30LEGY5IWG"}
{"meta_move": "drag_end", "rt": "1928.0", "trial_number": "1", "pre_actions": "1", "move": "1@8", "instance": "prb33117", "distance_to_goal": "NA", "progress": "NA", "move_number": "2", "optimal_length": "14", "subject": "A214HWAW1PYWO8:34BBWHLWHBJ6SUL255PK30LEGY5IWG"}
{"meta_move": "drag_end", "rt": "1143.0", "trial_number": "1", "pre_actions": "1", "move": "4@26", "instance": "prb33117", "distance_to_goal": "NA", "progress": "NA", "move_number": "3", "optimal_length": "14", "subject": "A214HWAW1PYWO8:34BBWHLWHBJ6SUL255PK30LEGY5IWG"}
{"meta_move": "drag_end", "rt": "1078.0", "trial_number": "1", "pre_actions": "1", "move": "4@28", "instance": "prb33117", "distance_to_goal": "NA", "progress": "NA", "move_number": "4", "optimal_length": "14", "subject": "A214HWAW1PYWO8:34BBWHLWHBJ6SUL255PK30LEGY5IWG"}
{"meta_move": "drag_end", "rt": "430.0", "trial_number": "1", "pre_actions": "1", "move": "5@4", "instance": "prb33117", "distance_to_goal": "NA", "progress": "NA", "move_number": "5", "optimal_length": "14", "subject": "A214HWAW1PYWO8:34BBWHLWHBJ6SUL255PK30LEGY5IWG"}
{"meta_move": "drag_end", "rt": "1353.0", "trial_number": "1", "pre_actions": "1", "move": "6@34", "instance": "prb33117", "distance_to_goal": "NA", "progress": "NA", "move_number": "6", "optimal_length": "14", "subject": "A214HWAW1PYWO8:34BBWHLWHBJ6SUL255PK30LEGY5IWG"}
{"meta_move": "drag_end", "rt": "519.0", "trial_number": "1", "pre_actions": "1", "move": "0@25", "instance": "prb33117", "distance_to_goal": "NA", "progress": "NA", "move_number": "7", "optimal_length": "14", "subject": "A214HWAW1PYWO8:34BBWHLWHBJ6SUL255PK30LEGY5IWG"}
{"meta_move": "drag_end", "rt": "3263.0", "trial_number": "1", "pre_actions": "1", "move": "1@26", "instance": "prb33117", "distance_to_goal": "NA", "progress": "NA", "move_number": "8", "optimal_length": "14", "subject": "A214HWAW1PYWO8:34BBWHLWHBJ6SUL255PK30LEGY5IWG"}
{"meta_move": "drag_end", "rt": "472.0", "trial_number": "1", "pre_actions": "1", "move": "3@21", "instance": "prb33117", "distance_to_goal": "NA", "progress": "NA", "move_number": "9", "optimal_length": "14", "subject": "A214HWAW1PYWO8:34BBWHLWHBJ6SUL255PK30LEGY5IWG"}
{"meta_move": "drag_end", "rt": "539.0", "trial_number": "1", "pre_actions": "1", "move": "r@14", "instance": "prb33117", "distance_to_goal": "NA", "progress": "NA", "move_number": "10", "optimal_length": "14", "subject": "A214HWAW1PYWO8:34BBWHLWHBJ6SUL255PK30LEGY5IWG"}
{"meta_move": "drag_end", "rt": "515.0", "trial_number": "1", "pre_actions": "1", "move": "0@7", "instance": "prb33117", "distance_to_goal": "NA", "progress": "NA", "move_number": "11", "optimal_length": "14", "subject": "A214HWAW1PYWO8:34BBWHLWHBJ6SUL255PK30LEGY5IWG"}
{"meta_move": "drag_end", "rt": "879.0", "trial_number": "1", "pre_actions": "1", "move": "0@25", "instance": "prb33117", "distance_to_goal": "NA", "progress": "NA", "move_number": "12", "optimal_length": "14", "subject": "A214HWAW1PYWO8:34BBWHLWHBJ6SUL255PK30LEGY5IWG"}
{"meta_move": "drag_end", "rt": "499.0", "trial_number": "1", "pre_actions": "1", "move": "r@12", "instance": "prb33117", "distance_to_goal": "NA", "progress": "NA", "move_number": "13", "optimal_length": "14", "subject": "A214HWAW1PYWO8:34BBWHLWHBJ6SUL255PK30LEGY5IWG"}
{"meta_move": "drag_end", "rt": "7308.0", "trial_number": "2", "pre_actions": "1", "move": "2@0", "instance": "prb33117", "distance_to_goal": "NA", "progress": "NA", "move_number": "0", "optimal_length": "14", "subject": "A214HWAW1PYWO8:34BBWHLWHBJ6SUL255PK30LEGY5IWG"}
{"meta_move": "drag_end", "rt": "43171.0", "trial_number": "2", "pre_actions": "1", "move": "1@8", "instance": "prb33117", "distance_to_goal": "NA", "progress": "NA", "move_number": "1", "optimal_length": "14", "subject": "A214HWAW1PYWO8:34BBWHLWHBJ6SUL255PK30LEGY5IWG"}
{"meta_move": "drag_end", "rt": "744.0", "trial_number": "2", "pre_actions": "1", "move": "2@3", "instance": "prb33117", "distance_to_goal": "NA", "progress": "NA", "move_number": "2", "optimal_length": "14", "subject": "A214HWAW1PYWO8:34BBWHLWHBJ6SUL255PK30LEGY5IWG"}
{"meta_move": "drag_end", "rt": "882.0", "trial_number": "2", "pre_actions": "1", "move": "1@2", "instance": "prb33117", "distance_to_goal": "NA", "progress": "NA", "move_number": "3", "optimal_length": "14", "subject": "A214HWAW1PYWO8:34BBWHLWHBJ6SUL255PK30LEGY5IWG"}
{"meta_move": "drag_end", "rt": "1695.0", "trial_number": "2", "pre_actions": "1", "move": "4@28", "instance": "prb33117", "distance_to_goal": "NA", "progress": "NA", "move_number": "4", "optimal_length": "14", "subject": "A214HWAW1PYWO8:34BBWHLWHBJ6SUL255PK30LEGY5IWG"}
{"meta_move": "drag_end", "rt": "511.0", "trial_number": "2", "pre_actions": "1", "move": "3@21", "instance": "prb33117", "distance_to_goal": "NA", "progress": "NA", "move_number": "5", "optimal_length": "14", "subject": "A214HWAW1PYWO8:34BBWHLWHBJ6SUL255PK30LEGY5IWG"}
{"meta_move": "drag_end", "rt": "551.0", "trial_number": "2", "pre_actions": "1", "move": "r@14", "instance": "prb33117", "distance_to_goal": "NA", "progress": "NA", "move_number": "6", "optimal_length": "14", "subject": "A214HWAW1PYWO8:34BBWHLWHBJ6SUL255PK30LEGY5IWG"}
{"meta_move": "drag_end", "rt": "480.0", "trial_number": "2", "pre_actions": "1", "move": "0@1", "instance": "prb33117", "distance_to_goal": "NA", "progress": "NA", "move_number": "7", "optimal_length": "14", "subject": "A214HWAW1PYWO8:34BBWHLWHBJ6SUL255PK30LEGY5IWG"}
{"meta_move": "drag_end", "rt": "515.0", "trial_number": "2", "pre_actions": "1", "move": "r@12", "instance": "prb33117", "distance_to_goal": "NA", "progress": "NA", "move_number": "8", "optimal_length": "14", "subject": "A214HWAW1PYWO8:34BBWHLWHBJ6SUL255PK30LEGY5IWG"}
{"meta_move": "drag_end", "rt": "950.0", "trial_number": "2", "pre_actions": "1", "move": "3@9", "instance": "prb33117", "distance_to_goal": "NA", "progress": "NA", "move_number": "9", "optimal_length": "14", "subject": "A214HWAW1PYWO8:34BBWHLWHBJ6SUL255PK30LEGY5IWG"}
{"meta_move": "drag_end", "rt": "585.0", "trial_number": "2", "pre_actions": "1", "move": "4@24", "instance": "prb33117", "distance_to_goal": "NA", "progress": "NA", "move_number": "10", "optimal_length": "14", "subject": "A214HWAW1PYWO8:34BBWHLWHBJ6SUL255PK30LEGY5IWG"}
{"meta_move": "drag_end", "rt": "876.0", "trial_number": "2", "pre_actions": "1", "move": "3@21", "instance": "prb33117", "distance_to_goal": "NA", "progress": "NA", "move_number": "11", "optimal_length": "14", "subject": "A214HWAW1PYWO8:34BBWHLWHBJ6SUL255PK30LEGY5IWG"}
{"meta_move": "drag_end", "rt": "326.0", "trial_number": "2", "pre_actions": "1", "move": "5@22", "instance": "prb33117", "distance_to_goal": "NA", "progress": "NA", "move_number": "12", "optimal_length": "14", "subject": "A214HWAW1PYWO8:34BBWHLWHBJ6SUL255PK30LEGY5IWG"}
{"meta_move": "drag_end", "rt": "339.0", "trial_number": "2", "pre_actions": "1", "move": "7@29", "instance": "prb33117", "distance_to_goal": "NA", "progress": "NA", "move_number": "13", "optimal_length": "14", "subject": "A214HWAW1PYWO8:34BBWHLWHBJ6SUL255PK30LEGY5IWG"}
{"meta_move": "drag_end", "rt": "384.0", "trial_number": "2", "pre_actions": "1", "move": "r@16", "instance": "prb33117", "distance_to_goal": "NA", "progress": "NA", "move_number": "14", "optimal_length": "14", "subject": "A214HWAW1PYWO8:34BBWHLWHBJ6SUL255PK30LEGY5IWG"}
{"meta_move": "win", "rt": "1503.0", "trial_number": "2", "pre_actions": "1", "move": "r@16", "instance": "prb33117", "distance_to_goal": "1", "progress": "NA", "move_number": "15", "optimal_length": "14", "subject": "A214HWAW1PYWO8:34BBWHLWHBJ6SUL255PK30LEGY5IWG"}
{"meta_move": "drag_end", "rt": "212.0", "trial_number": "0", "pre_actions": "0", "move": "r@16", "instance": "prb33117", "distance_to_goal": "NA", "progress": "NA", "move_number": "15", "optimal_length": "14", "subject": "A214HWAW1PYWO8:34BBWHLWHBJ6SUL255PK30LEGY5IWG"}
{"meta_move": "drag_end", "rt": "2215.0", "trial_number": "1", "pre_actions": "1", "move": "1@14", "instance": "prb33117", "distance_to_goal": "NA", "progress": "NA", "move_number": "0", "optimal_length": "14", "subject": "A21S7MA9DCW95E:3X87C8JFV7JQ2BSCY8KSFD9F2ILSQK"}
{"meta_move": "drag_end", "rt": "840.0", "trial_number": "1", "pre_actions": "1", "move": "4@26", "instance": "prb33117", "distance_to_goal": "NA", "progress": "NA", "move_number": "0", "optimal_length": "14", "subject": "A21S7MA9DCW95E:3X87C8JFV7JQ2BSCY8KSFD9F2ILSQK"}
{"meta_move": "drag_end", "rt": "1122.0", "trial_number": "1", "pre_actions": "1", "move": "7@29", "instance": "prb33117", "distance_to_goal": "NA", "progress": "NA", "move_number": "1", "optimal_length": "14", "subject": "A21S7MA9DCW95E:3X87C8JFV7JQ2BSCY8KSFD9F2ILSQK"}
{"meta_move": "drag_end", "rt": "1403.0", "trial_number": "1", "pre_actions": "1", "move": "2@0", "instance": "prb33117", "distance_to_goal": "NA", "progress": "NA", "move_number": "2", "optimal_length": "14", "subject": "A21S7MA9DCW95E:3X87C8JFV7JQ2BSCY8KSFD9F2ILSQK"}
{"meta_move": "drag_end", "rt": "1574.0", "trial_number": "1", "pre_actions": "1", "move": "5@22", "instance": "prb33117", "distance_to_goal": "NA", "progress": "NA", "move_number": "3", "optimal_length": "14", "subject": "A21S7MA9DCW95E:3X87C8JFV7JQ2BSCY8KSFD9F2ILSQK"}
{"meta_move": "drag_end", "rt": "2533.0", "trial_number": "1", "pre_actions": "1", "move": "6@32", "instance": "prb33117", "distance_to_goal": "NA", "progress": "NA", "move_number": "4", "optimal_length": "14", "subject": "A21S7MA9DCW95E:3X87C8JFV7JQ2BSCY8KSFD9F2ILSQK"}
{"meta_move": "drag_end", "rt": "933.0", "trial_number": "1", "pre_actions": "1", "move": "0@25", "instance": "prb33117", "distance_to_goal": "NA", "progress": "NA", "move_number": "5", "optimal_length": "14", "subject": "A21S7MA9DCW95E:3X87C8JFV7JQ2BSCY8KSFD9F2ILSQK"}
{"meta_move": "drag_end", "rt": "1252.0", "trial_number": "1", "pre_actions": "1", "move": "1@8", "instance": "prb33117", "distance_to_goal": "NA", "progress": "NA", "move_number": "6", "optimal_length": "14", "subject": "A21S7MA9DCW95E:3X87C8JFV7JQ2BSCY8KSFD9F2ILSQK"}
{"meta_move": "drag_end", "rt": "1322.0", "trial_number": "1", "pre_actions": "1", "move": "3@3", "instance": "prb33117", "distance_to_goal": "NA", "progress": "NA", "move_number": "7", "optimal_length": "14", "subject": "A21S7MA9DCW95E:3X87C8JFV7JQ2BSCY8KSFD9F2ILSQK"}
{"meta_move": "drag_end", "rt": "4583.0", "trial_number": "1", "pre_actions": "1", "move": "0@19", "instance": "prb33117", "distance_to_goal": "NA", "progress": "NA", "move_number": "8", "optimal_length": "14", "subject": "A21S7MA9DCW95E:3X87C8JFV7JQ2BSCY8KSFD9F2ILSQK"}
{"meta_move": "drag_end", "rt": "3173.0", "trial_number": "1", "pre_actions": "1", "move": "5@4", "instance": "prb33117", "distance_to_goal": "NA", "progress": "NA", "move_number": "9", "optimal_length": "14", "subject": "A21S7MA9DCW95E:3X87C8JFV7JQ2BSCY8KSFD9F2ILSQK"}
{"meta_move": "drag_end", "rt": "2639.0", "trial_number": "1", "pre_actions": "1", "move": "7@5", "instance": "prb33117", "distance_to_goal": "NA", "progress": "NA", "move_number": "10", "optimal_length": "14", "subject": "A21S7MA9DCW95E:3X87C8JFV7JQ2BSCY8KSFD9F2ILSQK"}
{"meta_move": "drag_end", "rt": "1413.0", "trial_number": "1", "pre_actions": "1", "move": "4@28", "instance": "prb33117", "distance_to_goal": "NA", "progress": "NA", "move_number": "11", "optimal_length": "14", "subject": "A21S7MA9DCW95E:3X87C8JFV7JQ2BSCY8KSFD9F2ILSQK"}
{"meta_move": "drag_end", "rt": "1349.0", "trial_number": "1", "pre_actions": "1", "move": "6@34", "instance": "prb33117", "distance_to_goal": "NA", "progress": "NA", "move_number": "12", "optimal_length": "14", "subject": "A21S7MA9DCW95E:3X87C8JFV7JQ2BSCY8KSFD9F2ILSQK"}
{"meta_move": "drag_end", "rt": "1725.0", "trial_number": "1", "pre_actions": "1", "move": "1@26", "instance": "prb33117", "distance_to_goal": "NA", "progress": "NA", "move_number": "13", "optimal_length": "14", "subject": "A21S7MA9DCW95E:3X87C8JFV7JQ2BSCY8KSFD9F2ILSQK"}
{"meta_move": "drag_end", "rt": "925.0", "trial_number": "1", "pre_actions": "1", "move": "3@21", "instance": "prb33117", "distance_to_goal": "NA", "progress": "NA", "move_number": "14", "optimal_length": "14", "subject": "A21S7MA9DCW95E:3X87C8JFV7JQ2BSCY8KSFD9F2ILSQK"}
{"meta_move": "drag_end", "rt": "1777.0", "trial_number": "1", "pre_actions": "1", "move": "r@14", "instance": "prb33117", "distance_to_goal": "NA", "progress": "NA", "move_number": "15", "optimal_length": "14", "subject": "A21S7MA9DCW95E:3X87C8JFV7JQ2BSCY8KSFD9F2ILSQK"}
{"meta_move": "drag_end", "rt": "1531.0", "trial_number": "1", "pre_actions": "1", "move": "1@20", "instance": "prb33117", "distance_to_goal": "NA", "progress": "NA", "move_number": "16", "optimal_length": "14", "subject": "A21S7MA9DCW95E:3X87C8JFV7JQ2BSCY8KSFD9F2ILSQK"}
{"meta_move": "drag_end", "rt": "3281.0", "trial_number": "1", "pre_actions": "1", "move": "0@7", "instance": "prb33117", "distance_to_goal": "NA", "progress": "NA", "move_number": "17", "optimal_length": "14", "subject": "A21S7MA9DCW95E:3X87C8JFV7JQ2BSCY8KSFD9F2ILSQK"}
{"meta_move": "drag_end", "rt": "1355.0", "trial_number": "1", "pre_actions": "1", "move": "1@20", "instance": "prb33117", "distance_to_goal": "NA", "progress": "NA", "move_number": "18", "optimal_length": "14", "subject": "A21S7MA9DCW95E:3X87C8JFV7JQ2BSCY8KSFD9F2ILSQK"}
{"meta_move": "drag_end", "rt": "1603.0", "trial_number": "1", "pre_actions": "1", "move": "5@10", "instance": "prb33117", "distance_to_goal": "NA", "progress": "NA", "move_number": "18", "optimal_length": "14", "subject": "A21S7MA9DCW95E:3X87C8JFV7JQ2BSCY8KSFD9F2ILSQK"}
{"meta_move": "drag_end", "rt": "699.0", "trial_number": "1", "pre_actions": "1", "move": "7@17", "instance": "prb33117", "distance_to_goal": "NA", "progress": "NA", "move_number": "19", "optimal_length": "14", "subject": "A21S7MA9DCW95E:3X87C8JFV7JQ2BSCY8KSFD9F2ILSQK"}
{"meta_move": "drag_end", "rt": "1900.0", "trial_number": "1", "pre_actions": "1", "move": "5@4", "instance": "prb33117", "distance_to_goal": "NA", "progress": "NA", "move_number": "20", "optimal_length": "14", "subject": "A21S7MA9DCW95E:3X87C8JFV7JQ2BSCY8KSFD9F2ILSQK"}
{"meta_move": "drag_end", "rt": "3808.0", "trial_number": "2", "pre_actions": "1", "move": "1@26", "instance": "prb33117", "distance_to_goal": "NA", "progress": "NA", "move_number": "0", "optimal_length": "14", "subject": "A21S7MA9DCW95E:3X87C8JFV7JQ2BSCY8KSFD9F2ILSQK"}
{"meta_move": "drag_end", "rt": "1073.0", "trial_number": "2", "pre_actions": "1", "move": "2@0", "instance": "prb33117", "distance_to_goal": "NA", "progress": "NA", "move_number": "1", "optimal_length": "14", "subject": "A21S7MA9DCW95E:3X87C8JFV7JQ2BSCY8KSFD9F2ILSQK"}
{"meta_move": "drag_end", "rt": "3462.0", "trial_number": "2", "pre_actions": "1", "move": "7@5", "instance": "prb33117", "distance_to_goal": "NA", "progress": "NA", "move_number": "2", "optimal_length": "14", "subject": "A21S7MA9DCW95E:3X87C8JFV7JQ2BSCY8KSFD9F2ILSQK"}
{"meta_move": "drag_end", "rt": "1066.0", "trial_number": "2", "pre_actions": "1", "move": "5@4", "instance": "prb33117", "distance_to_goal": "NA", "progress": "NA", "move_number": "3", "optimal_length": "14", "subject": "A21S7MA9DCW95E:3X87C8JFV7JQ2BSCY8KSFD9F2ILSQK"}
{"meta_move": "drag_end", "rt": "823.0", "trial_number": "2", "pre_actions": "1", "move": "3@3", "instance": "prb33117", "distance_to_goal": "NA", "progress": "NA", "move_number": "4", "optimal_length": "14", "subject": "A21S7MA9DCW95E:3X87C8JFV7JQ2BSCY8KSFD9F2ILSQK"}
{"meta_move": "drag_end", "rt": "1150.0", "trial_number": "2", "pre_actions": "1", "move": "r@13", "instance": "prb33117", "distance_to_goal": "NA", "progress": "NA", "move_number": "5", "optimal_length": "14", "subject": "A21S7MA9DCW95E:3X87C8JFV7JQ2BSCY8KSFD9F2ILSQK"}
{"meta_move": "drag_end", "rt": "2420.0", "trial_number": "2", "pre_actions": "1", "move": "4@28", "instance": "prb33117", "distance_to_goal": "NA", "progress": "NA", "move_number": "6", "optimal_length": "14", "subject": "A21S7MA9DCW95E:3X87C8JFV7JQ2BSCY8KSFD9F2ILSQK"}
{"meta_move": "drag_end", "rt": "1732.0", "trial_number": "2", "pre_actions": "1", "move": "1@20", "instance": "prb33117", "distance_to_goal": "NA", "progress": "NA", "move_number": "7", "optimal_length": "14", "subject": "A21S7MA9DCW95E:3X87C8JFV7JQ2BSCY8KSFD9F2ILSQK"}
{"meta_move": "drag_end", "rt": "1539.0", "trial_number": "2", "pre_actions": "1", "move": "6@33", "instance": "prb33117", "distance_to_goal": "NA", "progress": "NA", "move_number": "8", "optimal_length": "14", "subject": "A21S7MA9DCW95E:3X87C8JFV7JQ2BSCY8KSFD9F2ILSQK"}
{"meta_move": "drag_end", "rt": "1285.0", "trial_number": "2", "pre_actions": "1", "move": "6@34", "instance": "prb33117", "distance_to_goal": "NA", "progress": "NA", "move_number": "9", "optimal_length": "14", "subject": "A21S7MA9DCW95E:3X87C8JFV7JQ2BSCY8KSFD9F2ILSQK"}
{"meta_move": "drag_end", "rt": "4442.0", "trial_number": "2", "pre_actions": "1", "move": "3@21", "instance": "prb33117", "distance_to_goal": "NA", "progress": "NA", "move_number": "10", "optimal_length": "14", "subject": "A21S7MA9DCW95E:3X87C8JFV7JQ2BSCY8KSFD9F2ILSQK"}
{"meta_move": "drag_end", "rt": "1496.0", "trial_number": "2", "pre_actions": "1", "move": "r@14", "instance": "prb33117", "distance_to_goal": "NA", "progress": "NA", "move_number": "11", "optimal_length": "14", "subject": "A21S7MA9DCW95E:3X87C8JFV7JQ2BSCY8KSFD9F2ILSQK"}
{"meta_move": "drag_end", "rt": "2745.0", "trial_number": "2", "pre_actions": "1", "move": "r@12", "instance": "prb33117", "distance_to_goal": "NA", "progress": "NA", "move_number": "12", "optimal_length": "14", "subject": "A21S7MA9DCW95E:3X87C8JFV7JQ2BSCY8KSFD9F2ILSQK"}
{"meta_move": "drag_end", "rt": "4349.0", "trial_number": "2", "pre_actions": "1", "move": "3@3", "instance": "prb33117", "distance_to_goal": "NA", "progress": "NA", "move_number": "13", "optimal_length": "14", "subject": "A21S7MA9DCW95E:3X87C8JFV7JQ2BSCY8KSFD9F2ILSQK"}
{"meta_move": "drag_end", "rt": "1283.0", "trial_number": "2", "pre_actions": "1", "move": "4@27", "instance": "prb33117", "distance_to_goal": "NA", "progress": "NA", "move_number": "14", "optimal_length": "14", "subject": "A21S7MA9DCW95E:3X87C8JFV7JQ2BSCY8KSFD9F2ILSQK"}
{"meta_move": "drag_end", "rt": "952.0", "trial_number": "2", "pre_actions": "1", "move": "6@32", "instance": "prb33117", "distance_to_goal": "NA", "progress": "NA", "move_number": "15", "optimal_length": "14", "subject": "A21S7MA9DCW95E:3X87C8JFV7JQ2BSCY8KSFD9F2ILSQK"}
{"meta_move": "drag_end", "rt": "3068.0", "trial_number": "2", "pre_actions": "1", "move": "7@29", "instance": "prb33117", "distance_to_goal": "NA", "progress": "NA", "move_number": "16", "optimal_length": "14", "subject": "A21S7MA9DCW95E:3X87C8JFV7JQ2BSCY8KSFD9F2ILSQK"}
{"meta_move": "drag_end", "rt": "2561.0", "trial_number": "2", "pre_actions": "1", "move": "1@8", "instance": "prb33117", "distance_to_goal": "NA", "progress": "NA", "move_number": "17", "optimal_length": "14", "subject": "A21S7MA9DCW95E:3X87C8JFV7JQ2BSCY8KSFD9F2ILSQK"}
{"meta_move": "drag_end", "rt": "826.0", "trial_number": "2", "pre_actions": "1", "move": "3@9", "instance": "prb33117", "distance_to_goal": "NA", "progress": "NA", "move_number": "18", "optimal_length": "14", "subject": "A21S7MA9DCW95E:3X87C8JFV7JQ2BSCY8KSFD9F2ILSQK"}
{"meta_move": "drag_end", "rt": "1096.0", "trial_number": "2", "pre_actions": "1", "move": "5@10", "instance": "prb33117", "distance_to_goal": "NA", "progress": "NA", "move_number": "19", "optimal_length": "14", "subject": "A21S7MA9DCW95E:3X87C8JFV7JQ2BSCY8KSFD9F2ILSQK"}
{"meta_move": "drag_end", "rt": "1149.0", "trial_number": "2", "pre_actions": "1", "move": "2@3", "instance": "prb33117", "distance_to_goal": "NA", "progress": "NA", "move_number": "20", "optimal_length": "14", "subject": "A21S7MA9DCW95E:3X87C8JFV7JQ2BSCY8KSFD9F2ILSQK"}
{"meta_move": "drag_end", "rt": "1591.0", "trial_number": "2", "pre_actions": "1", "move": "1@2", "instance": "prb33117", "distance_to_goal": "NA", "progress": "NA", "move_number": "21", "optimal_length": "14", "subject": "A21S7MA9DCW95E:3X87C8JFV7JQ2BSCY8KSFD9F2ILSQK"}
{"meta_move": "drag_end", "rt": "2018.0", "trial_number": "2", "pre_actions": "1", "move": "4@26", "instance": "prb33117", "distance_to_goal": "NA", "progress": "NA", "move_number": "22", "optimal_length": "14", "subject": "A21S7MA9DCW95E:3X87C8JFV7JQ2BSCY8KSFD9F2ILSQK"}
{"meta_move": "drag_end", "rt": "1462.0", "trial_number": "2", "pre_actions": "1", "move": "5@22", "instance": "prb33117", "distance_to_goal": "NA", "progress": "NA", "move_number": "23", "optimal_length": "14", "subject": "A21S7MA9DCW95E:3X87C8JFV7JQ2BSCY8KSFD9F2ILSQK"}
