{"meta_move": "drag_end", "rt": "16647.0", "trial_number": "2", "pre_actions": "1", "move": "7@33", "instance": "prb46580", "distance_to_goal": "NA", "progress": "NA", "move_number": "0", "optimal_length": "16", "subject": "A15781PHGW377Y:3YW4XOSQKRTI0K0Z2YPDTDJVFABU1I"}
{"meta_move": "drag_end", "rt": "17115.0", "trial_number": "2", "pre_actions": "1", "move": "7@34", "instance": "prb46580", "distance_to_goal": "NA", "progress": "NA", "move_number": "1", "optimal_length": "16", "subject": "A15781PHGW377Y:3YW4XOSQKRTI0K0Z2YPDTDJVFABU1I"}
{"meta_move": "drag_end", "rt": "2231.0", "trial_number": "2", "pre_actions": "1", "move": "3@9", "instance": "prb46580", "distance_to_goal": "NA", "progress": "NA", "move_number": "2", "optimal_length": "16", "subject": "A15781PHGW377Y:3YW4XOSQKRTI0K0Z2YPDTDJVFABU1I"}
{"meta_move": "drag_end", "rt": "1141.0", "trial_number": "2", "pre_actions": "1", "move": "2@16", "instance": "prb46580", "distance_to_goal": "NA", "progress": "NA", "move_number": "3", "optimal_length": "16", "subject": "A15781PHGW377Y:3YW4XOSQKRTI0K0Z2YPDTDJVFABU1I"}
{"meta_move": "drag_end", "rt": "3230.0", "trial_number": "2", "pre_actions": "1", "move": "5@28", "instance": "prb46580", "distance_to_goal": "NA", "progress": "NA", "move_number": "4", "optimal_length": "16", "subject": "A15781PHGW377Y:3YW4XOSQKRTI0K0Z2YPDTDJVFABU1I"}
{"meta_move": "drag_end", "rt": "1751.0", "trial_number": "2", "pre_actions": "1", "move": "6@20", "instance": "prb46580", "distance_to_goal": "NA", "progress": "NA", "move_number": "5", "optimal_length": "16", "subject": "A15781PHGW377Y:3YW4XOSQKRTI0K0Z2YPDTDJVFABU1I"}
{"meta_move": "drag_end", "rt": "1710.0", "trial_number": "2", "pre_actions": "1", "move": "3@21", "instance": "prb46580", "distance_to_goal": "NA", "progress": "NA", "move_number": "6", "optimal_length": "16", "subject": "A15781PHGW377Y:3YW4XOSQKRTI0K0Z2YPDTDJVFABU1I"}
{"meta_move": "drag_end", "rt": "1843.0", "trial_number": "2", "pre_actions": "1", "move": "4@2", "instance": "prb46580", "distance_to_goal": "NA", "progress": "NA", "move_number": "7", "optimal_length": "16", "subject": "A15781PHGW377Y:3YW4XOSQKRTI0K0Z2YPDTDJVFABU1I"}
{"meta_move": "drag_end", "rt": "1164.0", "trial_number": "2", "pre_actions": "1", "move": "2@4", "instance": "prb46580", "distance_to_goal": "NA", "progress": "NA", "move_number": "8", "optimal_length": "16", "subject": "A15781PHGW377Y:3YW4XOSQKRTI0K0Z2YPDTDJVFABU1I"}
{"meta_move": "drag_end", "rt": "643.0", "trial_number": "2", "pre_actions": "1", "move": "1@11", "instance": "prb46580", "distance_to_goal": "NA", "progress": "NA", "move_number": "9", "optimal_length": "16", "subject": "A15781PHGW377Y:3YW4XOSQKRTI0K0Z2YPDTDJVFABU1I"}
{"meta_move": "drag_end", "rt": "674.0", "trial_number": "2", "pre_actions": "1", "move": "1@5", "instance": "prb46580", "distance_to_goal": "NA", "progress": "NA", "move_number": "9", "optimal_length": "16", "subject": "A15781PHGW377Y:3YW4XOSQKRTI0K0Z2YPDTDJVFABU1I"}
{"meta_move": "drag_end", "rt": "3022.0", "trial_number": "2", "pre_actions": "1", "move": "r@15", "instance": "prb46580", "distance_to_goal": "NA", "progress": "NA", "move_number": "10", "optimal_length": "16", "subject": "A15781PHGW377Y:3YW4XOSQKRTI0K0Z2YPDTDJVFABU1I"}
{"meta_move": "drag_end", "rt": "1150.0", "trial_number": "2", "pre_actions": "1", "move": "6@8", "instance": "prb46580", "distance_to_goal": "NA", "progress": "NA", "move_number": "11", "optimal_length": "16", "subject": "A15781PHGW377Y:3YW4XOSQKRTI0K0Z2YPDTDJVFABU1I"}
{"meta_move": "drag_end", "rt": "3298.0", "trial_number": "2", "pre_actions": "1", "move": "6@20", "instance": "prb46580", "distance_to_goal": "NA", "progress": "NA", "move_number": "12", "optimal_length": "16", "subject": "A15781PHGW377Y:3YW4XOSQKRTI0K0Z2YPDTDJVFABU1I"}
{"meta_move": "drag_end", "rt": "3310.0", "trial_number": "2", "pre_actions": "1", "move": "r@12", "instance": "prb46580", "distance_to_goal": "NA", "progress": "NA", "move_number": "13", "optimal_length": "16", "subject": "A15781PHGW377Y:3YW4XOSQKRTI0K0Z2YPDTDJVFABU1I"}
{"meta_move": "drag_end", "rt": "1365.0", "trial_number": "2", "pre_actions": "1", "move": "6@8", "instance": "prb46580", "distance_to_goal": "NA", "progress": "NA", "move_number": "14", "optimal_length": "16", "subject": "A15781PHGW377Y:3YW4XOSQKRTI0K0Z2YPDTDJVFABU1I"}
{"meta_move": "drag_end", "rt": "1329.0", "trial_number": "2", "pre_actions": "1", "move": "3@9", "instance": "prb46580", "distance_to_goal": "NA", "progress": "NA", "move_number": "15", "optimal_length": "16", "subject": "A15781PHGW377Y:3YW4XOSQKRTI0K0Z2YPDTDJVFABU1I"}
{"meta_move": "drag_end", "rt": "1529.0", "trial_number": "2", "pre_actions": "1", "move": "7@30", "instance": "prb46580", "distance_to_goal": "NA", "progress": "NA", "move_number": "16", "optimal_length": "16", "subject": "A15781PHGW377Y:3YW4XOSQKRTI0K0Z2YPDTDJVFABU1I"}
{"meta_move": "drag_end", "rt": "1672.0", "trial_number": "2", "pre_actions": "1", "move": "6@20", "instance": "prb46580", "distance_to_goal": "NA", "progress": "NA", "move_number": "17", "optimal_length": "16", "subject": "A15781PHGW377Y:3YW4XOSQKRTI0K0Z2YPDTDJVFABU1I"}
{"meta_move": "drag_end", "rt": "814.0", "trial_number": "2", "pre_actions": "1", "move": "r@13", "instance": "prb46580", "distance_to_goal": "NA", "progress": "NA", "move_number": "18", "optimal_length": "16", "subject": "A15781PHGW377Y:3YW4XOSQKRTI0K0Z2YPDTDJVFABU1I"}
{"meta_move": "drag_end", "rt": "1026.0", "trial_number": "2", "pre_actions": "1", "move": "0@0", "instance": "prb46580", "distance_to_goal": "NA", "progress": "NA", "move_number": "19", "optimal_length": "16", "subject": "A15781PHGW377Y:3YW4XOSQKRTI0K0Z2YPDTDJVFABU1I"}
{"meta_move": "drag_end", "rt": "1083.0", "trial_number": "2", "pre_actions": "1", "move": "r@12", "instance": "prb46580", "distance_to_goal": "NA", "progress": "NA", "move_number": "20", "optimal_length": "16", "subject": "A15781PHGW377Y:3YW4XOSQKRTI0K0Z2YPDTDJVFABU1I"}
{"meta_move": "drag_end", "rt": "919.0", "trial_number": "2", "pre_actions": "1", "move": "6@8", "instance": "prb46580", "distance_to_goal": "NA", "progress": "NA", "move_number": "21", "optimal_length": "16", "subject": "A15781PHGW377Y:3YW4XOSQKRTI0K0Z2YPDTDJVFABU1I"}
{"meta_move": "drag_end", "rt": "1035.0", "trial_number": "2", "pre_actions": "1", "move": "5@24", "instance": "prb46580", "distance_to_goal": "NA", "progress": "NA", "move_number": "22", "optimal_length": "16", "subject": "A15781PHGW377Y:3YW4XOSQKRTI0K0Z2YPDTDJVFABU1I"}
{"meta_move": "drag_end", "rt": "873.0", "trial_number": "2", "pre_actions": "1", "move": "6@20", "instance": "prb46580", "distance_to_goal": "NA", "progress": "NA", "move_number": "23", "optimal_length": "16", "subject": "A15781PHGW377Y:3YW4XOSQKRTI0K0Z2YPDTDJVFABU1I"}
{"meta_move": "drag_end", "rt": "865.0", "trial_number": "2", "pre_actions": "1", "move": "3@21", "instance": "prb46580", "distance_to_goal": "NA", "progress": "NA", "move_number": "24", "optimal_length": "16", "subject": "A15781PHGW377Y:3YW4XOSQKRTI0K0Z2YPDTDJVFABU1I"}
{"meta_move": "drag_end", "rt": "1282.0", "trial_number": "2", "pre_actions": "1", "move": "1@23", "instance": "prb46580", "distance_to_goal": "NA", "progress": "NA", "move_number": "25", "optimal_length": "16", "subject": "A15781PHGW377Y:3YW4XOSQKRTI0K0Z2YPDTDJVFABU1I"}
{"meta_move": "win", "rt": "1011.0", "trial_number": "2", "pre_actions": "1", "move": "r@12", "instance": "prb46580", "distance_to_goal": "1", "progress": "NA", "move_number": "26", "optimal_length": "16", "subject": "A15781PHGW377Y:3YW4XOSQKRTI0K0Z2YPDTDJVFABU1I"}
{"meta_move": "drag_end", "rt": "217.0", "trial_number": "0", "pre_actions": "0", "move": "r@16", "instance": "prb46580", "distance_to_goal": "NA", "progress": "NA", "move_number": "26", "optimal_length": "16", "subject": "A15781PHGW377Y:3YW4XOSQKRTI0K0Z2YPDTDJVFABU1I"}
{"meta_move": "drag_end", "rt": "2253.0", "trial_number": "1", "pre_actions": "1", "move": "2@28", "instance": "prb46580", "distance_to_goal": "NA", "progress": "NA", "move_number": "0", "optimal_length": "16", "subject": "A15FXHC1CVNW31:3TS1AR6UQRM7SOIBWPBN8N9589Y7FV"}
{"meta_move": "drag_end", "rt": "479.0", "trial_number": "1", "pre_actions": "1", "move": "1@23", "instance": "prb46580", "distance_to_goal": "NA", "progress": "NA", "move_number": "1", "optimal_length": "16", "subject": "A15FXHC1CVNW31:3TS1AR6UQRM7SOIBWPBN8N9589Y7FV"}
{"meta_move": "drag_end", "rt": "1015.0", "trial_number": "1", "pre_actions": "1", "move": "4@4", "instance": "prb46580", "distance_to_goal": "NA", "progress": "NA", "move_number": "2", "optimal_length": "16", "subject": "A15FXHC1CVNW31:3TS1AR6UQRM7SOIBWPBN8N9589Y7FV"}
{"meta_move": "drag_end", "rt": "857.0", "trial_number": "1", "pre_actions": "1", "move": "3@3", "instance": "prb46580", "distance_to_goal": "NA", "progress": "NA", "move_number": "3", "optimal_length": "16", "subject": "A15FXHC1CVNW31:3TS1AR6UQRM7SOIBWPBN8N9589Y7FV"}
{"meta_move": "drag_end", "rt": "3149.0", "trial_number": "1", "pre_actions": "1", "move": "0@24", "instance": "prb46580", "distance_to_goal": "NA", "progress": "NA", "move_number": "4", "optimal_length": "16", "subject": "A15FXHC1CVNW31:3TS1AR6UQRM7SOIBWPBN8N9589Y7FV"}
{"meta_move": "drag_end", "rt": "2958.0", "trial_number": "1", "pre_actions": "1", "move": "3@3", "instance": "prb46580", "distance_to_goal": "NA", "progress": "NA", "move_number": "5", "optimal_length": "16", "subject": "A15FXHC1CVNW31:3TS1AR6UQRM7SOIBWPBN8N9589Y7FV"}
{"meta_move": "drag_end", "rt": "1513.0", "trial_number": "1", "pre_actions": "1", "move": "2@10", "instance": "prb46580", "distance_to_goal": "NA", "progress": "NA", "move_number": "5", "optimal_length": "16", "subject": "A15FXHC1CVNW31:3TS1AR6UQRM7SOIBWPBN8N9589Y7FV"}
{"meta_move": "drag_end", "rt": "567.0", "trial_number": "1", "pre_actions": "1", "move": "1@11", "instance": "prb46580", "distance_to_goal": "NA", "progress": "NA", "move_number": "6", "optimal_length": "16", "subject": "A15FXHC1CVNW31:3TS1AR6UQRM7SOIBWPBN8N9589Y7FV"}
{"meta_move": "drag_end", "rt": "671.0", "trial_number": "1", "pre_actions": "1", "move": "5@28", "instance": "prb46580", "distance_to_goal": "NA", "progress": "NA", "move_number": "7", "optimal_length": "16", "subject": "A15FXHC1CVNW31:3TS1AR6UQRM7SOIBWPBN8N9589Y7FV"}
{"meta_move": "drag_end", "rt": "637.0", "trial_number": "1", "pre_actions": "1", "move": "7@34", "instance": "prb46580", "distance_to_goal": "NA", "progress": "NA", "move_number": "8", "optimal_length": "16", "subject": "A15FXHC1CVNW31:3TS1AR6UQRM7SOIBWPBN8N9589Y7FV"}
{"meta_move": "drag_end", "rt": "1762.0", "trial_number": "1", "pre_actions": "1", "move": "0@18", "instance": "prb46580", "distance_to_goal": "NA", "progress": "NA", "move_number": "9", "optimal_length": "16", "subject": "A15FXHC1CVNW31:3TS1AR6UQRM7SOIBWPBN8N9589Y7FV"}
{"meta_move": "drag_end", "rt": "787.0", "trial_number": "1", "pre_actions": "1", "move": "6@20", "instance": "prb46580", "distance_to_goal": "NA", "progress": "NA", "move_number": "10", "optimal_length": "16", "subject": "A15FXHC1CVNW31:3TS1AR6UQRM7SOIBWPBN8N9589Y7FV"}
{"meta_move": "drag_end", "rt": "549.0", "trial_number": "1", "pre_actions": "1", "move": "3@21", "instance": "prb46580", "distance_to_goal": "NA", "progress": "NA", "move_number": "11", "optimal_length": "16", "subject": "A15FXHC1CVNW31:3TS1AR6UQRM7SOIBWPBN8N9589Y7FV"}
{"meta_move": "drag_end", "rt": "594.0", "trial_number": "1", "pre_actions": "1", "move": "r@14", "instance": "prb46580", "distance_to_goal": "NA", "progress": "NA", "move_number": "12", "optimal_length": "16", "subject": "A15FXHC1CVNW31:3TS1AR6UQRM7SOIBWPBN8N9589Y7FV"}
{"meta_move": "drag_end", "rt": "668.0", "trial_number": "1", "pre_actions": "1", "move": "0@0", "instance": "prb46580", "distance_to_goal": "NA", "progress": "NA", "move_number": "13", "optimal_length": "16", "subject": "A15FXHC1CVNW31:3TS1AR6UQRM7SOIBWPBN8N9589Y7FV"}
{"meta_move": "drag_end", "rt": "3529.0", "trial_number": "1", "pre_actions": "1", "move": "4@1", "instance": "prb46580", "distance_to_goal": "NA", "progress": "NA", "move_number": "14", "optimal_length": "16", "subject": "A15FXHC1CVNW31:3TS1AR6UQRM7SOIBWPBN8N9589Y7FV"}
{"meta_move": "drag_end", "rt": "1941.0", "trial_number": "1", "pre_actions": "1", "move": "2@4", "instance": "prb46580", "distance_to_goal": "NA", "progress": "NA", "move_number": "15", "optimal_length": "16", "subject": "A15FXHC1CVNW31:3TS1AR6UQRM7SOIBWPBN8N9589Y7FV"}
{"meta_move": "drag_end", "rt": "1255.0", "trial_number": "1", "pre_actions": "1", "move": "r@15", "instance": "prb46580", "distance_to_goal": "NA", "progress": "NA", "move_number": "16", "optimal_length": "16", "subject": "A15FXHC1CVNW31:3TS1AR6UQRM7SOIBWPBN8N9589Y7FV"}
{"meta_move": "drag_end", "rt": "869.0", "trial_number": "1", "pre_actions": "1", "move": "6@8", "instance": "prb46580", "distance_to_goal": "NA", "progress": "NA", "move_number": "17", "optimal_length": "16", "subject": "A15FXHC1CVNW31:3TS1AR6UQRM7SOIBWPBN8N9589Y7FV"}
{"meta_move": "drag_end", "rt": "2063.0", "trial_number": "1", "pre_actions": "1", "move": "6@20", "instance": "prb46580", "distance_to_goal": "NA", "progress": "NA", "move_number": "18", "optimal_length": "16", "subject": "A15FXHC1CVNW31:3TS1AR6UQRM7SOIBWPBN8N9589Y7FV"}
{"meta_move": "drag_end", "rt": "1275.0", "trial_number": "1", "pre_actions": "1", "move": "r@14", "instance": "prb46580", "distance_to_goal": "NA", "progress": "NA", "move_number": "19", "optimal_length": "16", "subject": "A15FXHC1CVNW31:3TS1AR6UQRM7SOIBWPBN8N9589Y7FV"}
{"meta_move": "drag_end", "rt": "655.0", "trial_number": "1", "pre_actions": "1", "move": "2@16", "instance": "prb46580", "distance_to_goal": "NA", "progress": "NA", "move_number": "20", "optimal_length": "16", "subject": "A15FXHC1CVNW31:3TS1AR6UQRM7SOIBWPBN8N9589Y7FV"}
{"meta_move": "drag_end", "rt": "1246.0", "trial_number": "1", "pre_actions": "1", "move": "4@4", "instance": "prb46580", "distance_to_goal": "NA", "progress": "NA", "move_number": "21", "optimal_length": "16", "subject": "A15FXHC1CVNW31:3TS1AR6UQRM7SOIBWPBN8N9589Y7FV"}
{"meta_move": "drag_end", "rt": "8281.0", "trial_number": "1", "pre_actions": "1", "move": "r@12", "instance": "prb46580", "distance_to_goal": "NA", "progress": "NA", "move_number": "22", "optimal_length": "16", "subject": "A15FXHC1CVNW31:3TS1AR6UQRM7SOIBWPBN8N9589Y7FV"}
{"meta_move": "drag_end", "rt": "660.0", "trial_number": "1", "pre_actions": "1", "move": "6@2", "instance": "prb46580", "distance_to_goal": "NA", "progress": "NA", "move_number": "23", "optimal_length": "16", "subject": "A15FXHC1CVNW31:3TS1AR6UQRM7SOIBWPBN8N9589Y7FV"}
{"meta_move": "drag_end", "rt": "673.0", "trial_number": "1", "pre_actions": "1", "move": "3@3", "instance": "prb46580", "distance_to_goal": "NA", "progress": "NA", "move_number": "24", "optimal_length": "16", "subject": "A15FXHC1CVNW31:3TS1AR6UQRM7SOIBWPBN8N9589Y7FV"}
{"meta_move": "drag_end", "rt": "750.0", "trial_number": "1", "pre_actions": "1", "move": "5@24", "instance": "prb46580", "distance_to_goal": "NA", "progress": "NA", "move_number": "25", "optimal_length": "16", "subject": "A15FXHC1CVNW31:3TS1AR6UQRM7SOIBWPBN8N9589Y7FV"}
{"meta_move": "drag_end", "rt": "684.0", "trial_number": "1", "pre_actions": "1", "move": "7@30", "instance": "prb46580", "distance_to_goal": "NA", "progress": "NA", "move_number": "26", "optimal_length": "16", "subject": "A15FXHC1CVNW31:3TS1AR6UQRM7SOIBWPBN8N9589Y7FV"}
{"meta_move": "drag_end", "rt": "636.0", "trial_number": "1", "pre_actions": "1", "move": "2@28", "instance": "prb46580", "distance_to_goal": "NA", "progress": "NA", "move_number": "27", "optimal_length": "16", "subject": "A15FXHC1CVNW31:3TS1AR6UQRM7SOIBWPBN8N9589Y7FV"}
{"meta_move": "drag_end", "rt": "432.0", "trial_number": "1", "pre_actions": "1", "move": "1@23", "instance": "prb46580", "distance_to_goal": "NA", "progress": "NA", "move_number": "28", "optimal_length": "16", "subject": "A15FXHC1CVNW31:3TS1AR6UQRM7SOIBWPBN8N9589Y7FV"}
{"meta_move": "drag_end", "rt": "591.0", "trial_number": "1", "pre_actions": "1", "move": "3@21", "instance": "prb46580", "distance_to_goal": "NA", "progress": "NA", "move_number": "29", "optimal_length": "16", "subject": "A15FXHC1CVNW31:3TS1AR6UQRM7SOIBWPBN8N9589Y7FV"}
{"meta_move": "drag_end", "rt": "624.0", "trial_number": "1", "pre_actions": "1", "move": "6@20", "instance": "prb46580", "distance_to_goal": "NA", "progress": "NA", "move_number": "30", "optimal_length": "16", "subject": "A15FXHC1CVNW31:3TS1AR6UQRM7SOIBWPBN8N9589Y7FV"}
{"meta_move": "win", "rt": "568.0", "trial_number": "1", "pre_actions": "1", "move": "r@12", "instance": "prb46580", "distance_to_goal": "1", "progress": "NA", "move_number": "31", "optimal_length": "16", "subject": "A15FXHC1CVNW31:3TS1AR6UQRM7SOIBWPBN8N9589Y7FV"}
{"meta_move": "drag_end", "rt": "156.0", "trial_number": "0", "pre_actions": "0", "move": "r@16", "instance": "prb46580", "distance_to_goal": "NA", "progress": "NA", "move_number": "31", "optimal_length": "16", "subject": "A15FXHC1CVNW31:3TS1AR6UQRM7SOIBWPBN8N9589Y7FV"}
{"meta_move": "drag_end", "rt": "9807.0", "trial_number": "2", "pre_actions": "1", "move": "7@30", "instance": "prb46580", "distance_to_goal": "NA", "progress": "NA", "move_number": "0", "optimal_length": "16", "subject": "A18QU0YQB6Q8DF:3VE8AYVF8N5BS2NU6U3TMN50JMNF8V"}
{"meta_move": "drag_end", "rt": "3329.0", "trial_number": "2", "pre_actions": "1", "move": "2@28", "instance": "prb46580", "distance_to_goal": "NA", "progress": "NA", "move_number": "1", "optimal_length": "16", "subject": "A18QU0YQB6Q8DF:3VE8AYVF8N5BS2NU6U3TMN50JMNF8V"}
{"meta_move": "drag_end", "rt": "872.0", "trial_number": "2", "pre_actions": "1", "move": "3@21", "instance": "prb46580", "distance_to_goal": "NA", "progress": "NA", "move_number": "2", "optimal_length": "16", "subject": "A18QU0YQB6Q8DF:3VE8AYVF8N5BS2NU6U3TMN50JMNF8V"}
{"meta_move": "drag_end", "rt": "1727.0", "trial_number": "2", "pre_actions": "1", "move": "4@4", "instance": "prb46580", "distance_to_goal": "NA", "progress": "NA", "move_number": "3", "optimal_length": "16", "subject": "A18QU0YQB6Q8DF:3VE8AYVF8N5BS2NU6U3TMN50JMNF8V"}
{"meta_move": "drag_end", "rt": "1391.0", "trial_number": "2", "pre_actions": "1", "move": "1@23", "instance": "prb46580", "distance_to_goal": "NA", "progress": "NA", "move_number": "4", "optimal_length": "16", "subject": "A18QU0YQB6Q8DF:3VE8AYVF8N5BS2NU6U3TMN50JMNF8V"}
{"meta_move": "drag_end", "rt": "1548.0", "trial_number": "2", "pre_actions": "1", "move": "5@25", "instance": "prb46580", "distance_to_goal": "NA", "progress": "NA", "move_number": "5", "optimal_length": "16", "subject": "A18QU0YQB6Q8DF:3VE8AYVF8N5BS2NU6U3TMN50JMNF8V"}
{"meta_move": "drag_end", "rt": "996.0", "trial_number": "2", "pre_actions": "1", "move": "6@8", "instance": "prb46580", "distance_to_goal": "NA", "progress": "NA", "move_number": "5", "optimal_length": "16", "subject": "A18QU0YQB6Q8DF:3VE8AYVF8N5BS2NU6U3TMN50JMNF8V"}
{"meta_move": "drag_end", "rt": "940.0", "trial_number": "2", "pre_actions": "1", "move": "6@2", "instance": "prb46580", "distance_to_goal": "NA", "progress": "NA", "move_number": "6", "optimal_length": "16", "subject": "A18QU0YQB6Q8DF:3VE8AYVF8N5BS2NU6U3TMN50JMNF8V"}
{"meta_move": "drag_end", "rt": "9469.0", "trial_number": "2", "pre_actions": "1", "move": "2@10", "instance": "prb46580", "distance_to_goal": "NA", "progress": "NA", "move_number": "7", "optimal_length": "16", "subject": "A18QU0YQB6Q8DF:3VE8AYVF8N5BS2NU6U3TMN50JMNF8V"}
{"meta_move": "drag_end", "rt": "1017.0", "trial_number": "2", "pre_actions": "1", "move": "3@3", "instance": "prb46580", "distance_to_goal": "NA", "progress": "NA", "move_number": "8", "optimal_length": "16", "subject": "A18QU0YQB6Q8DF:3VE8AYVF8N5BS2NU6U3TMN50JMNF8V"}
{"meta_move": "drag_end", "rt": "1322.0", "trial_number": "2", "pre_actions": "1", "move": "5@27", "instance": "prb46580", "distance_to_goal": "NA", "progress": "NA", "move_number": "9", "optimal_length": "16", "subject": "A18QU0YQB6Q8DF:3VE8AYVF8N5BS2NU6U3TMN50JMNF8V"}
{"meta_move": "drag_end", "rt": "1246.0", "trial_number": "2", "pre_actions": "1", "move": "6@20", "instance": "prb46580", "distance_to_goal": "NA", "progress": "NA", "move_number": "10", "optimal_length": "16", "subject": "A18QU0YQB6Q8DF:3VE8AYVF8N5BS2NU6U3TMN50JMNF8V"}
{"meta_move": "drag_end", "rt": "3392.0", "trial_number": "2", "pre_actions": "1", "move": "1@11", "instance": "prb46580", "distance_to_goal": "NA", "progress": "NA", "move_number": "11", "optimal_length": "16", "subject": "A18QU0YQB6Q8DF:3VE8AYVF8N5BS2NU6U3TMN50JMNF8V"}
{"meta_move": "drag_end", "rt": "918.0", "trial_number": "2", "pre_actions": "1", "move": "5@28", "instance": "prb46580", "distance_to_goal": "NA", "progress": "NA", "move_number": "12", "optimal_length": "16", "subject": "A18QU0YQB6Q8DF:3VE8AYVF8N5BS2NU6U3TMN50JMNF8V"}
{"meta_move": "drag_end", "rt": "1733.0", "trial_number": "2", "pre_actions": "1", "move": "3@21", "instance": "prb46580", "distance_to_goal": "NA", "progress": "NA", "move_number": "13", "optimal_length": "16", "subject": "A18QU0YQB6Q8DF:3VE8AYVF8N5BS2NU6U3TMN50JMNF8V"}
{"meta_move": "drag_end", "rt": "3214.0", "trial_number": "2", "pre_actions": "1", "move": "r@14", "instance": "prb46580", "distance_to_goal": "NA", "progress": "NA", "move_number": "14", "optimal_length": "16", "subject": "A18QU0YQB6Q8DF:3VE8AYVF8N5BS2NU6U3TMN50JMNF8V"}
{"meta_move": "drag_end", "rt": "1503.0", "trial_number": "2", "pre_actions": "1", "move": "0@0", "instance": "prb46580", "distance_to_goal": "NA", "progress": "NA", "move_number": "15", "optimal_length": "16", "subject": "A18QU0YQB6Q8DF:3VE8AYVF8N5BS2NU6U3TMN50JMNF8V"}
{"meta_move": "drag_end", "rt": "4757.0", "trial_number": "2", "pre_actions": "1", "move": "4@1", "instance": "prb46580", "distance_to_goal": "NA", "progress": "NA", "move_number": "16", "optimal_length": "16", "subject": "A18QU0YQB6Q8DF:3VE8AYVF8N5BS2NU6U3TMN50JMNF8V"}
{"meta_move": "drag_end", "rt": "1185.0", "trial_number": "2", "pre_actions": "1", "move": "2@4", "instance": "prb46580", "distance_to_goal": "NA", "progress": "NA", "move_number": "17", "optimal_length": "16", "subject": "A18QU0YQB6Q8DF:3VE8AYVF8N5BS2NU6U3TMN50JMNF8V"}
{"meta_move": "drag_end", "rt": "1103.0", "trial_number": "2", "pre_actions": "1", "move": "r@15", "instance": "prb46580", "distance_to_goal": "NA", "progress": "NA", "move_number": "18", "optimal_length": "16", "subject": "A18QU0YQB6Q8DF:3VE8AYVF8N5BS2NU6U3TMN50JMNF8V"}
{"meta_move": "drag_end", "rt": "2047.0", "trial_number": "2", "pre_actions": "1", "move": "6@8", "instance": "prb46580", "distance_to_goal": "NA", "progress": "NA", "move_number": "19", "optimal_length": "16", "subject": "A18QU0YQB6Q8DF:3VE8AYVF8N5BS2NU6U3TMN50JMNF8V"}
{"meta_move": "drag_end", "rt": "1821.0", "trial_number": "2", "pre_actions": "1", "move": "7@30", "instance": "prb46580", "distance_to_goal": "NA", "progress": "NA", "move_number": "20", "optimal_length": "16", "subject": "A18QU0YQB6Q8DF:3VE8AYVF8N5BS2NU6U3TMN50JMNF8V"}
{"meta_move": "drag_end", "rt": "1998.0", "trial_number": "2", "pre_actions": "1", "move": "1@5", "instance": "prb46580", "distance_to_goal": "NA", "progress": "NA", "move_number": "20", "optimal_length": "16", "subject": "A18QU0YQB6Q8DF:3VE8AYVF8N5BS2NU6U3TMN50JMNF8V"}
{"meta_move": "drag_end", "rt": "1402.0", "trial_number": "2", "pre_actions": "1", "move": "3@21", "instance": "prb46580", "distance_to_goal": "NA", "progress": "NA", "move_number": "21", "optimal_length": "16", "subject": "A18QU0YQB6Q8DF:3VE8AYVF8N5BS2NU6U3TMN50JMNF8V"}
{"meta_move": "drag_end", "rt": "2966.0", "trial_number": "1", "pre_actions": "1", "move": "2@10", "instance": "prb46580", "distance_to_goal": "NA", "progress": "NA", "move_number": "0", "optimal_length": "16", "subject": "A191V7PT3DQKDP:3PMBY0YE28B43VMUKKJ6EDF85RV9C8"}
{"meta_move": "drag_end", "rt": "496.0", "trial_number": "1", "pre_actions": "1", "move": "3@9", "instance": "prb46580", "distance_to_goal": "NA", "progress": "NA", "move_number": "1", "optimal_length": "16", "subject": "A191V7PT3DQKDP:3PMBY0YE28B43VMUKKJ6EDF85RV9C8"}
{"meta_move": "drag_end", "rt": "1089.0", "trial_number": "1", "pre_actions": "1", "move": "5@28", "instance": "prb46580", "distance_to_goal": "NA", "progress": "NA", "move_number": "2", "optimal_length": "16", "subject": "A191V7PT3DQKDP:3PMBY0YE28B43VMUKKJ6EDF85RV9C8"}
{"meta_move": "drag_end", "rt": "744.0", "trial_number": "1", "pre_actions": "1", "move": "7@30", "instance": "prb46580", "distance_to_goal": "NA", "progress": "NA", "move_number": "3", "optimal_length": "16", "subject": "A191V7PT3DQKDP:3PMBY0YE28B43VMUKKJ6EDF85RV9C8"}
{"meta_move": "drag_end", "rt": "953.0", "trial_number": "1", "pre_actions": "1", "move": "6@20", "instance": "prb46580", "distance_to_goal": "NA", "progress": "NA", "move_number": "4", "optimal_length": "16", "subject": "A191V7PT3DQKDP:3PMBY0YE28B43VMUKKJ6EDF85RV9C8"}
{"meta_move": "drag_end", "rt": "1567.0", "trial_number": "1", "pre_actions": "1", "move": "4@0", "instance": "prb46580", "distance_to_goal": "NA", "progress": "NA", "move_number": "5", "optimal_length": "16", "subject": "A191V7PT3DQKDP:3PMBY0YE28B43VMUKKJ6EDF85RV9C8"}
{"meta_move": "drag_end", "rt": "1207.0", "trial_number": "1", "pre_actions": "1", "move": "2@4", "instance": "prb46580", "distance_to_goal": "NA", "progress": "NA", "move_number": "6", "optimal_length": "16", "subject": "A191V7PT3DQKDP:3PMBY0YE28B43VMUKKJ6EDF85RV9C8"}
{"meta_move": "drag_end", "rt": "1544.0", "trial_number": "1", "pre_actions": "1", "move": "3@21", "instance": "prb46580", "distance_to_goal": "NA", "progress": "NA", "move_number": "7", "optimal_length": "16", "subject": "A191V7PT3DQKDP:3PMBY0YE28B43VMUKKJ6EDF85RV9C8"}
{"meta_move": "drag_end", "rt": "762.0", "trial_number": "1", "pre_actions": "1", "move": "r@14", "instance": "prb46580", "distance_to_goal": "NA", "progress": "NA", "move_number": "8", "optimal_length": "16", "subject": "A191V7PT3DQKDP:3PMBY0YE28B43VMUKKJ6EDF85RV9C8"}
{"meta_move": "drag_end", "rt": "923.0", "trial_number": "1", "pre_actions": "1", "move": "4@1", "instance": "prb46580", "distance_to_goal": "NA", "progress": "NA", "move_number": "9", "optimal_length": "16", "subject": "A191V7PT3DQKDP:3PMBY0YE28B43VMUKKJ6EDF85RV9C8"}
{"meta_move": "drag_end", "rt": "721.0", "trial_number": "1", "pre_actions": "1", "move": "0@0", "instance": "prb46580", "distance_to_goal": "NA", "progress": "NA", "move_number": "10", "optimal_length": "16", "subject": "A191V7PT3DQKDP:3PMBY0YE28B43VMUKKJ6EDF85RV9C8"}
{"meta_move": "drag_end", "rt": "665.0", "trial_number": "1", "pre_actions": "1", "move": "r@12", "instance": "prb46580", "distance_to_goal": "NA", "progress": "NA", "move_number": "11", "optimal_length": "16", "subject": "A191V7PT3DQKDP:3PMBY0YE28B43VMUKKJ6EDF85RV9C8"}
{"meta_move": "drag_end", "rt": "1183.0", "trial_number": "1", "pre_actions": "1", "move": "4@1", "instance": "prb46580", "distance_to_goal": "NA", "progress": "NA", "move_number": "12", "optimal_length": "16", "subject": "A191V7PT3DQKDP:3PMBY0YE28B43VMUKKJ6EDF85RV9C8"}
{"meta_move": "drag_end", "rt": "1030.0", "trial_number": "1", "pre_actions": "1", "move": "3@3", "instance": "prb46580", "distance_to_goal": "NA", "progress": "NA", "move_number": "12", "optimal_length": "16", "subject": "A191V7PT3DQKDP:3PMBY0YE28B43VMUKKJ6EDF85RV9C8"}
{"meta_move": "drag_end", "rt": "776.0", "trial_number": "1", "pre_actions": "1", "move": "6@8", "instance": "prb46580", "distance_to_goal": "NA", "progress": "NA", "move_number": "13", "optimal_length": "16", "subject": "A191V7PT3DQKDP:3PMBY0YE28B43VMUKKJ6EDF85RV9C8"}
{"meta_move": "drag_end", "rt": "706.0", "trial_number": "1", "pre_actions": "1", "move": "5@24", "instance": "prb46580", "distance_to_goal": "NA", "progress": "NA", "move_number": "14", "optimal_length": "16", "subject": "A191V7PT3DQKDP:3PMBY0YE28B43VMUKKJ6EDF85RV9C8"}
{"meta_move": "drag_end", "rt": "667.0", "trial_number": "1", "pre_actions": "1", "move": "6@20", "instance": "prb46580", "distance_to_goal": "NA", "progress": "NA", "move_number": "15", "optimal_length": "16", "subject": "A191V7PT3DQKDP:3PMBY0YE28B43VMUKKJ6EDF85RV9C8"}
{"meta_move": "drag_end", "rt": "628.0", "trial_number": "1", "pre_actions": "1", "move": "3@21", "instance": "prb46580", "distance_to_goal": "NA", "progress": "NA", "move_number": "16", "optimal_length": "16", "subject": "A191V7PT3DQKDP:3PMBY0YE28B43VMUKKJ6EDF85RV9C8"}
{"meta_move": "drag_end", "rt": "649.0", "trial_number": "1", "pre_actions": "1", "move": "1@23", "instance": "prb46580", "distance_to_goal": "NA", "progress": "NA", "move_number": "17", "optimal_length": "16", "subject": "A191V7PT3DQKDP:3PMBY0YE28B43VMUKKJ6EDF85RV9C8"}
{"meta_move": "win", "rt": "1017.0", "trial_number": "1", "pre_actions": "1", "move": "r@12", "instance": "prb46580", "distance_to_goal": "1", "progress": "NA", "move_number": "18", "optimal_length": "16", "subject": "A191V7PT3DQKDP:3PMBY0YE28B43VMUKKJ6EDF85RV9C8"}
{"meta_move": "drag_end", "rt": "221.0", "trial_number": "0", "pre_actions": "0", "move": "r@16", "instance": "prb46580", "distance_to_goal": "NA", "progress": "NA", "move_number": "18", "optimal_length": "16", "subject": "A191V7PT3DQKDP:3PMBY0YE28B43VMUKKJ6EDF85RV9C8"}
{"meta_move": "drag_end", "rt": "2276.0", "trial_number": "1", "pre_actions": "1", "move": "1@23", "instance": "prb46580", "distance_to_goal": "NA", "progress": "NA", "move_number": "0", "optimal_length": "16", "subject": "A1F4N58CAX8IMK:3TS1AR6UQRM7SOIBWPBN8N9589Y7FV"}
{"meta_move": "drag_end", "rt": "624.0", "trial_number": "1", "pre_actions": "1", "move": "2@28", "instance": "prb46580", "distance_to_goal": "NA", "progress": "NA", "move_number": "1", "optimal_length": "16", "subject": "A1F4N58CAX8IMK:3TS1AR6UQRM7SOIBWPBN8N9589Y7FV"}
{"meta_move": "drag_end", "rt": "1032.0", "trial_number": "1", "pre_actions": "1", "move": "4@4", "instance": "prb46580", "distance_to_goal": "NA", "progress": "NA", "move_number": "2", "optimal_length": "16", "subject": "A1F4N58CAX8IMK:3TS1AR6UQRM7SOIBWPBN8N9589Y7FV"}
{"meta_move": "drag_end", "rt": "856.0", "trial_number": "1", "pre_actions": "1", "move": "3@3", "instance": "prb46580", "distance_to_goal": "NA", "progress": "NA", "move_number": "3", "optimal_length": "16", "subject": "A1F4N58CAX8IMK:3TS1AR6UQRM7SOIBWPBN8N9589Y7FV"}
{"meta_move": "drag_end", "rt": "1248.0", "trial_number": "1", "pre_actions": "1", "move": "2@10", "instance": "prb46580", "distance_to_goal": "NA", "progress": "NA", "move_number": "4", "optimal_length": "16", "subject": "A1F4N58CAX8IMK:3TS1AR6UQRM7SOIBWPBN8N9589Y7FV"}
{"meta_move": "drag_end", "rt": "649.0", "trial_number": "1", "pre_actions": "1", "move": "5@27", "instance": "prb46580", "distance_to_goal": "NA", "progress": "NA", "move_number": "5", "optimal_length": "16", "subject": "A1F4N58CAX8IMK:3TS1AR6UQRM7SOIBWPBN8N9589Y7FV"}
{"meta_move": "drag_end", "rt": "727.0", "trial_number": "1", "pre_actions": "1", "move": "7@30", "instance": "prb46580", "distance_to_goal": "NA", "progress": "NA", "move_number": "6", "optimal_length": "16", "subject": "A1F4N58CAX8IMK:3TS1AR6UQRM7SOIBWPBN8N9589Y7FV"}
{"meta_move": "drag_end", "rt": "825.0", "trial_number": "1", "pre_actions": "1", "move": "6@20", "instance": "prb46580", "distance_to_goal": "NA", "progress": "NA", "move_number": "7", "optimal_length": "16", "subject": "A1F4N58CAX8IMK:3TS1AR6UQRM7SOIBWPBN8N9589Y7FV"}
{"meta_move": "drag_end", "rt": "912.0", "trial_number": "1", "pre_actions": "1", "move": "r@13", "instance": "prb46580", "distance_to_goal": "NA", "progress": "NA", "move_number": "8", "optimal_length": "16", "subject": "A1F4N58CAX8IMK:3TS1AR6UQRM7SOIBWPBN8N9589Y7FV"}
{"meta_move": "drag_end", "rt": "759.0", "trial_number": "1", "pre_actions": "1", "move": "0@0", "instance": "prb46580", "distance_to_goal": "NA", "progress": "NA", "move_number": "9", "optimal_length": "16", "subject": "A1F4N58CAX8IMK:3TS1AR6UQRM7SOIBWPBN8N9589Y7FV"}
{"meta_move": "drag_end", "rt": "1385.0", "trial_number": "1", "pre_actions": "1", "move": "1@23", "instance": "prb46580", "distance_to_goal": "NA", "progress": "NA", "move_number": "10", "optimal_length": "16", "subject": "A1F4N58CAX8IMK:3TS1AR6UQRM7SOIBWPBN8N9589Y7FV"}
{"meta_move": "drag_end", "rt": "1513.0", "trial_number": "1", "pre_actions": "1", "move": "6@20", "instance": "prb46580", "distance_to_goal": "NA", "progress": "NA", "move_number": "10", "optimal_length": "16", "subject": "A1F4N58CAX8IMK:3TS1AR6UQRM7SOIBWPBN8N9589Y7FV"}
{"meta_move": "drag_end", "rt": "854.0", "trial_number": "1", "pre_actions": "1", "move": "2@16", "instance": "prb46580", "distance_to_goal": "NA", "progress": "NA", "move_number": "10", "optimal_length": "16", "subject": "A1F4N58CAX8IMK:3TS1AR6UQRM7SOIBWPBN8N9589Y7FV"}
{"meta_move": "drag_end", "rt": "1617.0", "trial_number": "1", "pre_actions": "1", "move": "6@20", "instance": "prb46580", "distance_to_goal": "NA", "progress": "NA", "move_number": "11", "optimal_length": "16", "subject": "A1F4N58CAX8IMK:3TS1AR6UQRM7SOIBWPBN8N9589Y7FV"}
{"meta_move": "drag_end", "rt": "968.0", "trial_number": "1", "pre_actions": "1", "move": "3@9", "instance": "prb46580", "distance_to_goal": "NA", "progress": "NA", "move_number": "11", "optimal_length": "16", "subject": "A1F4N58CAX8IMK:3TS1AR6UQRM7SOIBWPBN8N9589Y7FV"}
{"meta_move": "drag_end", "rt": "1248.0", "trial_number": "1", "pre_actions": "1", "move": "7@30", "instance": "prb46580", "distance_to_goal": "NA", "progress": "NA", "move_number": "12", "optimal_length": "16", "subject": "A1F4N58CAX8IMK:3TS1AR6UQRM7SOIBWPBN8N9589Y7FV"}
{"meta_move": "drag_end", "rt": "911.0", "trial_number": "1", "pre_actions": "1", "move": "1@11", "instance": "prb46580", "distance_to_goal": "NA", "progress": "NA", "move_number": "12", "optimal_length": "16", "subject": "A1F4N58CAX8IMK:3TS1AR6UQRM7SOIBWPBN8N9589Y7FV"}
{"meta_move": "drag_end", "rt": "729.0", "trial_number": "1", "pre_actions": "1", "move": "5@28", "instance": "prb46580", "distance_to_goal": "NA", "progress": "NA", "move_number": "13", "optimal_length": "16", "subject": "A1F4N58CAX8IMK:3TS1AR6UQRM7SOIBWPBN8N9589Y7FV"}
{"meta_move": "drag_end", "rt": "1416.0", "trial_number": "1", "pre_actions": "1", "move": "3@21", "instance": "prb46580", "distance_to_goal": "NA", "progress": "NA", "move_number": "14", "optimal_length": "16", "subject": "A1F4N58CAX8IMK:3TS1AR6UQRM7SOIBWPBN8N9589Y7FV"}
{"meta_move": "drag_end", "rt": "935.0", "trial_number": "1", "pre_actions": "1", "move": "4@1", "instance": "prb46580", "distance_to_goal": "NA", "progress": "NA", "move_number": "15", "optimal_length": "16", "subject": "A1F4N58CAX8IMK:3TS1AR6UQRM7SOIBWPBN8N9589Y7FV"}
{"meta_move": "drag_end", "rt": "784.0", "trial_number": "1", "pre_actions": "1", "move": "2@4", "instance": "prb46580", "distance_to_goal": "NA", "progress": "NA", "move_number": "16", "optimal_length": "16", "subject": "A1F4N58CAX8IMK:3TS1AR6UQRM7SOIBWPBN8N9589Y7FV"}
{"meta_move": "drag_end", "rt": "816.0", "trial_number": "1", "pre_actions": "1", "move": "1@5", "instance": "prb46580", "distance_to_goal": "NA", "progress": "NA", "move_number": "17", "optimal_length": "16", "subject": "A1F4N58CAX8IMK:3TS1AR6UQRM7SOIBWPBN8N9589Y7FV"}
{"meta_move": "drag_end", "rt": "1160.0", "trial_number": "1", "pre_actions": "1", "move": "r@15", "instance": "prb46580", "distance_to_goal": "NA", "progress": "NA", "move_number": "18", "optimal_length": "16", "subject": "A1F4N58CAX8IMK:3TS1AR6UQRM7SOIBWPBN8N9589Y7FV"}
{"meta_move": "drag_end", "rt": "664.0", "trial_number": "1", "pre_actions": "1", "move": "6@8", "instance": "prb46580", "distance_to_goal": "NA", "progress": "NA", "move_number": "19", "optimal_length": "16", "subject": "A1F4N58CAX8IMK:3TS1AR6UQRM7SOIBWPBN8N9589Y7FV"}
{"meta_move": "drag_end", "rt": "1665.0", "trial_number": "1", "pre_actions": "1", "move": "3@21", "instance": "prb46580", "distance_to_goal": "NA", "progress": "NA", "move_number": "20", "optimal_length": "16", "subject": "A1F4N58CAX8IMK:3TS1AR6UQRM7SOIBWPBN8N9589Y7FV"}
{"meta_move": "drag_end", "rt": "1023.0", "trial_number": "1", "pre_actions": "1", "move": "7@31", "instance": "prb46580", "distance_to_goal": "NA", "progress": "NA", "move_number": "20", "optimal_length": "16", "subject": "A1F4N58CAX8IMK:3TS1AR6UQRM7SOIBWPBN8N9589Y7FV"}
{"meta_move": "drag_end", "rt": "912.0", "trial_number": "1", "pre_actions": "1", "move": "0@24", "instance": "prb46580", "distance_to_goal": "NA", "progress": "NA", "move_number": "21", "optimal_length": "16", "subject": "A1F4N58CAX8IMK:3TS1AR6UQRM7SOIBWPBN8N9589Y7FV"}
{"meta_move": "drag_end", "rt": "848.0", "trial_number": "1", "pre_actions": "1", "move": "4@0", "instance": "prb46580", "distance_to_goal": "NA", "progress": "NA", "move_number": "22", "optimal_length": "16", "subject": "A1F4N58CAX8IMK:3TS1AR6UQRM7SOIBWPBN8N9589Y7FV"}
{"meta_move": "drag_end", "rt": "696.0", "trial_number": "1", "pre_actions": "1", "move": "6@2", "instance": "prb46580", "distance_to_goal": "NA", "progress": "NA", "move_number": "23", "optimal_length": "16", "subject": "A1F4N58CAX8IMK:3TS1AR6UQRM7SOIBWPBN8N9589Y7FV"}
{"meta_move": "drag_end", "rt": "1890.0", "trial_number": "1", "pre_actions": "1", "move": "3@21", "instance": "prb46580", "distance_to_goal": "NA", "progress": "NA", "move_number": "24", "optimal_length": "16", "subject": "A1F4N58CAX8IMK:3TS1AR6UQRM7SOIBWPBN8N9589Y7FV"}
{"meta_move": "drag_end", "rt": "814.0", "trial_number": "1", "pre_actions": "1", "move": "2@4", "instance": "prb46580", "distance_to_goal": "NA", "progress": "NA", "move_number": "24", "optimal_length": "16", "subject": "A1F4N58CAX8IMK:3TS1AR6UQRM7SOIBWPBN8N9589Y7FV"}
{"meta_move": "drag_end", "rt": "584.0", "trial_number": "1", "pre_actions": "1", "move": "r@15", "instance": "prb46580", "distance_to_goal": "NA", "progress": "NA", "move_number": "24", "optimal_length": "16", "subject": "A1F4N58CAX8IMK:3TS1AR6UQRM7SOIBWPBN8N9589Y7FV"}
{"meta_move": "drag_end", "rt": "1416.0", "trial_number": "1", "pre_actions": "1", "move": "1@5", "instance": "prb46580", "distance_to_goal": "NA", "progress": "NA", "move_number": "24", "optimal_length": "16", "subject": "A1F4N58CAX8IMK:3TS1AR6UQRM7SOIBWPBN8N9589Y7FV"}
{"meta_move": "drag_end", "rt": "2728.0", "trial_number": "1", "pre_actions": "1", "move": "5@28", "instance": "prb46580", "distance_to_goal": "NA", "progress": "NA", "move_number": "24", "optimal_length": "16", "subject": "A1F4N58CAX8IMK:3TS1AR6UQRM7SOIBWPBN8N9589Y7FV"}
{"meta_move": "drag_end", "rt": "720.0", "trial_number": "1", "pre_actions": "1", "move": "7@31", "instance": "prb46580", "distance_to_goal": "NA", "progress": "NA", "move_number": "24", "optimal_length": "16", "subject": "A1F4N58CAX8IMK:3TS1AR6UQRM7SOIBWPBN8N9589Y7FV"}
{"meta_move": "drag_end", "rt": "569.0", "trial_number": "1", "pre_actions": "1", "move": "0@6", "instance": "prb46580", "distance_to_goal": "NA", "progress": "NA", "move_number": "24", "optimal_length": "16", "subject": "A1F4N58CAX8IMK:3TS1AR6UQRM7SOIBWPBN8N9589Y7FV"}
{"meta_move": "drag_end", "rt": "640.0", "trial_number": "1", "pre_actions": "1", "move": "7@30", "instance": "prb46580", "distance_to_goal": "NA", "progress": "NA", "move_number": "25", "optimal_length": "16", "subject": "A1F4N58CAX8IMK:3TS1AR6UQRM7SOIBWPBN8N9589Y7FV"}
{"meta_move": "drag_end", "rt": "727.0", "trial_number": "1", "pre_actions": "1", "move": "6@20", "instance": "prb46580", "distance_to_goal": "NA", "progress": "NA", "move_number": "26", "optimal_length": "16", "subject": "A1F4N58CAX8IMK:3TS1AR6UQRM7SOIBWPBN8N9589Y7FV"}
{"meta_move": "drag_end", "rt": "1256.0", "trial_number": "1", "pre_actions": "1", "move": "6@20", "instance": "prb46580", "distance_to_goal": "NA", "progress": "NA", "move_number": "27", "optimal_length": "16", "subject": "A1F4N58CAX8IMK:3TS1AR6UQRM7SOIBWPBN8N9589Y7FV"}
{"meta_move": "drag_end", "rt": "697.0", "trial_number": "1", "pre_actions": "1", "move": "r@13", "instance": "prb46580", "distance_to_goal": "NA", "progress": "NA", "move_number": "27", "optimal_length": "16", "subject": "A1F4N58CAX8IMK:3TS1AR6UQRM7SOIBWPBN8N9589Y7FV"}
{"meta_move": "drag_end", "rt": "839.0", "trial_number": "1", "pre_actions": "1", "move": "3@3", "instance": "prb46580", "distance_to_goal": "NA", "progress": "NA", "move_number": "28", "optimal_length": "16", "subject": "A1F4N58CAX8IMK:3TS1AR6UQRM7SOIBWPBN8N9589Y7FV"}
{"meta_move": "drag_end", "rt": "2297.0", "trial_number": "1", "pre_actions": "1", "move": "5@27", "instance": "prb46580", "distance_to_goal": "NA", "progress": "NA", "move_number": "29", "optimal_length": "16", "subject": "A1F4N58CAX8IMK:3TS1AR6UQRM7SOIBWPBN8N9589Y7FV"}
{"meta_move": "drag_end", "rt": "1624.0", "trial_number": "1", "pre_actions": "1", "move": "5@28", "instance": "prb46580", "distance_to_goal": "NA", "progress": "NA", "move_number": "30", "optimal_length": "16", "subject": "A1F4N58CAX8IMK:3TS1AR6UQRM7SOIBWPBN8N9589Y7FV"}
{"meta_move": "drag_end", "rt": "713.0", "trial_number": "1", "pre_actions": "1", "move": "6@20", "instance": "prb46580", "distance_to_goal": "NA", "progress": "NA", "move_number": "31", "optimal_length": "16", "subject": "A1F4N58CAX8IMK:3TS1AR6UQRM7SOIBWPBN8N9589Y7FV"}
{"meta_move": "drag_end", "rt": "479.0", "trial_number": "1", "pre_actions": "1", "move": "r@13", "instance": "prb46580", "distance_to_goal": "NA", "progress": "NA", "move_number": "31", "optimal_length": "16", "subject": "A1F4N58CAX8IMK:3TS1AR6UQRM7SOIBWPBN8N9589Y7FV"}
{"meta_move": "drag_end", "rt": "632.0", "trial_number": "1", "pre_actions": "1", "move": "3@21", "instance": "prb46580", "distance_to_goal": "NA", "progress": "NA", "move_number": "31", "optimal_length": "16", "subject": "A1F4N58CAX8IMK:3TS1AR6UQRM7SOIBWPBN8N9589Y7FV"}
{"meta_move": "drag_end", "rt": "727.0", "trial_number": "1", "pre_actions": "1", "move": "r@15", "instance": "prb46580", "distance_to_goal": "NA", "progress": "NA", "move_number": "32", "optimal_length": "16", "subject": "A1F4N58CAX8IMK:3TS1AR6UQRM7SOIBWPBN8N9589Y7FV"}
{"meta_move": "drag_end", "rt": "928.0", "trial_number": "1", "pre_actions": "1", "move": "6@2", "instance": "prb46580", "distance_to_goal": "NA", "progress": "NA", "move_number": "33", "optimal_length": "16", "subject": "A1F4N58CAX8IMK:3TS1AR6UQRM7SOIBWPBN8N9589Y7FV"}
{"meta_move": "drag_end", "rt": "2728.0", "trial_number": "1", "pre_actions": "1", "move": "5@28", "instance": "prb46580", "distance_to_goal": "NA", "progress": "NA", "move_number": "34", "optimal_length": "16", "subject": "A1F4N58CAX8IMK:3TS1AR6UQRM7SOIBWPBN8N9589Y7FV"}
{"meta_move": "drag_end", "rt": "648.0", "trial_number": "1", "pre_actions": "1", "move": "1@11", "instance": "prb46580", "distance_to_goal": "NA", "progress": "NA", "move_number": "34", "optimal_length": "16", "subject": "A1F4N58CAX8IMK:3TS1AR6UQRM7SOIBWPBN8N9589Y7FV"}
{"meta_move": "drag_end", "rt": "961.0", "trial_number": "1", "pre_actions": "1", "move": "3@21", "instance": "prb46580", "distance_to_goal": "NA", "progress": "NA", "move_number": "35", "optimal_length": "16", "subject": "A1F4N58CAX8IMK:3TS1AR6UQRM7SOIBWPBN8N9589Y7FV"}
{"meta_move": "drag_end", "rt": "519.0", "trial_number": "1", "pre_actions": "1", "move": "3@21", "instance": "prb46580", "distance_to_goal": "NA", "progress": "NA", "move_number": "35", "optimal_length": "16", "subject": "A1F4N58CAX8IMK:3TS1AR6UQRM7SOIBWPBN8N9589Y7FV"}
{"meta_move": "drag_end", "rt": "1153.0", "trial_number": "1", "pre_actions": "1", "move": "6@20", "instance": "prb46580", "distance_to_goal": "NA", "progress": "NA", "move_number": "35", "optimal_length": "16", "subject": "A1F4N58CAX8IMK:3TS1AR6UQRM7SOIBWPBN8N9589Y7FV"}
{"meta_move": "drag_end", "rt": "672.0", "trial_number": "1", "pre_actions": "1", "move": "r@13", "instance": "prb46580", "distance_to_goal": "NA", "progress": "NA", "move_number": "36", "optimal_length": "16", "subject": "A1F4N58CAX8IMK:3TS1AR6UQRM7SOIBWPBN8N9589Y7FV"}
{"meta_move": "drag_end", "rt": "1007.0", "trial_number": "1", "pre_actions": "1", "move": "3@3", "instance": "prb46580", "distance_to_goal": "NA", "progress": "NA", "move_number": "37", "optimal_length": "16", "subject": "A1F4N58CAX8IMK:3TS1AR6UQRM7SOIBWPBN8N9589Y7FV"}
{"meta_move": "drag_end", "rt": "1032.0", "trial_number": "1", "pre_actions": "1", "move": "5@27", "instance": "prb46580", "distance_to_goal": "NA", "progress": "NA", "move_number": "38", "optimal_length": "16", "subject": "A1F4N58CAX8IMK:3TS1AR6UQRM7SOIBWPBN8N9589Y7FV"}
{"meta_move": "drag_end", "rt": "4320.0", "trial_number": "1", "pre_actions": "1", "move": "3@9", "instance": "prb46580", "distance_to_goal": "NA", "progress": "NA", "move_number": "39", "optimal_length": "16", "subject": "A1F4N58CAX8IMK:3TS1AR6UQRM7SOIBWPBN8N9589Y7FV"}
{"meta_move": "drag_end", "rt": "961.0", "trial_number": "1", "pre_actions": "1", "move": "3@3", "instance": "prb46580", "distance_to_goal": "NA", "progress": "NA", "move_number": "40", "optimal_length": "16", "subject": "A1F4N58CAX8IMK:3TS1AR6UQRM7SOIBWPBN8N9589Y7FV"}
{"meta_move": "drag_end", "rt": "599.0", "trial_number": "1", "pre_actions": "1", "move": "5@28", "instance": "prb46580", "distance_to_goal": "NA", "progress": "NA", "move_number": "41", "optimal_length": "16", "subject": "A1F4N58CAX8IMK:3TS1AR6UQRM7SOIBWPBN8N9589Y7FV"}
{"meta_move": "drag_end", "rt": "953.0", "trial_number": "1", "pre_actions": "1", "move": "3@21", "instance": "prb46580", "distance_to_goal": "NA", "progress": "NA", "move_number": "42", "optimal_length": "16", "subject": "A1F4N58CAX8IMK:3TS1AR6UQRM7SOIBWPBN8N9589Y7FV"}
{"meta_move": "drag_end", "rt": "2407.0", "trial_number": "1", "pre_actions": "1", "move": "4@2", "instance": "prb46580", "distance_to_goal": "NA", "progress": "NA", "move_number": "43", "optimal_length": "16", "subject": "A1F4N58CAX8IMK:3TS1AR6UQRM7SOIBWPBN8N9589Y7FV"}
{"meta_move": "drag_end", "rt": "689.0", "trial_number": "1", "pre_actions": "1", "move": "0@0", "instance": "prb46580", "distance_to_goal": "NA", "progress": "NA", "move_number": "44", "optimal_length": "16", "subject": "A1F4N58CAX8IMK:3TS1AR6UQRM7SOIBWPBN8N9589Y7FV"}
{"meta_move": "drag_end", "rt": "638.0", "trial_number": "1", "pre_actions": "1", "move": "r@12", "instance": "prb46580", "distance_to_goal": "NA", "progress": "NA", "move_number": "45", "optimal_length": "16", "subject": "A1F4N58CAX8IMK:3TS1AR6UQRM7SOIBWPBN8N9589Y7FV"}
{"meta_move": "drag_end", "rt": "656.0", "trial_number": "1", "pre_actions": "1", "move": "4@1", "instance": "prb46580", "distance_to_goal": "NA", "progress": "NA", "move_number": "46", "optimal_length": "16", "subject": "A1F4N58CAX8IMK:3TS1AR6UQRM7SOIBWPBN8N9589Y7FV"}
{"meta_move": "drag_end", "rt": "960.0", "trial_number": "1", "pre_actions": "1", "move": "3@3", "instance": "prb46580", "distance_to_goal": "NA", "progress": "NA", "move_number": "47", "optimal_length": "16", "subject": "A1F4N58CAX8IMK:3TS1AR6UQRM7SOIBWPBN8N9589Y7FV"}
{"meta_move": "drag_end", "rt": "616.0", "trial_number": "1", "pre_actions": "1", "move": "6@8", "instance": "prb46580", "distance_to_goal": "NA", "progress": "NA", "move_number": "48", "optimal_length": "16", "subject": "A1F4N58CAX8IMK:3TS1AR6UQRM7SOIBWPBN8N9589Y7FV"}
{"meta_move": "drag_end", "rt": "872.0", "trial_number": "1", "pre_actions": "1", "move": "5@24", "instance": "prb46580", "distance_to_goal": "NA", "progress": "NA", "move_number": "49", "optimal_length": "16", "subject": "A1F4N58CAX8IMK:3TS1AR6UQRM7SOIBWPBN8N9589Y7FV"}
{"meta_move": "drag_end", "rt": "913.0", "trial_number": "1", "pre_actions": "1", "move": "6@20", "instance": "prb46580", "distance_to_goal": "NA", "progress": "NA", "move_number": "50", "optimal_length": "16", "subject": "A1F4N58CAX8IMK:3TS1AR6UQRM7SOIBWPBN8N9589Y7FV"}
{"meta_move": "drag_end", "rt": "745.0", "trial_number": "1", "pre_actions": "1", "move": "3@21", "instance": "prb46580", "distance_to_goal": "NA", "progress": "NA", "move_number": "51", "optimal_length": "16", "subject": "A1F4N58CAX8IMK:3TS1AR6UQRM7SOIBWPBN8N9589Y7FV"}
{"meta_move": "drag_end", "rt": "734.0", "trial_number": "1", "pre_actions": "1", "move": "1@23", "instance": "prb46580", "distance_to_goal": "NA", "progress": "NA", "move_number": "52", "optimal_length": "16", "subject": "A1F4N58CAX8IMK:3TS1AR6UQRM7SOIBWPBN8N9589Y7FV"}
{"meta_move": "win", "rt": "798.0", "trial_number": "1", "pre_actions": "1", "move": "r@12", "instance": "prb46580", "distance_to_goal": "1", "progress": "NA", "move_number": "53", "optimal_length": "16", "subject": "A1F4N58CAX8IMK:3TS1AR6UQRM7SOIBWPBN8N9589Y7FV"}
{"meta_move": "drag_end", "rt": "170.0", "trial_number": "0", "pre_actions": "0", "move": "r@16", "instance": "prb46580", "distance_to_goal": "NA", "progress": "NA", "move_number": "53", "optimal_length": "16", "subject": "A1F4N58CAX8IMK:3TS1AR6UQRM7SOIBWPBN8N9589Y7FV"}
{"meta_move": "drag_end", "rt": "2217.0", "trial_number": "1", "pre_actions": "1", "move": "2@22", "instance": "prb46580", "distance_to_goal": "NA", "progress": "NA", "move_number": "0", "optimal_length": "16", "subject": "A1LR0VQIHQUJAM:3YW4XOSQKRTI0K0Z2YPDTDJVFABU1I"}
{"meta_move": "drag_end", "rt": "538.0", "trial_number": "1", "pre_actions": "1", "move": "7@30", "instance": "prb46580", "distance_to_goal": "NA", "progress": "NA", "move_number": "0", "optimal_length": "16", "subject": "A1LR0VQIHQUJAM:3YW4XOSQKRTI0K0Z2YPDTDJVFABU1I"}
{"meta_move": "drag_end", "rt": "512.0", "trial_number": "1", "pre_actions": "1", "move": "2@28", "instance": "prb46580", "distance_to_goal": "NA", "progress": "NA", "move_number": "1", "optimal_length": "16", "subject": "A1LR0VQIHQUJAM:3YW4XOSQKRTI0K0Z2YPDTDJVFABU1I"}
{"meta_move": "drag_end", "rt": "403.0", "trial_number": "1", "pre_actions": "1", "move": "3@21", "instance": "prb46580", "distance_to_goal": "NA", "progress": "NA", "move_number": "2", "optimal_length": "16", "subject": "A1LR0VQIHQUJAM:3YW4XOSQKRTI0K0Z2YPDTDJVFABU1I"}
{"meta_move": "drag_end", "rt": "2050.0", "trial_number": "1", "pre_actions": "1", "move": "1@23", "instance": "prb46580", "distance_to_goal": "NA", "progress": "NA", "move_number": "3", "optimal_length": "16", "subject": "A1LR0VQIHQUJAM:3YW4XOSQKRTI0K0Z2YPDTDJVFABU1I"}
{"meta_move": "drag_end", "rt": "3261.0", "trial_number": "1", "pre_actions": "1", "move": "4@4", "instance": "prb46580", "distance_to_goal": "NA", "progress": "NA", "move_number": "4", "optimal_length": "16", "subject": "A1LR0VQIHQUJAM:3YW4XOSQKRTI0K0Z2YPDTDJVFABU1I"}
{"meta_move": "drag_end", "rt": "616.0", "trial_number": "1", "pre_actions": "1", "move": "3@3", "instance": "prb46580", "distance_to_goal": "NA", "progress": "NA", "move_number": "5", "optimal_length": "16", "subject": "A1LR0VQIHQUJAM:3YW4XOSQKRTI0K0Z2YPDTDJVFABU1I"}
{"meta_move": "drag_end", "rt": "789.0", "trial_number": "1", "pre_actions": "1", "move": "5@26", "instance": "prb46580", "distance_to_goal": "NA", "progress": "NA", "move_number": "6", "optimal_length": "16", "subject": "A1LR0VQIHQUJAM:3YW4XOSQKRTI0K0Z2YPDTDJVFABU1I"}
{"meta_move": "drag_end", "rt": "1423.0", "trial_number": "1", "pre_actions": "1", "move": "2@10", "instance": "prb46580", "distance_to_goal": "NA", "progress": "NA", "move_number": "7", "optimal_length": "16", "subject": "A1LR0VQIHQUJAM:3YW4XOSQKRTI0K0Z2YPDTDJVFABU1I"}
{"meta_move": "drag_end", "rt": "526.0", "trial_number": "1", "pre_actions": "1", "move": "5@27", "instance": "prb46580", "distance_to_goal": "NA", "progress": "NA", "move_number": "8", "optimal_length": "16", "subject": "A1LR0VQIHQUJAM:3YW4XOSQKRTI0K0Z2YPDTDJVFABU1I"}
{"meta_move": "drag_end", "rt": "622.0", "trial_number": "1", "pre_actions": "1", "move": "6@20", "instance": "prb46580", "distance_to_goal": "NA", "progress": "NA", "move_number": "9", "optimal_length": "16", "subject": "A1LR0VQIHQUJAM:3YW4XOSQKRTI0K0Z2YPDTDJVFABU1I"}
{"meta_move": "drag_end", "rt": "3110.0", "trial_number": "1", "pre_actions": "1", "move": "1@11", "instance": "prb46580", "distance_to_goal": "NA", "progress": "NA", "move_number": "10", "optimal_length": "16", "subject": "A1LR0VQIHQUJAM:3YW4XOSQKRTI0K0Z2YPDTDJVFABU1I"}
{"meta_move": "drag_end", "rt": "478.0", "trial_number": "1", "pre_actions": "1", "move": "5@28", "instance": "prb46580", "distance_to_goal": "NA", "progress": "NA", "move_number": "11", "optimal_length": "16", "subject": "A1LR0VQIHQUJAM:3YW4XOSQKRTI0K0Z2YPDTDJVFABU1I"}
{"meta_move": "drag_end", "rt": "706.0", "trial_number": "1", "pre_actions": "1", "move": "3@21", "instance": "prb46580", "distance_to_goal": "NA", "progress": "NA", "move_number": "12", "optimal_length": "16", "subject": "A1LR0VQIHQUJAM:3YW4XOSQKRTI0K0Z2YPDTDJVFABU1I"}
{"meta_move": "drag_end", "rt": "955.0", "trial_number": "1", "pre_actions": "1", "move": "2@10", "instance": "prb46580", "distance_to_goal": "NA", "progress": "NA", "move_number": "13", "optimal_length": "16", "subject": "A1LR0VQIHQUJAM:3YW4XOSQKRTI0K0Z2YPDTDJVFABU1I"}
{"meta_move": "drag_end", "rt": "617.0", "trial_number": "1", "pre_actions": "1", "move": "4@0", "instance": "prb46580", "distance_to_goal": "NA", "progress": "NA", "move_number": "13", "optimal_length": "16", "subject": "A1LR0VQIHQUJAM:3YW4XOSQKRTI0K0Z2YPDTDJVFABU1I"}
{"meta_move": "drag_end", "rt": "691.0", "trial_number": "1", "pre_actions": "1", "move": "1@5", "instance": "prb46580", "distance_to_goal": "NA", "progress": "NA", "move_number": "14", "optimal_length": "16", "subject": "A1LR0VQIHQUJAM:3YW4XOSQKRTI0K0Z2YPDTDJVFABU1I"}
{"meta_move": "drag_end", "rt": "4194.0", "trial_number": "1", "pre_actions": "1", "move": "2@4", "instance": "prb46580", "distance_to_goal": "NA", "progress": "NA", "move_number": "15", "optimal_length": "16", "subject": "A1LR0VQIHQUJAM:3YW4XOSQKRTI0K0Z2YPDTDJVFABU1I"}
{"meta_move": "drag_end", "rt": "3587.0", "trial_number": "1", "pre_actions": "1", "move": "r@15", "instance": "prb46580", "distance_to_goal": "NA", "progress": "NA", "move_number": "16", "optimal_length": "16", "subject": "A1LR0VQIHQUJAM:3YW4XOSQKRTI0K0Z2YPDTDJVFABU1I"}
{"meta_move": "drag_end", "rt": "610.0", "trial_number": "1", "pre_actions": "1", "move": "6@2", "instance": "prb46580", "distance_to_goal": "NA", "progress": "NA", "move_number": "17", "optimal_length": "16", "subject": "A1LR0VQIHQUJAM:3YW4XOSQKRTI0K0Z2YPDTDJVFABU1I"}
{"meta_move": "drag_end", "rt": "8216.0", "trial_number": "1", "pre_actions": "1", "move": "6@20", "instance": "prb46580", "distance_to_goal": "NA", "progress": "NA", "move_number": "18", "optimal_length": "16", "subject": "A1LR0VQIHQUJAM:3YW4XOSQKRTI0K0Z2YPDTDJVFABU1I"}
{"meta_move": "drag_end", "rt": "882.0", "trial_number": "1", "pre_actions": "1", "move": "r@14", "instance": "prb46580", "distance_to_goal": "NA", "progress": "NA", "move_number": "19", "optimal_length": "16", "subject": "A1LR0VQIHQUJAM:3YW4XOSQKRTI0K0Z2YPDTDJVFABU1I"}
{"meta_move": "drag_end", "rt": "5662.0", "trial_number": "1", "pre_actions": "1", "move": "2@4", "instance": "prb46580", "distance_to_goal": "NA", "progress": "NA", "move_number": "20", "optimal_length": "16", "subject": "A1LR0VQIHQUJAM:3YW4XOSQKRTI0K0Z2YPDTDJVFABU1I"}
{"meta_move": "drag_end", "rt": "1562.0", "trial_number": "1", "pre_actions": "1", "move": "r@12", "instance": "prb46580", "distance_to_goal": "NA", "progress": "NA", "move_number": "20", "optimal_length": "16", "subject": "A1LR0VQIHQUJAM:3YW4XOSQKRTI0K0Z2YPDTDJVFABU1I"}
{"meta_move": "drag_end", "rt": "2073.0", "trial_number": "1", "pre_actions": "1", "move": "3@3", "instance": "prb46580", "distance_to_goal": "NA", "progress": "NA", "move_number": "21", "optimal_length": "16", "subject": "A1LR0VQIHQUJAM:3YW4XOSQKRTI0K0Z2YPDTDJVFABU1I"}
{"meta_move": "drag_end", "rt": "2685.0", "trial_number": "1", "pre_actions": "1", "move": "5@27", "instance": "prb46580", "distance_to_goal": "NA", "progress": "NA", "move_number": "22", "optimal_length": "16", "subject": "A1LR0VQIHQUJAM:3YW4XOSQKRTI0K0Z2YPDTDJVFABU1I"}
{"meta_move": "drag_end", "rt": "536.0", "trial_number": "1", "pre_actions": "1", "move": "r@13", "instance": "prb46580", "distance_to_goal": "NA", "progress": "NA", "move_number": "23", "optimal_length": "16", "subject": "A1LR0VQIHQUJAM:3YW4XOSQKRTI0K0Z2YPDTDJVFABU1I"}
{"meta_move": "drag_end", "rt": "2643.0", "trial_number": "1", "pre_actions": "1", "move": "0@6", "instance": "prb46580", "distance_to_goal": "NA", "progress": "NA", "move_number": "24", "optimal_length": "16", "subject": "A1LR0VQIHQUJAM:3YW4XOSQKRTI0K0Z2YPDTDJVFABU1I"}
{"meta_move": "drag_end", "rt": "1845.0", "trial_number": "1", "pre_actions": "1", "move": "3@9", "instance": "prb46580", "distance_to_goal": "NA", "progress": "NA", "move_number": "25", "optimal_length": "16", "subject": "A1LR0VQIHQUJAM:3YW4XOSQKRTI0K0Z2YPDTDJVFABU1I"}
{"meta_move": "drag_end", "rt": "1276.0", "trial_number": "1", "pre_actions": "1", "move": "5@28", "instance": "prb46580", "distance_to_goal": "NA", "progress": "NA", "move_number": "26", "optimal_length": "16", "subject": "A1LR0VQIHQUJAM:3YW4XOSQKRTI0K0Z2YPDTDJVFABU1I"}
{"meta_move": "drag_end", "rt": "960.0", "trial_number": "1", "pre_actions": "1", "move": "3@21", "instance": "prb46580", "distance_to_goal": "NA", "progress": "NA", "move_number": "27", "optimal_length": "16", "subject": "A1LR0VQIHQUJAM:3YW4XOSQKRTI0K0Z2YPDTDJVFABU1I"}
{"meta_move": "drag_end", "rt": "2658.0", "trial_number": "1", "pre_actions": "1", "move": "r@15", "instance": "prb46580", "distance_to_goal": "NA", "progress": "NA", "move_number": "28", "optimal_length": "16", "subject": "A1LR0VQIHQUJAM:3YW4XOSQKRTI0K0Z2YPDTDJVFABU1I"}
{"meta_move": "drag_end", "rt": "1071.0", "trial_number": "1", "pre_actions": "1", "move": "6@2", "instance": "prb46580", "distance_to_goal": "NA", "progress": "NA", "move_number": "29", "optimal_length": "16", "subject": "A1LR0VQIHQUJAM:3YW4XOSQKRTI0K0Z2YPDTDJVFABU1I"}
{"meta_move": "drag_end", "rt": "1766.0", "trial_number": "1", "pre_actions": "1", "move": "6@20", "instance": "prb46580", "distance_to_goal": "NA", "progress": "NA", "move_number": "30", "optimal_length": "16", "subject": "A1LR0VQIHQUJAM:3YW4XOSQKRTI0K0Z2YPDTDJVFABU1I"}
{"meta_move": "drag_end", "rt": "794.0", "trial_number": "1", "pre_actions": "1", "move": "r@13", "instance": "prb46580", "distance_to_goal": "NA", "progress": "NA", "move_number": "31", "optimal_length": "16", "subject": "A1LR0VQIHQUJAM:3YW4XOSQKRTI0K0Z2YPDTDJVFABU1I"}
{"meta_move": "drag_end", "rt": "760.0", "trial_number": "1", "pre_actions": "1", "move": "3@3", "instance": "prb46580", "distance_to_goal": "NA", "progress": "NA", "move_number": "32", "optimal_length": "16", "subject": "A1LR0VQIHQUJAM:3YW4XOSQKRTI0K0Z2YPDTDJVFABU1I"}
{"meta_move": "drag_end", "rt": "1697.0", "trial_number": "1", "pre_actions": "1", "move": "5@27", "instance": "prb46580", "distance_to_goal": "NA", "progress": "NA", "move_number": "33", "optimal_length": "16", "subject": "A1LR0VQIHQUJAM:3YW4XOSQKRTI0K0Z2YPDTDJVFABU1I"}
{"meta_move": "drag_end", "rt": "7671.0", "trial_number": "1", "pre_actions": "1", "move": "5@27", "instance": "prb46580", "distance_to_goal": "NA", "progress": "NA", "move_number": "34", "optimal_length": "16", "subject": "A1LR0VQIHQUJAM:3YW4XOSQKRTI0K0Z2YPDTDJVFABU1I"}
{"meta_move": "drag_end", "rt": "629.0", "trial_number": "1", "pre_actions": "1", "move": "0@18", "instance": "prb46580", "distance_to_goal": "NA", "progress": "NA", "move_number": "34", "optimal_length": "16", "subject": "A1LR0VQIHQUJAM:3YW4XOSQKRTI0K0Z2YPDTDJVFABU1I"}
{"meta_move": "drag_end", "rt": "435.0", "trial_number": "1", "pre_actions": "1", "move": "r@12", "instance": "prb46580", "distance_to_goal": "NA", "progress": "NA", "move_number": "35", "optimal_length": "16", "subject": "A1LR0VQIHQUJAM:3YW4XOSQKRTI0K0Z2YPDTDJVFABU1I"}
{"meta_move": "drag_end", "rt": "480.0", "trial_number": "1", "pre_actions": "1", "move": "6@2", "instance": "prb46580", "distance_to_goal": "NA", "progress": "NA", "move_number": "36", "optimal_length": "16", "subject": "A1LR0VQIHQUJAM:3YW4XOSQKRTI0K0Z2YPDTDJVFABU1I"}
{"meta_move": "drag_end", "rt": "688.0", "trial_number": "1", "pre_actions": "1", "move": "5@25", "instance": "prb46580", "distance_to_goal": "NA", "progress": "NA", "move_number": "37", "optimal_length": "16", "subject": "A1LR0VQIHQUJAM:3YW4XOSQKRTI0K0Z2YPDTDJVFABU1I"}
{"meta_move": "drag_end", "rt": "807.0", "trial_number": "1", "pre_actions": "1", "move": "3@21", "instance": "prb46580", "distance_to_goal": "NA", "progress": "NA", "move_number": "38", "optimal_length": "16", "subject": "A1LR0VQIHQUJAM:3YW4XOSQKRTI0K0Z2YPDTDJVFABU1I"}
{"meta_move": "drag_end", "rt": "1641.0", "trial_number": "1", "pre_actions": "1", "move": "2@28", "instance": "prb46580", "distance_to_goal": "NA", "progress": "NA", "move_number": "39", "optimal_length": "16", "subject": "A1LR0VQIHQUJAM:3YW4XOSQKRTI0K0Z2YPDTDJVFABU1I"}
{"meta_move": "drag_end", "rt": "551.0", "trial_number": "1", "pre_actions": "1", "move": "1@23", "instance": "prb46580", "distance_to_goal": "NA", "progress": "NA", "move_number": "40", "optimal_length": "16", "subject": "A1LR0VQIHQUJAM:3YW4XOSQKRTI0K0Z2YPDTDJVFABU1I"}
{"meta_move": "drag_end", "rt": "798.0", "trial_number": "1", "pre_actions": "1", "move": "3@3", "instance": "prb46580", "distance_to_goal": "NA", "progress": "NA", "move_number": "41", "optimal_length": "16", "subject": "A1LR0VQIHQUJAM:3YW4XOSQKRTI0K0Z2YPDTDJVFABU1I"}
{"meta_move": "drag_end", "rt": "1504.0", "trial_number": "1", "pre_actions": "1", "move": "5@26", "instance": "prb46580", "distance_to_goal": "NA", "progress": "NA", "move_number": "42", "optimal_length": "16", "subject": "A1LR0VQIHQUJAM:3YW4XOSQKRTI0K0Z2YPDTDJVFABU1I"}
{"meta_move": "drag_end", "rt": "499.0", "trial_number": "1", "pre_actions": "1", "move": "2@4", "instance": "prb46580", "distance_to_goal": "NA", "progress": "NA", "move_number": "43", "optimal_length": "16", "subject": "A1LR0VQIHQUJAM:3YW4XOSQKRTI0K0Z2YPDTDJVFABU1I"}
{"meta_move": "drag_end", "rt": "504.0", "trial_number": "1", "pre_actions": "1", "move": "5@27", "instance": "prb46580", "distance_to_goal": "NA", "progress": "NA", "move_number": "44", "optimal_length": "16", "subject": "A1LR0VQIHQUJAM:3YW4XOSQKRTI0K0Z2YPDTDJVFABU1I"}
{"meta_move": "drag_end", "rt": "699.0", "trial_number": "1", "pre_actions": "1", "move": "6@20", "instance": "prb46580", "distance_to_goal": "NA", "progress": "NA", "move_number": "45", "optimal_length": "16", "subject": "A1LR0VQIHQUJAM:3YW4XOSQKRTI0K0Z2YPDTDJVFABU1I"}
{"meta_move": "drag_end", "rt": "6832.0", "trial_number": "1", "pre_actions": "1", "move": "6@2", "instance": "prb46580", "distance_to_goal": "NA", "progress": "NA", "move_number": "46", "optimal_length": "16", "subject": "A1LR0VQIHQUJAM:3YW4XOSQKRTI0K0Z2YPDTDJVFABU1I"}
{"meta_move": "drag_end", "rt": "1698.0", "trial_number": "1", "pre_actions": "1", "move": "5@25", "instance": "prb46580", "distance_to_goal": "NA", "progress": "NA", "move_number": "47", "optimal_length": "16", "subject": "A1LR0VQIHQUJAM:3YW4XOSQKRTI0K0Z2YPDTDJVFABU1I"}
{"meta_move": "drag_end", "rt": "715.0", "trial_number": "1", "pre_actions": "1", "move": "3@21", "instance": "prb46580", "distance_to_goal": "NA", "progress": "NA", "move_number": "48", "optimal_length": "16", "subject": "A1LR0VQIHQUJAM:3YW4XOSQKRTI0K0Z2YPDTDJVFABU1I"}
{"meta_move": "drag_end", "rt": "2078.0", "trial_number": "1", "pre_actions": "1", "move": "6@2", "instance": "prb46580", "distance_to_goal": "NA", "progress": "NA", "move_number": "49", "optimal_length": "16", "subject": "A1LR0VQIHQUJAM:3YW4XOSQKRTI0K0Z2YPDTDJVFABU1I"}
{"meta_move": "drag_end", "rt": "565.0", "trial_number": "1", "pre_actions": "1", "move": "3@3", "instance": "prb46580", "distance_to_goal": "NA", "progress": "NA", "move_number": "49", "optimal_length": "16", "subject": "A1LR0VQIHQUJAM:3YW4XOSQKRTI0K0Z2YPDTDJVFABU1I"}
{"meta_move": "drag_end", "rt": "1770.0", "trial_number": "1", "pre_actions": "1", "move": "5@27", "instance": "prb46580", "distance_to_goal": "NA", "progress": "NA", "move_number": "50", "optimal_length": "16", "subject": "A1LR0VQIHQUJAM:3YW4XOSQKRTI0K0Z2YPDTDJVFABU1I"}
{"meta_move": "drag_end", "rt": "586.0", "trial_number": "1", "pre_actions": "1", "move": "6@20", "instance": "prb46580", "distance_to_goal": "NA", "progress": "NA", "move_number": "51", "optimal_length": "16", "subject": "A1LR0VQIHQUJAM:3YW4XOSQKRTI0K0Z2YPDTDJVFABU1I"}
{"meta_move": "drag_end", "rt": "758.0", "trial_number": "1", "pre_actions": "1", "move": "r@13", "instance": "prb46580", "distance_to_goal": "NA", "progress": "NA", "move_number": "52", "optimal_length": "16", "subject": "A1LR0VQIHQUJAM:3YW4XOSQKRTI0K0Z2YPDTDJVFABU1I"}
{"meta_move": "drag_end", "rt": "768.0", "trial_number": "1", "pre_actions": "1", "move": "0@6", "instance": "prb46580", "distance_to_goal": "NA", "progress": "NA", "move_number": "53", "optimal_length": "16", "subject": "A1LR0VQIHQUJAM:3YW4XOSQKRTI0K0Z2YPDTDJVFABU1I"}
{"meta_move": "drag_end", "rt": "864.0", "trial_number": "1", "pre_actions": "1", "move": "4@1", "instance": "prb46580", "distance_to_goal": "NA", "progress": "NA", "move_number": "54", "optimal_length": "16", "subject": "A1LR0VQIHQUJAM:3YW4XOSQKRTI0K0Z2YPDTDJVFABU1I"}
{"meta_move": "drag_end", "rt": "453.0", "trial_number": "1", "pre_actions": "1", "move": "0@0", "instance": "prb46580", "distance_to_goal": "NA", "progress": "NA", "move_number": "55", "optimal_length": "16", "subject": "A1LR0VQIHQUJAM:3YW4XOSQKRTI0K0Z2YPDTDJVFABU1I"}
{"meta_move": "drag_end", "rt": "506.0", "trial_number": "1", "pre_actions": "1", "move": "r@12", "instance": "prb46580", "distance_to_goal": "NA", "progress": "NA", "move_number": "56", "optimal_length": "16", "subject": "A1LR0VQIHQUJAM:3YW4XOSQKRTI0K0Z2YPDTDJVFABU1I"}
{"meta_move": "drag_end", "rt": "681.0", "trial_number": "1", "pre_actions": "1", "move": "6@8", "instance": "prb46580", "distance_to_goal": "NA", "progress": "NA", "move_number": "57", "optimal_length": "16", "subject": "A1LR0VQIHQUJAM:3YW4XOSQKRTI0K0Z2YPDTDJVFABU1I"}
{"meta_move": "drag_end", "rt": "770.0", "trial_number": "1", "pre_actions": "1", "move": "5@24", "instance": "prb46580", "distance_to_goal": "NA", "progress": "NA", "move_number": "58", "optimal_length": "16", "subject": "A1LR0VQIHQUJAM:3YW4XOSQKRTI0K0Z2YPDTDJVFABU1I"}
{"meta_move": "drag_end", "rt": "554.0", "trial_number": "1", "pre_actions": "1", "move": "6@20", "instance": "prb46580", "distance_to_goal": "NA", "progress": "NA", "move_number": "59", "optimal_length": "16", "subject": "A1LR0VQIHQUJAM:3YW4XOSQKRTI0K0Z2YPDTDJVFABU1I"}
{"meta_move": "drag_end", "rt": "564.0", "trial_number": "1", "pre_actions": "1", "move": "3@21", "instance": "prb46580", "distance_to_goal": "NA", "progress": "NA", "move_number": "60", "optimal_length": "16", "subject": "A1LR0VQIHQUJAM:3YW4XOSQKRTI0K0Z2YPDTDJVFABU1I"}
{"meta_move": "win", "rt": "787.0", "trial_number": "1", "pre_actions": "1", "move": "r@12", "instance": "prb46580", "distance_to_goal": "1", "progress": "NA", "move_number": "61", "optimal_length": "16", "subject": "A1LR0VQIHQUJAM:3YW4XOSQKRTI0K0Z2YPDTDJVFABU1I"}
{"meta_move": "drag_end", "rt": "95.0", "trial_number": "0", "pre_actions": "0", "move": "r@16", "instance": "prb46580", "distance_to_goal": "NA", "progress": "NA", "move_number": "61", "optimal_length": "16", "subject": "A1LR0VQIHQUJAM:3YW4XOSQKRTI0K0Z2YPDTDJVFABU1I"}
{"meta_move": "drag_end", "rt": "7857.0", "trial_number": "1", "pre_actions": "1", "move": "1@23", "instance": "prb46580", "distance_to_goal": "NA", "progress": "NA", "move_number": "0", "optimal_length": "16", "subject": "A214HWAW1PYWO8:34BBWHLWHBJ6SUL255PK30LEGY5IWG"}
{"meta_move": "drag_end", "rt": "1509.0", "trial_number": "1", "pre_actions": "1", "move": "7@30", "instance": "prb46580", "distance_to_goal": "NA", "progress": "NA", "move_number": "1", "optimal_length": "16", "subject": "A214HWAW1PYWO8:34BBWHLWHBJ6SUL255PK30LEGY5IWG"}
{"meta_move": "drag_end", "rt": "663.0", "trial_number": "1", "pre_actions": "1", "move": "3@21", "instance": "prb46580", "distance_to_goal": "NA", "progress": "NA", "move_number": "2", "optimal_length": "16", "subject": "A214HWAW1PYWO8:34BBWHLWHBJ6SUL255PK30LEGY5IWG"}
{"meta_move": "drag_end", "rt": "1804.0", "trial_number": "1", "pre_actions": "1", "move": "3@21", "instance": "prb46580", "distance_to_goal": "NA", "progress": "NA", "move_number": "3", "optimal_length": "16", "subject": "A214HWAW1PYWO8:34BBWHLWHBJ6SUL255PK30LEGY5IWG"}
{"meta_move": "drag_end", "rt": "4229.0", "trial_number": "1", "pre_actions": "1", "move": "3@9", "instance": "prb46580", "distance_to_goal": "NA", "progress": "NA", "move_number": "3", "optimal_length": "16", "subject": "A214HWAW1PYWO8:34BBWHLWHBJ6SUL255PK30LEGY5IWG"}
{"meta_move": "drag_end", "rt": "598.0", "trial_number": "1", "pre_actions": "1", "move": "5@26", "instance": "prb46580", "distance_to_goal": "NA", "progress": "NA", "move_number": "4", "optimal_length": "16", "subject": "A214HWAW1PYWO8:34BBWHLWHBJ6SUL255PK30LEGY5IWG"}
{"meta_move": "drag_end", "rt": "2588.0", "trial_number": "1", "pre_actions": "1", "move": "6@8", "instance": "prb46580", "distance_to_goal": "NA", "progress": "NA", "move_number": "5", "optimal_length": "16", "subject": "A214HWAW1PYWO8:34BBWHLWHBJ6SUL255PK30LEGY5IWG"}
{"meta_move": "drag_end", "rt": "588.0", "trial_number": "1", "pre_actions": "1", "move": "5@25", "instance": "prb46580", "distance_to_goal": "NA", "progress": "NA", "move_number": "6", "optimal_length": "16", "subject": "A214HWAW1PYWO8:34BBWHLWHBJ6SUL255PK30LEGY5IWG"}
{"meta_move": "drag_end", "rt": "648.0", "trial_number": "1", "pre_actions": "1", "move": "3@21", "instance": "prb46580", "distance_to_goal": "NA", "progress": "NA", "move_number": "7", "optimal_length": "16", "subject": "A214HWAW1PYWO8:34BBWHLWHBJ6SUL255PK30LEGY5IWG"}
{"meta_move": "drag_end", "rt": "1312.0", "trial_number": "1", "pre_actions": "1", "move": "3@9", "instance": "prb46580", "distance_to_goal": "NA", "progress": "NA", "move_number": "8", "optimal_length": "16", "subject": "A214HWAW1PYWO8:34BBWHLWHBJ6SUL255PK30LEGY5IWG"}
{"meta_move": "drag_end", "rt": "427.0", "trial_number": "1", "pre_actions": "1", "move": "2@10", "instance": "prb46580", "distance_to_goal": "NA", "progress": "NA", "move_number": "9", "optimal_length": "16", "subject": "A214HWAW1PYWO8:34BBWHLWHBJ6SUL255PK30LEGY5IWG"}
{"meta_move": "drag_end", "rt": "583.0", "trial_number": "1", "pre_actions": "1", "move": "5@27", "instance": "prb46580", "distance_to_goal": "NA", "progress": "NA", "move_number": "10", "optimal_length": "16", "subject": "A214HWAW1PYWO8:34BBWHLWHBJ6SUL255PK30LEGY5IWG"}
{"meta_move": "drag_end", "rt": "582.0", "trial_number": "1", "pre_actions": "1", "move": "6@20", "instance": "prb46580", "distance_to_goal": "NA", "progress": "NA", "move_number": "11", "optimal_length": "16", "subject": "A214HWAW1PYWO8:34BBWHLWHBJ6SUL255PK30LEGY5IWG"}
{"meta_move": "drag_end", "rt": "430.0", "trial_number": "1", "pre_actions": "1", "move": "r@13", "instance": "prb46580", "distance_to_goal": "NA", "progress": "NA", "move_number": "12", "optimal_length": "16", "subject": "A214HWAW1PYWO8:34BBWHLWHBJ6SUL255PK30LEGY5IWG"}
{"meta_move": "drag_end", "rt": "591.0", "trial_number": "1", "pre_actions": "1", "move": "0@0", "instance": "prb46580", "distance_to_goal": "NA", "progress": "NA", "move_number": "13", "optimal_length": "16", "subject": "A214HWAW1PYWO8:34BBWHLWHBJ6SUL255PK30LEGY5IWG"}
{"meta_move": "drag_end", "rt": "447.0", "trial_number": "1", "pre_actions": "1", "move": "r@12", "instance": "prb46580", "distance_to_goal": "NA", "progress": "NA", "move_number": "14", "optimal_length": "16", "subject": "A214HWAW1PYWO8:34BBWHLWHBJ6SUL255PK30LEGY5IWG"}
{"meta_move": "drag_end", "rt": "502.0", "trial_number": "1", "pre_actions": "1", "move": "6@2", "instance": "prb46580", "distance_to_goal": "NA", "progress": "NA", "move_number": "15", "optimal_length": "16", "subject": "A214HWAW1PYWO8:34BBWHLWHBJ6SUL255PK30LEGY5IWG"}
{"meta_move": "drag_end", "rt": "579.0", "trial_number": "1", "pre_actions": "1", "move": "5@24", "instance": "prb46580", "distance_to_goal": "NA", "progress": "NA", "move_number": "16", "optimal_length": "16", "subject": "A214HWAW1PYWO8:34BBWHLWHBJ6SUL255PK30LEGY5IWG"}
{"meta_move": "drag_end", "rt": "542.0", "trial_number": "1", "pre_actions": "1", "move": "3@21", "instance": "prb46580", "distance_to_goal": "NA", "progress": "NA", "move_number": "17", "optimal_length": "16", "subject": "A214HWAW1PYWO8:34BBWHLWHBJ6SUL255PK30LEGY5IWG"}
{"meta_move": "drag_end", "rt": "378.0", "trial_number": "1", "pre_actions": "1", "move": "2@28", "instance": "prb46580", "distance_to_goal": "NA", "progress": "NA", "move_number": "18", "optimal_length": "16", "subject": "A214HWAW1PYWO8:34BBWHLWHBJ6SUL255PK30LEGY5IWG"}
{"meta_move": "drag_end", "rt": "412.0", "trial_number": "1", "pre_actions": "1", "move": "6@20", "instance": "prb46580", "distance_to_goal": "NA", "progress": "NA", "move_number": "19", "optimal_length": "16", "subject": "A214HWAW1PYWO8:34BBWHLWHBJ6SUL255PK30LEGY5IWG"}
{"meta_move": "win", "rt": "382.0", "trial_number": "1", "pre_actions": "1", "move": "r@12", "instance": "prb46580", "distance_to_goal": "1", "progress": "NA", "move_number": "20", "optimal_length": "16", "subject": "A214HWAW1PYWO8:34BBWHLWHBJ6SUL255PK30LEGY5IWG"}
{"meta_move": "drag_end", "rt": "62.0", "trial_number": "0", "pre_actions": "0", "move": "r@16", "instance": "prb46580", "distance_to_goal": "NA", "progress": "NA", "move_number": "20", "optimal_length": "16", "subject": "A214HWAW1PYWO8:34BBWHLWHBJ6SUL255PK30LEGY5IWG"}
{"meta_move": "drag_end", "rt": "3165.0", "trial_number": "1", "pre_actions": "1", "move": "1@23", "instance": "prb46580", "distance_to_goal": "NA", "progress": "NA", "move_number": "0", "optimal_length": "16", "subject": "A21S7MA9DCW95E:3X87C8JFV7JQ2BSCY8KSFD9F2ILSQK"}
{"meta_move": "drag_end", "rt": "1874.0", "trial_number": "1", "pre_actions": "1", "move": "6@8", "instance": "prb46580", "distance_to_goal": "NA", "progress": "NA", "move_number": "1", "optimal_length": "16", "subject": "A21S7MA9DCW95E:3X87C8JFV7JQ2BSCY8KSFD9F2ILSQK"}
{"meta_move": "drag_end", "rt": "1215.0", "trial_number": "1", "pre_actions": "1", "move": "4@0", "instance": "prb46580", "distance_to_goal": "NA", "progress": "NA", "move_number": "2", "optimal_length": "16", "subject": "A21S7MA9DCW95E:3X87C8JFV7JQ2BSCY8KSFD9F2ILSQK"}
{"meta_move": "drag_end", "rt": "890.0", "trial_number": "1", "pre_actions": "1", "move": "6@2", "instance": "prb46580", "distance_to_goal": "NA", "progress": "NA", "move_number": "3", "optimal_length": "16", "subject": "A21S7MA9DCW95E:3X87C8JFV7JQ2BSCY8KSFD9F2ILSQK"}
{"meta_move": "drag_end", "rt": "1443.0", "trial_number": "1", "pre_actions": "1", "move": "3@3", "instance": "prb46580", "distance_to_goal": "NA", "progress": "NA", "move_number": "4", "optimal_length": "16", "subject": "A21S7MA9DCW95E:3X87C8JFV7JQ2BSCY8KSFD9F2ILSQK"}
{"meta_move": "drag_end", "rt": "1413.0", "trial_number": "1", "pre_actions": "1", "move": "5@26", "instance": "prb46580", "distance_to_goal": "NA", "progress": "NA", "move_number": "5", "optimal_length": "16", "subject": "A21S7MA9DCW95E:3X87C8JFV7JQ2BSCY8KSFD9F2ILSQK"}
{"meta_move": "drag_end", "rt": "1365.0", "trial_number": "1", "pre_actions": "1", "move": "0@24", "instance": "prb46580", "distance_to_goal": "NA", "progress": "NA", "move_number": "6", "optimal_length": "16", "subject": "A21S7MA9DCW95E:3X87C8JFV7JQ2BSCY8KSFD9F2ILSQK"}
{"meta_move": "drag_end", "rt": "1469.0", "trial_number": "1", "pre_actions": "1", "move": "2@4", "instance": "prb46580", "distance_to_goal": "NA", "progress": "NA", "move_number": "7", "optimal_length": "16", "subject": "A21S7MA9DCW95E:3X87C8JFV7JQ2BSCY8KSFD9F2ILSQK"}
{"meta_move": "drag_end", "rt": "3138.0", "trial_number": "1", "pre_actions": "1", "move": "5@25", "instance": "prb46580", "distance_to_goal": "NA", "progress": "NA", "move_number": "8", "optimal_length": "16", "subject": "A21S7MA9DCW95E:3X87C8JFV7JQ2BSCY8KSFD9F2ILSQK"}
{"meta_move": "drag_end", "rt": "1517.0", "trial_number": "1", "pre_actions": "1", "move": "7@31", "instance": "prb46580", "distance_to_goal": "NA", "progress": "NA", "move_number": "9", "optimal_length": "16", "subject": "A21S7MA9DCW95E:3X87C8JFV7JQ2BSCY8KSFD9F2ILSQK"}
{"meta_move": "drag_end", "rt": "3141.0", "trial_number": "1", "pre_actions": "1", "move": "3@21", "instance": "prb46580", "distance_to_goal": "NA", "progress": "NA", "move_number": "10", "optimal_length": "16", "subject": "A21S7MA9DCW95E:3X87C8JFV7JQ2BSCY8KSFD9F2ILSQK"}
{"meta_move": "drag_end", "rt": "1714.0", "trial_number": "1", "pre_actions": "1", "move": "6@8", "instance": "prb46580", "distance_to_goal": "NA", "progress": "NA", "move_number": "11", "optimal_length": "16", "subject": "A21S7MA9DCW95E:3X87C8JFV7JQ2BSCY8KSFD9F2ILSQK"}
{"meta_move": "drag_end", "rt": "2267.0", "trial_number": "1", "pre_actions": "1", "move": "2@28", "instance": "prb46580", "distance_to_goal": "NA", "progress": "NA", "move_number": "12", "optimal_length": "16", "subject": "A21S7MA9DCW95E:3X87C8JFV7JQ2BSCY8KSFD9F2ILSQK"}
{"meta_move": "drag_end", "rt": "1697.0", "trial_number": "1", "pre_actions": "1", "move": "4@4", "instance": "prb46580", "distance_to_goal": "NA", "progress": "NA", "move_number": "13", "optimal_length": "16", "subject": "A21S7MA9DCW95E:3X87C8JFV7JQ2BSCY8KSFD9F2ILSQK"}
{"meta_move": "drag_end", "rt": "1592.0", "trial_number": "1", "pre_actions": "1", "move": "6@2", "instance": "prb46580", "distance_to_goal": "NA", "progress": "NA", "move_number": "14", "optimal_length": "16", "subject": "A21S7MA9DCW95E:3X87C8JFV7JQ2BSCY8KSFD9F2ILSQK"}
{"meta_move": "drag_end", "rt": "1238.0", "trial_number": "1", "pre_actions": "1", "move": "3@3", "instance": "prb46580", "distance_to_goal": "NA", "progress": "NA", "move_number": "15", "optimal_length": "16", "subject": "A21S7MA9DCW95E:3X87C8JFV7JQ2BSCY8KSFD9F2ILSQK"}
{"meta_move": "drag_end", "rt": "2040.0", "trial_number": "1", "pre_actions": "1", "move": "0@18", "instance": "prb46580", "distance_to_goal": "NA", "progress": "NA", "move_number": "16", "optimal_length": "16", "subject": "A21S7MA9DCW95E:3X87C8JFV7JQ2BSCY8KSFD9F2ILSQK"}
{"meta_move": "drag_end", "rt": "4571.0", "trial_number": "1", "pre_actions": "1", "move": "2@10", "instance": "prb46580", "distance_to_goal": "NA", "progress": "NA", "move_number": "17", "optimal_length": "16", "subject": "A21S7MA9DCW95E:3X87C8JFV7JQ2BSCY8KSFD9F2ILSQK"}
{"meta_move": "drag_end", "rt": "1542.0", "trial_number": "1", "pre_actions": "1", "move": "5@27", "instance": "prb46580", "distance_to_goal": "NA", "progress": "NA", "move_number": "18", "optimal_length": "16", "subject": "A21S7MA9DCW95E:3X87C8JFV7JQ2BSCY8KSFD9F2ILSQK"}
{"meta_move": "drag_end", "rt": "904.0", "trial_number": "1", "pre_actions": "1", "move": "7@33", "instance": "prb46580", "distance_to_goal": "NA", "progress": "NA", "move_number": "19", "optimal_length": "16", "subject": "A21S7MA9DCW95E:3X87C8JFV7JQ2BSCY8KSFD9F2ILSQK"}
{"meta_move": "drag_end", "rt": "1301.0", "trial_number": "1", "pre_actions": "1", "move": "6@20", "instance": "prb46580", "distance_to_goal": "NA", "progress": "NA", "move_number": "20", "optimal_length": "16", "subject": "A21S7MA9DCW95E:3X87C8JFV7JQ2BSCY8KSFD9F2ILSQK"}
{"meta_move": "drag_end", "rt": "1047.0", "trial_number": "1", "pre_actions": "1", "move": "r@13", "instance": "prb46580", "distance_to_goal": "NA", "progress": "NA", "move_number": "21", "optimal_length": "16", "subject": "A21S7MA9DCW95E:3X87C8JFV7JQ2BSCY8KSFD9F2ILSQK"}
{"meta_move": "drag_end", "rt": "1652.0", "trial_number": "1", "pre_actions": "1", "move": "0@0", "instance": "prb46580", "distance_to_goal": "NA", "progress": "NA", "move_number": "22", "optimal_length": "16", "subject": "A21S7MA9DCW95E:3X87C8JFV7JQ2BSCY8KSFD9F2ILSQK"}
{"meta_move": "drag_end", "rt": "848.0", "trial_number": "1", "pre_actions": "1", "move": "r@12", "instance": "prb46580", "distance_to_goal": "NA", "progress": "NA", "move_number": "23", "optimal_length": "16", "subject": "A21S7MA9DCW95E:3X87C8JFV7JQ2BSCY8KSFD9F2ILSQK"}
{"meta_move": "drag_end", "rt": "971.0", "trial_number": "1", "pre_actions": "1", "move": "6@2", "instance": "prb46580", "distance_to_goal": "NA", "progress": "NA", "move_number": "24", "optimal_length": "16", "subject": "A21S7MA9DCW95E:3X87C8JFV7JQ2BSCY8KSFD9F2ILSQK"}
{"meta_move": "drag_end", "rt": "1071.0", "trial_number": "1", "pre_actions": "1", "move": "5@24", "instance": "prb46580", "distance_to_goal": "NA", "progress": "NA", "move_number": "25", "optimal_length": "16", "subject": "A21S7MA9DCW95E:3X87C8JFV7JQ2BSCY8KSFD9F2ILSQK"}
{"meta_move": "drag_end", "rt": "1157.0", "trial_number": "1", "pre_actions": "1", "move": "7@30", "instance": "prb46580", "distance_to_goal": "NA", "progress": "NA", "move_number": "26", "optimal_length": "16", "subject": "A21S7MA9DCW95E:3X87C8JFV7JQ2BSCY8KSFD9F2ILSQK"}
{"meta_move": "drag_end", "rt": "1784.0", "trial_number": "1", "pre_actions": "1", "move": "6@20", "instance": "prb46580", "distance_to_goal": "NA", "progress": "NA", "move_number": "27", "optimal_length": "16", "subject": "A21S7MA9DCW95E:3X87C8JFV7JQ2BSCY8KSFD9F2ILSQK"}
{"meta_move": "drag_end", "rt": "986.0", "trial_number": "1", "pre_actions": "1", "move": "3@21", "instance": "prb46580", "distance_to_goal": "NA", "progress": "NA", "move_number": "28", "optimal_length": "16", "subject": "A21S7MA9DCW95E:3X87C8JFV7JQ2BSCY8KSFD9F2ILSQK"}
{"meta_move": "drag_end", "rt": "904.0", "trial_number": "1", "pre_actions": "1", "move": "2@28", "instance": "prb46580", "distance_to_goal": "NA", "progress": "NA", "move_number": "29", "optimal_length": "16", "subject": "A21S7MA9DCW95E:3X87C8JFV7JQ2BSCY8KSFD9F2ILSQK"}
{"meta_move": "win", "rt": "1548.0", "trial_number": "1", "pre_actions": "1", "move": "r@12", "instance": "prb46580", "distance_to_goal": "1", "progress": "NA", "move_number": "30", "optimal_length": "16", "subject": "A21S7MA9DCW95E:3X87C8JFV7JQ2BSCY8KSFD9F2ILSQK"}
{"meta_move": "drag_end", "rt": "204.0", "trial_number": "0", "pre_actions": "0", "move": "r@16", "instance": "prb46580", "distance_to_goal": "NA", "progress": "NA", "move_number": "30", "optimal_length": "16", "subject": "A21S7MA9DCW95E:3X87C8JFV7JQ2BSCY8KSFD9F2ILSQK"}
{"meta_move": "drag_end", "rt": "10689.0", "trial_number": "3", "pre_actions": "1", "move": "6@8", "instance": "prb46580", "distance_to_goal": "NA", "progress": "NA", "move_number": "0", "optimal_length": "16", "subject": "A23437BMZ5T1FH:3IHR8NYAM89M0EPM8U9LH53ZJDTP4U"}
{"meta_move": "drag_end", "rt": "669.0", "trial_number": "3", "pre_actions": "1", "move": "4@0", "instance": "prb46580", "distance_to_goal": "NA", "progress": "NA", "move_number": "1", "optimal_length": "16", "subject": "A23437BMZ5T1FH:3IHR8NYAM89M0EPM8U9LH53ZJDTP4U"}
{"meta_move": "drag_end", "rt": "967.0", "trial_number": "3", "pre_actions": "1", "move": "6@2", "instance": "prb46580", "distance_to_goal": "NA", "progress": "NA", "move_number": "2", "optimal_length": "16", "subject": "A23437BMZ5T1FH:3IHR8NYAM89M0EPM8U9LH53ZJDTP4U"}
{"meta_move": "drag_end", "rt": "706.0", "trial_number": "3", "pre_actions": "1", "move": "3@3", "instance": "prb46580", "distance_to_goal": "NA", "progress": "NA", "move_number": "3", "optimal_length": "16", "subject": "A23437BMZ5T1FH:3IHR8NYAM89M0EPM8U9LH53ZJDTP4U"}
{"meta_move": "drag_end", "rt": "798.0", "trial_number": "3", "pre_actions": "1", "move": "7@30", "instance": "prb46580", "distance_to_goal": "NA", "progress": "NA", "move_number": "4", "optimal_length": "16", "subject": "A23437BMZ5T1FH:3IHR8NYAM89M0EPM8U9LH53ZJDTP4U"}
{"meta_move": "drag_end", "rt": "1512.0", "trial_number": "3", "pre_actions": "1", "move": "5@25", "instance": "prb46580", "distance_to_goal": "NA", "progress": "NA", "move_number": "5", "optimal_length": "16", "subject": "A23437BMZ5T1FH:3IHR8NYAM89M0EPM8U9LH53ZJDTP4U"}
{"meta_move": "drag_end", "rt": "649.0", "trial_number": "3", "pre_actions": "1", "move": "2@4", "instance": "prb46580", "distance_to_goal": "NA", "progress": "NA", "move_number": "5", "optimal_length": "16", "subject": "A23437BMZ5T1FH:3IHR8NYAM89M0EPM8U9LH53ZJDTP4U"}
{"meta_move": "drag_end", "rt": "736.0", "trial_number": "3", "pre_actions": "1", "move": "5@28", "instance": "prb46580", "distance_to_goal": "NA", "progress": "NA", "move_number": "6", "optimal_length": "16", "subject": "A23437BMZ5T1FH:3IHR8NYAM89M0EPM8U9LH53ZJDTP4U"}
{"meta_move": "drag_end", "rt": "753.0", "trial_number": "3", "pre_actions": "1", "move": "6@20", "instance": "prb46580", "distance_to_goal": "NA", "progress": "NA", "move_number": "7", "optimal_length": "16", "subject": "A23437BMZ5T1FH:3IHR8NYAM89M0EPM8U9LH53ZJDTP4U"}
{"meta_move": "drag_end", "rt": "1311.0", "trial_number": "3", "pre_actions": "1", "move": "3@21", "instance": "prb46580", "distance_to_goal": "NA", "progress": "NA", "move_number": "8", "optimal_length": "16", "subject": "A23437BMZ5T1FH:3IHR8NYAM89M0EPM8U9LH53ZJDTP4U"}
{"meta_move": "drag_end", "rt": "1169.0", "trial_number": "3", "pre_actions": "1", "move": "r@15", "instance": "prb46580", "distance_to_goal": "NA", "progress": "NA", "move_number": "9", "optimal_length": "16", "subject": "A23437BMZ5T1FH:3IHR8NYAM89M0EPM8U9LH53ZJDTP4U"}
{"meta_move": "drag_end", "rt": "615.0", "trial_number": "3", "pre_actions": "1", "move": "6@2", "instance": "prb46580", "distance_to_goal": "NA", "progress": "NA", "move_number": "10", "optimal_length": "16", "subject": "A23437BMZ5T1FH:3IHR8NYAM89M0EPM8U9LH53ZJDTP4U"}
{"meta_move": "drag_end", "rt": "1506.0", "trial_number": "3", "pre_actions": "1", "move": "1@5", "instance": "prb46580", "distance_to_goal": "NA", "progress": "NA", "move_number": "11", "optimal_length": "16", "subject": "A23437BMZ5T1FH:3IHR8NYAM89M0EPM8U9LH53ZJDTP4U"}
{"meta_move": "drag_end", "rt": "1550.0", "trial_number": "3", "pre_actions": "1", "move": "6@14", "instance": "prb46580", "distance_to_goal": "NA", "progress": "NA", "move_number": "12", "optimal_length": "16", "subject": "A23437BMZ5T1FH:3IHR8NYAM89M0EPM8U9LH53ZJDTP4U"}
{"meta_move": "drag_end", "rt": "472.0", "trial_number": "3", "pre_actions": "1", "move": "r@15", "instance": "prb46580", "distance_to_goal": "NA", "progress": "NA", "move_number": "13", "optimal_length": "16", "subject": "A23437BMZ5T1FH:3IHR8NYAM89M0EPM8U9LH53ZJDTP4U"}
{"meta_move": "drag_end", "rt": "761.0", "trial_number": "3", "pre_actions": "1", "move": "6@20", "instance": "prb46580", "distance_to_goal": "NA", "progress": "NA", "move_number": "13", "optimal_length": "16", "subject": "A23437BMZ5T1FH:3IHR8NYAM89M0EPM8U9LH53ZJDTP4U"}
{"meta_move": "drag_end", "rt": "510.0", "trial_number": "3", "pre_actions": "1", "move": "r@12", "instance": "prb46580", "distance_to_goal": "NA", "progress": "NA", "move_number": "14", "optimal_length": "16", "subject": "A23437BMZ5T1FH:3IHR8NYAM89M0EPM8U9LH53ZJDTP4U"}
{"meta_move": "drag_end", "rt": "642.0", "trial_number": "3", "pre_actions": "1", "move": "3@3", "instance": "prb46580", "distance_to_goal": "NA", "progress": "NA", "move_number": "15", "optimal_length": "16", "subject": "A23437BMZ5T1FH:3IHR8NYAM89M0EPM8U9LH53ZJDTP4U"}
{"meta_move": "drag_end", "rt": "901.0", "trial_number": "3", "pre_actions": "1", "move": "5@27", "instance": "prb46580", "distance_to_goal": "NA", "progress": "NA", "move_number": "16", "optimal_length": "16", "subject": "A23437BMZ5T1FH:3IHR8NYAM89M0EPM8U9LH53ZJDTP4U"}
{"meta_move": "drag_end", "rt": "579.0", "trial_number": "3", "pre_actions": "1", "move": "1@23", "instance": "prb46580", "distance_to_goal": "NA", "progress": "NA", "move_number": "17", "optimal_length": "16", "subject": "A23437BMZ5T1FH:3IHR8NYAM89M0EPM8U9LH53ZJDTP4U"}
{"meta_move": "drag_end", "rt": "647.0", "trial_number": "3", "pre_actions": "1", "move": "2@16", "instance": "prb46580", "distance_to_goal": "NA", "progress": "NA", "move_number": "18", "optimal_length": "16", "subject": "A23437BMZ5T1FH:3IHR8NYAM89M0EPM8U9LH53ZJDTP4U"}
{"meta_move": "drag_end", "rt": "975.0", "trial_number": "3", "pre_actions": "1", "move": "r@13", "instance": "prb46580", "distance_to_goal": "NA", "progress": "NA", "move_number": "19", "optimal_length": "16", "subject": "A23437BMZ5T1FH:3IHR8NYAM89M0EPM8U9LH53ZJDTP4U"}
{"meta_move": "drag_end", "rt": "761.0", "trial_number": "3", "pre_actions": "1", "move": "r@12", "instance": "prb46580", "distance_to_goal": "NA", "progress": "NA", "move_number": "20", "optimal_length": "16", "subject": "A23437BMZ5T1FH:3IHR8NYAM89M0EPM8U9LH53ZJDTP4U"}
{"meta_move": "drag_end", "rt": "575.0", "trial_number": "3", "pre_actions": "1", "move": "6@2", "instance": "prb46580", "distance_to_goal": "NA", "progress": "NA", "move_number": "21", "optimal_length": "16", "subject": "A23437BMZ5T1FH:3IHR8NYAM89M0EPM8U9LH53ZJDTP4U"}
{"meta_move": "drag_end", "rt": "841.0", "trial_number": "3", "pre_actions": "1", "move": "5@25", "instance": "prb46580", "distance_to_goal": "NA", "progress": "NA", "move_number": "22", "optimal_length": "16", "subject": "A23437BMZ5T1FH:3IHR8NYAM89M0EPM8U9LH53ZJDTP4U"}
{"meta_move": "drag_end", "rt": "993.0", "trial_number": "3", "pre_actions": "1", "move": "7@33", "instance": "prb46580", "distance_to_goal": "NA", "progress": "NA", "move_number": "23", "optimal_length": "16", "subject": "A23437BMZ5T1FH:3IHR8NYAM89M0EPM8U9LH53ZJDTP4U"}
{"meta_move": "drag_end", "rt": "543.0", "trial_number": "3", "pre_actions": "1", "move": "0@24", "instance": "prb46580", "distance_to_goal": "NA", "progress": "NA", "move_number": "24", "optimal_length": "16", "subject": "A23437BMZ5T1FH:3IHR8NYAM89M0EPM8U9LH53ZJDTP4U"}
{"meta_move": "drag_end", "rt": "369.0", "trial_number": "3", "pre_actions": "1", "move": "5@25", "instance": "prb46580", "distance_to_goal": "NA", "progress": "NA", "move_number": "25", "optimal_length": "16", "subject": "A23437BMZ5T1FH:3IHR8NYAM89M0EPM8U9LH53ZJDTP4U"}
{"meta_move": "drag_end", "rt": "3206.0", "trial_number": "1", "pre_actions": "1", "move": "7@30", "instance": "prb46580", "distance_to_goal": "NA", "progress": "NA", "move_number": "0", "optimal_length": "16", "subject": "A2MYB6MLQW0IGN:3TYCR1GOTDRCCQYD1V64UK7OE48LZS"}
{"meta_move": "drag_end", "rt": "1105.0", "trial_number": "1", "pre_actions": "1", "move": "3@21", "instance": "prb46580", "distance_to_goal": "NA", "progress": "NA", "move_number": "1", "optimal_length": "16", "subject": "A2MYB6MLQW0IGN:3TYCR1GOTDRCCQYD1V64UK7OE48LZS"}
{"meta_move": "drag_end", "rt": "1147.0", "trial_number": "1", "pre_actions": "1", "move": "2@28", "instance": "prb46580", "distance_to_goal": "NA", "progress": "NA", "move_number": "2", "optimal_length": "16", "subject": "A2MYB6MLQW0IGN:3TYCR1GOTDRCCQYD1V64UK7OE48LZS"}
{"meta_move": "drag_end", "rt": "4443.0", "trial_number": "1", "pre_actions": "1", "move": "1@23", "instance": "prb46580", "distance_to_goal": "NA", "progress": "NA", "move_number": "3", "optimal_length": "16", "subject": "A2MYB6MLQW0IGN:3TYCR1GOTDRCCQYD1V64UK7OE48LZS"}
{"meta_move": "drag_end", "rt": "1237.0", "trial_number": "1", "pre_actions": "1", "move": "4@4", "instance": "prb46580", "distance_to_goal": "NA", "progress": "NA", "move_number": "4", "optimal_length": "16", "subject": "A2MYB6MLQW0IGN:3TYCR1GOTDRCCQYD1V64UK7OE48LZS"}
{"meta_move": "drag_end", "rt": "1277.0", "trial_number": "1", "pre_actions": "1", "move": "3@3", "instance": "prb46580", "distance_to_goal": "NA", "progress": "NA", "move_number": "5", "optimal_length": "16", "subject": "A2MYB6MLQW0IGN:3TYCR1GOTDRCCQYD1V64UK7OE48LZS"}
{"meta_move": "drag_end", "rt": "1578.0", "trial_number": "1", "pre_actions": "1", "move": "5@26", "instance": "prb46580", "distance_to_goal": "NA", "progress": "NA", "move_number": "6", "optimal_length": "16", "subject": "A2MYB6MLQW0IGN:3TYCR1GOTDRCCQYD1V64UK7OE48LZS"}
{"meta_move": "drag_end", "rt": "1227.0", "trial_number": "1", "pre_actions": "1", "move": "2@10", "instance": "prb46580", "distance_to_goal": "NA", "progress": "NA", "move_number": "7", "optimal_length": "16", "subject": "A2MYB6MLQW0IGN:3TYCR1GOTDRCCQYD1V64UK7OE48LZS"}
{"meta_move": "drag_end", "rt": "1066.0", "trial_number": "1", "pre_actions": "1", "move": "5@27", "instance": "prb46580", "distance_to_goal": "NA", "progress": "NA", "move_number": "8", "optimal_length": "16", "subject": "A2MYB6MLQW0IGN:3TYCR1GOTDRCCQYD1V64UK7OE48LZS"}
{"meta_move": "drag_end", "rt": "1103.0", "trial_number": "1", "pre_actions": "1", "move": "6@20", "instance": "prb46580", "distance_to_goal": "NA", "progress": "NA", "move_number": "9", "optimal_length": "16", "subject": "A2MYB6MLQW0IGN:3TYCR1GOTDRCCQYD1V64UK7OE48LZS"}
{"meta_move": "drag_end", "rt": "3603.0", "trial_number": "1", "pre_actions": "1", "move": "1@11", "instance": "prb46580", "distance_to_goal": "NA", "progress": "NA", "move_number": "10", "optimal_length": "16", "subject": "A2MYB6MLQW0IGN:3TYCR1GOTDRCCQYD1V64UK7OE48LZS"}
{"meta_move": "drag_end", "rt": "1133.0", "trial_number": "1", "pre_actions": "1", "move": "5@28", "instance": "prb46580", "distance_to_goal": "NA", "progress": "NA", "move_number": "11", "optimal_length": "16", "subject": "A2MYB6MLQW0IGN:3TYCR1GOTDRCCQYD1V64UK7OE48LZS"}
{"meta_move": "drag_end", "rt": "974.0", "trial_number": "1", "pre_actions": "1", "move": "3@21", "instance": "prb46580", "distance_to_goal": "NA", "progress": "NA", "move_number": "12", "optimal_length": "16", "subject": "A2MYB6MLQW0IGN:3TYCR1GOTDRCCQYD1V64UK7OE48LZS"}
{"meta_move": "drag_end", "rt": "1178.0", "trial_number": "1", "pre_actions": "1", "move": "4@0", "instance": "prb46580", "distance_to_goal": "NA", "progress": "NA", "move_number": "13", "optimal_length": "16", "subject": "A2MYB6MLQW0IGN:3TYCR1GOTDRCCQYD1V64UK7OE48LZS"}
{"meta_move": "drag_end", "rt": "1033.0", "trial_number": "1", "pre_actions": "1", "move": "2@4", "instance": "prb46580", "distance_to_goal": "NA", "progress": "NA", "move_number": "14", "optimal_length": "16", "subject": "A2MYB6MLQW0IGN:3TYCR1GOTDRCCQYD1V64UK7OE48LZS"}
{"meta_move": "drag_end", "rt": "3429.0", "trial_number": "1", "pre_actions": "1", "move": "3@3", "instance": "prb46580", "distance_to_goal": "NA", "progress": "NA", "move_number": "15", "optimal_length": "16", "subject": "A2MYB6MLQW0IGN:3TYCR1GOTDRCCQYD1V64UK7OE48LZS"}
{"meta_move": "drag_end", "rt": "4594.0", "trial_number": "1", "pre_actions": "1", "move": "r@13", "instance": "prb46580", "distance_to_goal": "NA", "progress": "NA", "move_number": "16", "optimal_length": "16", "subject": "A2MYB6MLQW0IGN:3TYCR1GOTDRCCQYD1V64UK7OE48LZS"}
{"meta_move": "drag_end", "rt": "783.0", "trial_number": "1", "pre_actions": "1", "move": "0@6", "instance": "prb46580", "distance_to_goal": "NA", "progress": "NA", "move_number": "17", "optimal_length": "16", "subject": "A2MYB6MLQW0IGN:3TYCR1GOTDRCCQYD1V64UK7OE48LZS"}
{"meta_move": "drag_end", "rt": "1859.0", "trial_number": "1", "pre_actions": "1", "move": "0@18", "instance": "prb46580", "distance_to_goal": "NA", "progress": "NA", "move_number": "18", "optimal_length": "16", "subject": "A2MYB6MLQW0IGN:3TYCR1GOTDRCCQYD1V64UK7OE48LZS"}
{"meta_move": "drag_end", "rt": "1155.0", "trial_number": "1", "pre_actions": "1", "move": "r@12", "instance": "prb46580", "distance_to_goal": "NA", "progress": "NA", "move_number": "19", "optimal_length": "16", "subject": "A2MYB6MLQW0IGN:3TYCR1GOTDRCCQYD1V64UK7OE48LZS"}
{"meta_move": "drag_end", "rt": "1560.0", "trial_number": "1", "pre_actions": "1", "move": "6@2", "instance": "prb46580", "distance_to_goal": "NA", "progress": "NA", "move_number": "20", "optimal_length": "16", "subject": "A2MYB6MLQW0IGN:3TYCR1GOTDRCCQYD1V64UK7OE48LZS"}
{"meta_move": "drag_end", "rt": "3851.0", "trial_number": "1", "pre_actions": "1", "move": "7@34", "instance": "prb46580", "distance_to_goal": "NA", "progress": "NA", "move_number": "21", "optimal_length": "16", "subject": "A2MYB6MLQW0IGN:3TYCR1GOTDRCCQYD1V64UK7OE48LZS"}
{"meta_move": "drag_end", "rt": "851.0", "trial_number": "1", "pre_actions": "1", "move": "0@24", "instance": "prb46580", "distance_to_goal": "NA", "progress": "NA", "move_number": "22", "optimal_length": "16", "subject": "A2MYB6MLQW0IGN:3TYCR1GOTDRCCQYD1V64UK7OE48LZS"}
{"meta_move": "drag_end", "rt": "3142.0", "trial_number": "1", "pre_actions": "1", "move": "6@20", "instance": "prb46580", "distance_to_goal": "NA", "progress": "NA", "move_number": "23", "optimal_length": "16", "subject": "A2MYB6MLQW0IGN:3TYCR1GOTDRCCQYD1V64UK7OE48LZS"}
{"meta_move": "drag_end", "rt": "3451.0", "trial_number": "1", "pre_actions": "1", "move": "6@2", "instance": "prb46580", "distance_to_goal": "NA", "progress": "NA", "move_number": "24", "optimal_length": "16", "subject": "A2MYB6MLQW0IGN:3TYCR1GOTDRCCQYD1V64UK7OE48LZS"}
{"meta_move": "drag_end", "rt": "1317.0", "trial_number": "1", "pre_actions": "1", "move": "6@20", "instance": "prb46580", "distance_to_goal": "NA", "progress": "NA", "move_number": "25", "optimal_length": "16", "subject": "A2MYB6MLQW0IGN:3TYCR1GOTDRCCQYD1V64UK7OE48LZS"}
{"meta_move": "drag_end", "rt": "532.0", "trial_number": "1", "pre_actions": "1", "move": "6@20", "instance": "prb46580", "distance_to_goal": "NA", "progress": "NA", "move_number": "26", "optimal_length": "16", "subject": "A2MYB6MLQW0IGN:3TYCR1GOTDRCCQYD1V64UK7OE48LZS"}
{"meta_move": "drag_end", "rt": "975.0", "trial_number": "1", "pre_actions": "1", "move": "r@13", "instance": "prb46580", "distance_to_goal": "NA", "progress": "NA", "move_number": "26", "optimal_length": "16", "subject": "A2MYB6MLQW0IGN:3TYCR1GOTDRCCQYD1V64UK7OE48LZS"}
{"meta_move": "drag_end", "rt": "1407.0", "trial_number": "1", "pre_actions": "1", "move": "0@6", "instance": "prb46580", "distance_to_goal": "NA", "progress": "NA", "move_number": "27", "optimal_length": "16", "subject": "A2MYB6MLQW0IGN:3TYCR1GOTDRCCQYD1V64UK7OE48LZS"}
{"meta_move": "drag_end", "rt": "2050.0", "trial_number": "1", "pre_actions": "1", "move": "3@21", "instance": "prb46580", "distance_to_goal": "NA", "progress": "NA", "move_number": "28", "optimal_length": "16", "subject": "A2MYB6MLQW0IGN:3TYCR1GOTDRCCQYD1V64UK7OE48LZS"}
{"meta_move": "drag_end", "rt": "1026.0", "trial_number": "1", "pre_actions": "1", "move": "r@15", "instance": "prb46580", "distance_to_goal": "NA", "progress": "NA", "move_number": "29", "optimal_length": "16", "subject": "A2MYB6MLQW0IGN:3TYCR1GOTDRCCQYD1V64UK7OE48LZS"}
{"meta_move": "drag_end", "rt": "1367.0", "trial_number": "1", "pre_actions": "1", "move": "6@2", "instance": "prb46580", "distance_to_goal": "NA", "progress": "NA", "move_number": "30", "optimal_length": "16", "subject": "A2MYB6MLQW0IGN:3TYCR1GOTDRCCQYD1V64UK7OE48LZS"}
{"meta_move": "drag_end", "rt": "7175.0", "trial_number": "1", "pre_actions": "1", "move": "1@5", "instance": "prb46580", "distance_to_goal": "NA", "progress": "NA", "move_number": "31", "optimal_length": "16", "subject": "A2MYB6MLQW0IGN:3TYCR1GOTDRCCQYD1V64UK7OE48LZS"}
{"meta_move": "drag_end", "rt": "2857.0", "trial_number": "1", "pre_actions": "1", "move": "6@20", "instance": "prb46580", "distance_to_goal": "NA", "progress": "NA", "move_number": "32", "optimal_length": "16", "subject": "A2MYB6MLQW0IGN:3TYCR1GOTDRCCQYD1V64UK7OE48LZS"}
{"meta_move": "drag_end", "rt": "5615.0", "trial_number": "1", "pre_actions": "1", "move": "0@24", "instance": "prb46580", "distance_to_goal": "NA", "progress": "NA", "move_number": "33", "optimal_length": "16", "subject": "A2MYB6MLQW0IGN:3TYCR1GOTDRCCQYD1V64UK7OE48LZS"}
{"meta_move": "drag_end", "rt": "1237.0", "trial_number": "1", "pre_actions": "1", "move": "r@12", "instance": "prb46580", "distance_to_goal": "NA", "progress": "NA", "move_number": "34", "optimal_length": "16", "subject": "A2MYB6MLQW0IGN:3TYCR1GOTDRCCQYD1V64UK7OE48LZS"}
{"meta_move": "drag_end", "rt": "1205.0", "trial_number": "1", "pre_actions": "1", "move": "6@2", "instance": "prb46580", "distance_to_goal": "NA", "progress": "NA", "move_number": "35", "optimal_length": "16", "subject": "A2MYB6MLQW0IGN:3TYCR1GOTDRCCQYD1V64UK7OE48LZS"}
{"meta_move": "drag_end", "rt": "1659.0", "trial_number": "1", "pre_actions": "1", "move": "3@3", "instance": "prb46580", "distance_to_goal": "NA", "progress": "NA", "move_number": "36", "optimal_length": "16", "subject": "A2MYB6MLQW0IGN:3TYCR1GOTDRCCQYD1V64UK7OE48LZS"}
