{"rt": "42770.0", "trial_number": "0", "skipped": "False", "complete": "True", "assignment": "3TYCR1GOTDRCCQYD1V64UK7OHTBZLQ", "start_time": "1.51753541386e+12", "human_length": "34", "nodes_expanded": "999", "instance": "prb45893", "end_time": "1.51753545663e+12", "optimal_length": "16", "subject": "A13BZCNJ0WR1T7"}
{"rt": "61670.0", "trial_number": "0", "skipped": "False", "complete": "False", "assignment": "3VE8AYVF8N5BS2NU6U3TMN50JMNF8V", "start_time": "1.51673507203e+12", "human_length": "16", "nodes_expanded": "999", "instance": "prb45893", "end_time": "1.5167351337e+12", "optimal_length": "16", "subject": "A18QU0YQB6Q8DF"}
{"rt": "0.0", "trial_number": "1", "skipped": "False", "complete": "False", "assignment": "3VE8AYVF8N5BS2NU6U3TMN50JMNF8V", "start_time": "1.51673513705e+12", "human_length": "1", "nodes_expanded": "999", "instance": "prb45893", "end_time": "1.51673513705e+12", "optimal_length": "16", "subject": "A18QU0YQB6Q8DF"}
{"rt": "0.0", "trial_number": "2", "skipped": "False", "complete": "False", "assignment": "3VE8AYVF8N5BS2NU6U3TMN50JMNF8V", "start_time": "1.51673507203e+12", "human_length": "1", "nodes_expanded": "999", "instance": "prb45893", "end_time": "1.51673507203e+12", "optimal_length": "16", "subject": "A18QU0YQB6Q8DF"}
{"rt": "0.0", "trial_number": "3", "skipped": "False", "complete": "False", "assignment": "3VE8AYVF8N5BS2NU6U3TMN50JMNF8V", "start_time": "1.51673513705e+12", "human_length": "1", "nodes_expanded": "999", "instance": "prb45893", "end_time": "1.51673513705e+12", "optimal_length": "16", "subject": "A18QU0YQB6Q8DF"}
{"rt": "0.0", "trial_number": "4", "skipped": "False", "complete": "False", "assignment": "3VE8AYVF8N5BS2NU6U3TMN50JMNF8V", "start_time": "1.51673507203e+12", "human_length": "1", "nodes_expanded": "999", "instance": "prb45893", "end_time": "1.51673507203e+12", "optimal_length": "16", "subject": "A18QU0YQB6Q8DF"}
{"rt": "53966.0", "trial_number": "5", "skipped": "True", "complete": "False", "assignment": "3VE8AYVF8N5BS2NU6U3TMN50JMNF8V", "start_time": "1.51673513705e+12", "human_length": "72", "nodes_expanded": "999", "instance": "prb45893", "end_time": "1.51673519101e+12", "optimal_length": "16", "subject": "A18QU0YQB6Q8DF"}
{"rt": "61670.0", "trial_number": "0", "skipped": "False", "complete": "False", "assignment": "3VE8AYVF8N5BS2NU6U3TMN50JMNF8V", "start_time": "1.51673507203e+12", "human_length": "16", "nodes_expanded": "999", "instance": "prb45893", "end_time": "1.5167351337e+12", "optimal_length": "16", "subject": "A18QU0YQB6Q8DF"}
{"rt": "53966.0", "trial_number": "1", "skipped": "True", "complete": "False", "assignment": "3VE8AYVF8N5BS2NU6U3TMN50JMNF8V", "start_time": "1.51673513705e+12", "human_length": "16", "nodes_expanded": "999", "instance": "prb45893", "end_time": "1.51673519101e+12", "optimal_length": "16", "subject": "A18QU0YQB6Q8DF"}
{"rt": "52390.0", "trial_number": "0", "skipped": "False", "complete": "True", "assignment": "3IJXV6UZ1YR1KY4G6BFEG1DXR47RIC", "start_time": "1.5179719168e+12", "human_length": "42", "nodes_expanded": "999", "instance": "prb45893", "end_time": "1.51797196918e+12", "optimal_length": "16", "subject": "A18T3WK7J16C1B"}
{"rt": "157464.0", "trial_number": "0", "skipped": "False", "complete": "True", "assignment": "3PMBY0YE28B43VMUKKJ6EDF85RV9C8", "start_time": "1.51638843103e+12", "human_length": "120", "nodes_expanded": "999", "instance": "prb45893", "end_time": "1.5163885885e+12", "optimal_length": "16", "subject": "A191V7PT3DQKDP"}
{"rt": "5384.0", "trial_number": "0", "skipped": "False", "complete": "False", "assignment": "3H0W84IWBLAP4T2UASPNVMF5ZH7ER9", "start_time": "1.51755335514e+12", "human_length": "2", "nodes_expanded": "999", "instance": "prb45893", "end_time": "1.51755336052e+12", "optimal_length": "16", "subject": "A1AKX1C8GCVCTP"}
{"rt": "12238.0", "trial_number": "1", "skipped": "True", "complete": "False", "assignment": "3H0W84IWBLAP4T2UASPNVMF5ZH7ER9", "start_time": "1.51755339784e+12", "human_length": "5", "nodes_expanded": "999", "instance": "prb45893", "end_time": "1.51755341007e+12", "optimal_length": "16", "subject": "A1AKX1C8GCVCTP"}
{"rt": "22038.0", "trial_number": "0", "skipped": "False", "complete": "True", "assignment": "3ZSANO2JCGFTBM23KS9Y3E51YP4FSQ", "start_time": "1.518143761e+12", "human_length": "26", "nodes_expanded": "999", "instance": "prb45893", "end_time": "1.51814378304e+12", "optimal_length": "16", "subject": "A1F42D4L22K5ND"}
{"rt": "44001.0", "trial_number": "0", "skipped": "False", "complete": "True", "assignment": "3TS1AR6UQRM7SOIBWPBN8N9589Y7FV", "start_time": "1.51683956172e+12", "human_length": "33", "nodes_expanded": "999", "instance": "prb45893", "end_time": "1.51683960572e+12", "optimal_length": "16", "subject": "A1F4N58CAX8IMK"}
{"rt": "108539.0", "trial_number": "1", "skipped": "True", "complete": "False", "assignment": "35DR22AR5ES6RR89U7EJ1DXW91AX3P", "start_time": "1.51795342871e+12", "human_length": "88", "nodes_expanded": "999", "instance": "prb45893", "end_time": "1.51795353725e+12", "optimal_length": "16", "subject": "A1F4N58CAX8IMK"}
{"rt": "76936.0", "trial_number": "0", "skipped": "False", "complete": "False", "assignment": "33F859I567LE8WC74WB3GA7E94XBHW", "start_time": "1.51796860683e+12", "human_length": "41", "nodes_expanded": "999", "instance": "prb45893", "end_time": "1.51796868376e+12", "optimal_length": "16", "subject": "A1GQS6USF2JEYG"}
{"rt": "79504.0", "trial_number": "1", "skipped": "False", "complete": "True", "assignment": "33F859I567LE8WC74WB3GA7E94XBHW", "start_time": "1.5179686852e+12", "human_length": "43", "nodes_expanded": "999", "instance": "prb45893", "end_time": "1.5179687647e+12", "optimal_length": "16", "subject": "A1GQS6USF2JEYG"}
{"rt": "47657.0", "trial_number": "0", "skipped": "False", "complete": "True", "assignment": "3XLBSAQ9Z5KDX59BX15UBFPNNHYZ7Q", "start_time": "1.51814510873e+12", "human_length": "24", "nodes_expanded": "999", "instance": "prb45893", "end_time": "1.51814515638e+12", "optimal_length": "16", "subject": "A1HFNOKU591WCY"}
{"rt": "84577.0", "trial_number": "0", "skipped": "False", "complete": "True", "assignment": "3FTF2T8WLSQDHTSZ1BJ7Q7MB14SW9H", "start_time": "1.51813806083e+12", "human_length": "50", "nodes_expanded": "999", "instance": "prb45893", "end_time": "1.51813814541e+12", "optimal_length": "16", "subject": "A1IUH9D7N69VS"}
{"rt": "0.0", "trial_number": "0", "skipped": "False", "complete": "False", "assignment": "3YW4XOSQKRTI0K0Z2YPDTDJVFABU1I", "start_time": "1.51683125317e+12", "human_length": "1", "nodes_expanded": "999", "instance": "prb45893", "end_time": "1.51683125317e+12", "optimal_length": "16", "subject": "A1LR0VQIHQUJAM"}
{"rt": "152378.0", "trial_number": "1", "skipped": "False", "complete": "True", "assignment": "3YW4XOSQKRTI0K0Z2YPDTDJVFABU1I", "start_time": "1.51683125317e+12", "human_length": "93", "nodes_expanded": "999", "instance": "prb45893", "end_time": "1.51683140555e+12", "optimal_length": "16", "subject": "A1LR0VQIHQUJAM"}
{"rt": "127108.0", "trial_number": "0", "skipped": "True", "complete": "False", "assignment": "31LM9EDVOM0C0BWUVMJXJINN3QPJNI", "start_time": "1.51752538608e+12", "human_length": "7", "nodes_expanded": "999", "instance": "prb45893", "end_time": "1.51752551319e+12", "optimal_length": "16", "subject": "A1NT8BT94ME6F5"}
{"rt": "20834.0", "trial_number": "0", "skipped": "False", "complete": "False", "assignment": "3RUIQRXJBCWS71H9MUFVM5WQ3SCLLJ", "start_time": "1.51815594918e+12", "human_length": "7", "nodes_expanded": "999", "instance": "prb45893", "end_time": "1.51815597002e+12", "optimal_length": "16", "subject": "A1SJRFJWFXSDH4"}
{"rt": "112419.0", "trial_number": "1", "skipped": "False", "complete": "True", "assignment": "3RUIQRXJBCWS71H9MUFVM5WQ3SCLLJ", "start_time": "1.51815597465e+12", "human_length": "46", "nodes_expanded": "999", "instance": "prb45893", "end_time": "1.51815608707e+12", "optimal_length": "16", "subject": "A1SJRFJWFXSDH4"}
{"rt": "74574.0", "trial_number": "0", "skipped": "False", "complete": "False", "assignment": "3I02618YA1ELHCJ1N003U91TLSLUPX", "start_time": "1.5181443337e+12", "human_length": "41", "nodes_expanded": "999", "instance": "prb45893", "end_time": "1.51814440827e+12", "optimal_length": "16", "subject": "A1SLM4JRDIM430"}
{"rt": "15741.0", "trial_number": "1", "skipped": "False", "complete": "False", "assignment": "3I02618YA1ELHCJ1N003U91TLSLUPX", "start_time": "1.51814443781e+12", "human_length": "3", "nodes_expanded": "999", "instance": "prb45893", "end_time": "1.51814445355e+12", "optimal_length": "16", "subject": "A1SLM4JRDIM430"}
{"rt": "142928.0", "trial_number": "2", "skipped": "True", "complete": "False", "assignment": "3I02618YA1ELHCJ1N003U91TLSLUPX", "start_time": "1.51814445789e+12", "human_length": "79", "nodes_expanded": "999", "instance": "prb45893", "end_time": "1.51814460082e+12", "optimal_length": "16", "subject": "A1SLM4JRDIM430"}
{"rt": "54206.0", "trial_number": "0", "skipped": "False", "complete": "True", "assignment": "3PB5A5BD0WED6OE679H5Q89HBDGG71", "start_time": "1.5179536387e+12", "human_length": "35", "nodes_expanded": "999", "instance": "prb45893", "end_time": "1.51795369290e+12", "optimal_length": "16", "subject": "A1USR9JCAMDGM3"}
{"rt": "46461.0", "trial_number": "0", "skipped": "True", "complete": "False", "assignment": "3XC1O3LBOTUGQEPEV3HM8W67X4RTLL", "start_time": "1.5181388129e+12", "human_length": "24", "nodes_expanded": "999", "instance": "prb45893", "end_time": "1.51813885936e+12", "optimal_length": "16", "subject": "A1ZTSCPETU3UJW"}
{"rt": "40235.0", "trial_number": "0", "skipped": "False", "complete": "True", "assignment": "34BBWHLWHBJ6SUL255PK30LEGY5IWG", "start_time": "1.51639353785e+12", "human_length": "32", "nodes_expanded": "999", "instance": "prb45893", "end_time": "1.51639357809e+12", "optimal_length": "16", "subject": "A214HWAW1PYWO8"}
{"rt": "0.0", "trial_number": "0", "skipped": "False", "complete": "False", "assignment": "3X87C8JFV7JQ2BSCY8KSFD9F2ILSQK", "start_time": "1.51674573584e+12", "human_length": "1", "nodes_expanded": "999", "instance": "prb45893", "end_time": "1.51674573584e+12", "optimal_length": "16", "subject": "A21S7MA9DCW95E"}
{"rt": "0.0", "trial_number": "1", "skipped": "False", "complete": "False", "assignment": "3X87C8JFV7JQ2BSCY8KSFD9F2ILSQK", "start_time": "1.51674573584e+12", "human_length": "1", "nodes_expanded": "999", "instance": "prb45893", "end_time": "1.51674573584e+12", "optimal_length": "16", "subject": "A21S7MA9DCW95E"}
{"rt": "39550.0", "trial_number": "2", "skipped": "False", "complete": "True", "assignment": "3X87C8JFV7JQ2BSCY8KSFD9F2ILSQK", "start_time": "1.51674573584e+12", "human_length": "23", "nodes_expanded": "999", "instance": "prb45893", "end_time": "1.5167457754e+12", "optimal_length": "16", "subject": "A21S7MA9DCW95E"}
{"rt": "39550.0", "trial_number": "0", "skipped": "False", "complete": "True", "assignment": "3X87C8JFV7JQ2BSCY8KSFD9F2ILSQK", "start_time": "1.51674573584e+12", "human_length": "23", "nodes_expanded": "999", "instance": "prb45893", "end_time": "1.5167457754e+12", "optimal_length": "16", "subject": "A21S7MA9DCW95E"}
{"rt": "0.0", "trial_number": "0", "skipped": "False", "complete": "False", "assignment": "3IHR8NYAM89M0EPM8U9LH53ZJDTP4U", "start_time": "1.516826082e+12", "human_length": "1", "nodes_expanded": "999", "instance": "prb45893", "end_time": "1.516826082e+12", "optimal_length": "16", "subject": "A23437BMZ5T1FH"}
{"rt": "22940.0", "trial_number": "1", "skipped": "True", "complete": "False", "assignment": "3IHR8NYAM89M0EPM8U9LH53ZJDTP4U", "start_time": "1.516826082e+12", "human_length": "46", "nodes_expanded": "999", "instance": "prb45893", "end_time": "1.51682610494e+12", "optimal_length": "16", "subject": "A23437BMZ5T1FH"}
{"rt": "9545.0", "trial_number": "0", "skipped": "False", "complete": "False", "assignment": "30IQTZXKALEAAZ9CBKW0ZFZP6O5X07", "start_time": "1.51794422e+12", "human_length": "5", "nodes_expanded": "999", "instance": "prb45893", "end_time": "1.51794422955e+12", "optimal_length": "16", "subject": "A23XJ8I86R0O3B"}
{"rt": "49543.0", "trial_number": "1", "skipped": "False", "complete": "False", "assignment": "30IQTZXKALEAAZ9CBKW0ZFZP6O5X07", "start_time": "1.51794423727e+12", "human_length": "15", "nodes_expanded": "999", "instance": "prb45893", "end_time": "1.51794428681e+12", "optimal_length": "16", "subject": "A23XJ8I86R0O3B"}
{"rt": "54211.0", "trial_number": "2", "skipped": "False", "complete": "True", "assignment": "30IQTZXKALEAAZ9CBKW0ZFZP6O5X07", "start_time": "1.51794429853e+12", "human_length": "30", "nodes_expanded": "999", "instance": "prb45893", "end_time": "1.51794435274e+12", "optimal_length": "16", "subject": "A23XJ8I86R0O3B"}
{"rt": "39389.0", "trial_number": "0", "skipped": "True", "complete": "False", "assignment": "3SITXWYCNWHBUMCM90TPJWV8Y7AXBW", "start_time": "1.51816645464e+12", "human_length": "10", "nodes_expanded": "999", "instance": "prb45893", "end_time": "1.51816649402e+12", "optimal_length": "16", "subject": "A28RX7L0QZ993M"}
{"rt": "211050.0", "trial_number": "0", "skipped": "True", "complete": "False", "assignment": "37WLF8U1WQYZ4AWKEQXSIM1ELVEK6W", "start_time": "1.51683279958e+12", "human_length": "83", "nodes_expanded": "999", "instance": "prb45893", "end_time": "1.51683301063e+12", "optimal_length": "16", "subject": "A2EPBSY0VPI38S"}
{"rt": "0.0", "trial_number": "0", "skipped": "False", "complete": "False", "assignment": "3X4MXAO0BHWJLTOLVSJTHSM54OHWRG", "start_time": "1.51682558036e+12", "human_length": "1", "nodes_expanded": "999", "instance": "prb45893", "end_time": "1.51682558036e+12", "optimal_length": "16", "subject": "A2IBQA01NR5N76"}
{"rt": "140005.0", "trial_number": "1", "skipped": "True", "complete": "False", "assignment": "3X4MXAO0BHWJLTOLVSJTHSM54OHWRG", "start_time": "1.51682558036e+12", "human_length": "145", "nodes_expanded": "999", "instance": "prb45893", "end_time": "1.51682572037e+12", "optimal_length": "16", "subject": "A2IBQA01NR5N76"}
{"rt": "53786.0", "trial_number": "0", "skipped": "True", "complete": "False", "assignment": "3TAYZSBPLMG9ASQRWXURJVBCPLN2SH", "start_time": "1.51813696265e+12", "human_length": "32", "nodes_expanded": "999", "instance": "prb45893", "end_time": "1.51813701644e+12", "optimal_length": "16", "subject": "A2RCYLKY072XXO"}
{"rt": "0.0", "trial_number": "0", "skipped": "False", "complete": "False", "assignment": "3IJXV6UZ1YR1KY4G6BFEG1DXP7SRI1", "start_time": "1.5167508943e+12", "human_length": "1", "nodes_expanded": "999", "instance": "prb45893", "end_time": "1.5167508943e+12", "optimal_length": "16", "subject": "A2RTJ6BDY0DZVZ"}
{"rt": "0.0", "trial_number": "1", "skipped": "False", "complete": "False", "assignment": "3IJXV6UZ1YR1KY4G6BFEG1DXP7SRI1", "start_time": "1.5167508943e+12", "human_length": "1", "nodes_expanded": "999", "instance": "prb45893", "end_time": "1.5167508943e+12", "optimal_length": "16", "subject": "A2RTJ6BDY0DZVZ"}
{"rt": "54629.0", "trial_number": "2", "skipped": "False", "complete": "True", "assignment": "3IJXV6UZ1YR1KY4G6BFEG1DXP7SRI1", "start_time": "1.5167508943e+12", "human_length": "27", "nodes_expanded": "999", "instance": "prb45893", "end_time": "1.51675094893e+12", "optimal_length": "16", "subject": "A2RTJ6BDY0DZVZ"}
{"rt": "54629.0", "trial_number": "0", "skipped": "False", "complete": "True", "assignment": "3IJXV6UZ1YR1KY4G6BFEG1DXP7SRI1", "start_time": "1.5167508943e+12", "human_length": "27", "nodes_expanded": "999", "instance": "prb45893", "end_time": "1.51675094893e+12", "optimal_length": "16", "subject": "A2RTJ6BDY0DZVZ"}
{"rt": "17378.0", "trial_number": "0", "skipped": "False", "complete": "False", "assignment": "3WSELTNVR4AZUVYAYCSWZIQW0J4ATB", "start_time": "1.51673758394e+12", "human_length": "12", "nodes_expanded": "999", "instance": "prb45893", "end_time": "1.51673760132e+12", "optimal_length": "16", "subject": "A2TQNX64349OZ9"}
{"rt": "18231.0", "trial_number": "1", "skipped": "False", "complete": "False", "assignment": "3WSELTNVR4AZUVYAYCSWZIQW0J4ATB", "start_time": "1.51673760428e+12", "human_length": "14", "nodes_expanded": "999", "instance": "prb45893", "end_time": "1.51673762251e+12", "optimal_length": "16", "subject": "A2TQNX64349OZ9"}
{"rt": "36149.0", "trial_number": "2", "skipped": "False", "complete": "False", "assignment": "3WSELTNVR4AZUVYAYCSWZIQW0J4ATB", "start_time": "1.51673762486e+12", "human_length": "20", "nodes_expanded": "999", "instance": "prb45893", "end_time": "1.51673766101e+12", "optimal_length": "16", "subject": "A2TQNX64349OZ9"}
{"rt": "0.0", "trial_number": "3", "skipped": "False", "complete": "False", "assignment": "3WSELTNVR4AZUVYAYCSWZIQW0J4ATB", "start_time": "1.51673766337e+12", "human_length": "1", "nodes_expanded": "999", "instance": "prb45893", "end_time": "1.51673766337e+12", "optimal_length": "16", "subject": "A2TQNX64349OZ9"}
{"rt": "0.0", "trial_number": "4", "skipped": "False", "complete": "False", "assignment": "3WSELTNVR4AZUVYAYCSWZIQW0J4ATB", "start_time": "1.51673758394e+12", "human_length": "1", "nodes_expanded": "999", "instance": "prb45893", "end_time": "1.51673758394e+12", "optimal_length": "16", "subject": "A2TQNX64349OZ9"}
{"rt": "0.0", "trial_number": "5", "skipped": "False", "complete": "False", "assignment": "3WSELTNVR4AZUVYAYCSWZIQW0J4ATB", "start_time": "1.51673760428e+12", "human_length": "1", "nodes_expanded": "999", "instance": "prb45893", "end_time": "1.51673760428e+12", "optimal_length": "16", "subject": "A2TQNX64349OZ9"}
{"rt": "0.0", "trial_number": "6", "skipped": "False", "complete": "False", "assignment": "3WSELTNVR4AZUVYAYCSWZIQW0J4ATB", "start_time": "1.51673762486e+12", "human_length": "1", "nodes_expanded": "999", "instance": "prb45893", "end_time": "1.51673762486e+12", "optimal_length": "16", "subject": "A2TQNX64349OZ9"}
{"rt": "0.0", "trial_number": "7", "skipped": "False", "complete": "False", "assignment": "3WSELTNVR4AZUVYAYCSWZIQW0J4ATB", "start_time": "1.51673766337e+12", "human_length": "1", "nodes_expanded": "999", "instance": "prb45893", "end_time": "1.51673766337e+12", "optimal_length": "16", "subject": "A2TQNX64349OZ9"}
{"rt": "0.0", "trial_number": "8", "skipped": "False", "complete": "False", "assignment": "3WSELTNVR4AZUVYAYCSWZIQW0J4ATB", "start_time": "1.51673758394e+12", "human_length": "1", "nodes_expanded": "999", "instance": "prb45893", "end_time": "1.51673758394e+12", "optimal_length": "16", "subject": "A2TQNX64349OZ9"}
{"rt": "0.0", "trial_number": "9", "skipped": "False", "complete": "False", "assignment": "3WSELTNVR4AZUVYAYCSWZIQW0J4ATB", "start_time": "1.51673760428e+12", "human_length": "1", "nodes_expanded": "999", "instance": "prb45893", "end_time": "1.51673760428e+12", "optimal_length": "16", "subject": "A2TQNX64349OZ9"}
{"rt": "0.0", "trial_number": "10", "skipped": "False", "complete": "False", "assignment": "3WSELTNVR4AZUVYAYCSWZIQW0J4ATB", "start_time": "1.51673762486e+12", "human_length": "1", "nodes_expanded": "999", "instance": "prb45893", "end_time": "1.51673762486e+12", "optimal_length": "16", "subject": "A2TQNX64349OZ9"}
{"rt": "33342.0", "trial_number": "11", "skipped": "True", "complete": "False", "assignment": "3WSELTNVR4AZUVYAYCSWZIQW0J4ATB", "start_time": "1.51673766337e+12", "human_length": "132", "nodes_expanded": "999", "instance": "prb45893", "end_time": "1.51673769672e+12", "optimal_length": "16", "subject": "A2TQNX64349OZ9"}
{"rt": "17378.0", "trial_number": "0", "skipped": "False", "complete": "False", "assignment": "3WSELTNVR4AZUVYAYCSWZIQW0J4ATB", "start_time": "1.51673758394e+12", "human_length": "12", "nodes_expanded": "999", "instance": "prb45893", "end_time": "1.51673760132e+12", "optimal_length": "16", "subject": "A2TQNX64349OZ9"}
{"rt": "18231.0", "trial_number": "1", "skipped": "False", "complete": "False", "assignment": "3WSELTNVR4AZUVYAYCSWZIQW0J4ATB", "start_time": "1.51673760428e+12", "human_length": "14", "nodes_expanded": "999", "instance": "prb45893", "end_time": "1.51673762251e+12", "optimal_length": "16", "subject": "A2TQNX64349OZ9"}
{"rt": "36149.0", "trial_number": "2", "skipped": "False", "complete": "False", "assignment": "3WSELTNVR4AZUVYAYCSWZIQW0J4ATB", "start_time": "1.51673762486e+12", "human_length": "20", "nodes_expanded": "999", "instance": "prb45893", "end_time": "1.51673766101e+12", "optimal_length": "16", "subject": "A2TQNX64349OZ9"}
{"rt": "33342.0", "trial_number": "3", "skipped": "True", "complete": "False", "assignment": "3WSELTNVR4AZUVYAYCSWZIQW0J4ATB", "start_time": "1.51673766337e+12", "human_length": "19", "nodes_expanded": "999", "instance": "prb45893", "end_time": "1.51673769672e+12", "optimal_length": "16", "subject": "A2TQNX64349OZ9"}
{"rt": "89261.0", "trial_number": "0", "skipped": "True", "complete": "False", "assignment": "3I7DHKZYGO8S5K4S8WWQA3V9G985FU", "start_time": "1.51639104848e+12", "human_length": "21", "nodes_expanded": "999", "instance": "prb45893", "end_time": "1.51639113774e+12", "optimal_length": "16", "subject": "A2W3I2GBGDB637"}
{"rt": "375566.0", "trial_number": "0", "skipped": "False", "complete": "True", "assignment": "3EWIJTFFVPF14ZIVGF68BQEIRXP0ER", "start_time": "1.51814941728e+12", "human_length": "151", "nodes_expanded": "999", "instance": "prb45893", "end_time": "1.51814979284e+12", "optimal_length": "16", "subject": "A30AGR5KF8IEL"}
{"rt": "95816.0", "trial_number": "0", "skipped": "True", "complete": "False", "assignment": "37TD41K0AIHM8AITTQJXV8KY05QCSB", "start_time": "1.51752382615e+12", "human_length": "45", "nodes_expanded": "999", "instance": "prb45893", "end_time": "1.51752392197e+12", "optimal_length": "16", "subject": "A30KYQGABO7JER"}
{"rt": "362694.0", "trial_number": "0", "skipped": "False", "complete": "True", "assignment": "3TXD01ZLD5PZSJXIPG8FRBQYTI9U4X", "start_time": "1.51794326458e+12", "human_length": "89", "nodes_expanded": "999", "instance": "prb45893", "end_time": "1.51794362728e+12", "optimal_length": "16", "subject": "A3BPRPN10HJD4B"}
{"rt": "60180.0", "trial_number": "0", "skipped": "False", "complete": "False", "assignment": "34HJIJKLP64Z5YMIU6IKNXSH7PDV4I", "start_time": "1.51794031415e+12", "human_length": "24", "nodes_expanded": "999", "instance": "prb45893", "end_time": "1.51794037433e+12", "optimal_length": "16", "subject": "A3CTXNQ2GXIQSP"}
{"rt": "99900.0", "trial_number": "1", "skipped": "False", "complete": "False", "assignment": "34HJIJKLP64Z5YMIU6IKNXSH7PDV4I", "start_time": "1.51794037669e+12", "human_length": "40", "nodes_expanded": "999", "instance": "prb45893", "end_time": "1.51794047659e+12", "optimal_length": "16", "subject": "A3CTXNQ2GXIQSP"}
{"rt": "42885.0", "trial_number": "2", "skipped": "True", "complete": "False", "assignment": "34HJIJKLP64Z5YMIU6IKNXSH7PDV4I", "start_time": "1.51794047764e+12", "human_length": "14", "nodes_expanded": "999", "instance": "prb45893", "end_time": "1.51794052053e+12", "optimal_length": "16", "subject": "A3CTXNQ2GXIQSP"}
{"rt": "38344.0", "trial_number": "0", "skipped": "False", "complete": "False", "assignment": "3TPWUS5F8A9FFRZ2DVTYSXNJ6BWWC6", "start_time": "1.51794274983e+12", "human_length": "25", "nodes_expanded": "999", "instance": "prb45893", "end_time": "1.51794278817e+12", "optimal_length": "16", "subject": "A3GXC3VG37CQ3G"}
{"rt": "8355.0", "trial_number": "1", "skipped": "True", "complete": "False", "assignment": "3TPWUS5F8A9FFRZ2DVTYSXNJ6BWWC6", "start_time": "1.51794282109e+12", "human_length": "6", "nodes_expanded": "999", "instance": "prb45893", "end_time": "1.51794282944e+12", "optimal_length": "16", "subject": "A3GXC3VG37CQ3G"}
{"rt": "0.0", "trial_number": "0", "skipped": "False", "complete": "False", "assignment": "3I2PTA7R3U2SESF4TZBQORI5LSJQKK", "start_time": "1.51676129169e+12", "human_length": "1", "nodes_expanded": "999", "instance": "prb45893", "end_time": "1.51676129169e+12", "optimal_length": "16", "subject": "A3NMQ3019X6YE0"}
{"rt": "0.0", "trial_number": "1", "skipped": "False", "complete": "False", "assignment": "3I2PTA7R3U2SESF4TZBQORI5LSJQKK", "start_time": "1.51676129169e+12", "human_length": "1", "nodes_expanded": "999", "instance": "prb45893", "end_time": "1.51676129169e+12", "optimal_length": "16", "subject": "A3NMQ3019X6YE0"}
{"rt": "379789.0", "trial_number": "2", "skipped": "True", "complete": "False", "assignment": "3I2PTA7R3U2SESF4TZBQORI5LSJQKK", "start_time": "1.51676129169e+12", "human_length": "448", "nodes_expanded": "999", "instance": "prb45893", "end_time": "1.51676167148e+12", "optimal_length": "16", "subject": "A3NMQ3019X6YE0"}
{"rt": "379789.0", "trial_number": "0", "skipped": "True", "complete": "False", "assignment": "3I2PTA7R3U2SESF4TZBQORI5LSJQKK", "start_time": "1.51676129169e+12", "human_length": "152", "nodes_expanded": "999", "instance": "prb45893", "end_time": "1.51676167148e+12", "optimal_length": "16", "subject": "A3NMQ3019X6YE0"}
{"rt": "0.0", "trial_number": "0", "skipped": "False", "complete": "False", "assignment": "3X87C8JFV7JQ2BSCY8KSFD9F2ILSQK", "start_time": "1.51673756525e+12", "human_length": "1", "nodes_expanded": "999", "instance": "prb45893", "end_time": "1.51673756525e+12", "optimal_length": "16", "subject": "A3Q0XAGQ7TD7MP"}
{"rt": "0.0", "trial_number": "1", "skipped": "False", "complete": "False", "assignment": "3X87C8JFV7JQ2BSCY8KSFD9F2ILSQK", "start_time": "1.51673756525e+12", "human_length": "1", "nodes_expanded": "999", "instance": "prb45893", "end_time": "1.51673756525e+12", "optimal_length": "16", "subject": "A3Q0XAGQ7TD7MP"}
{"rt": "68301.0", "trial_number": "2", "skipped": "False", "complete": "True", "assignment": "3X87C8JFV7JQ2BSCY8KSFD9F2ILSQK", "start_time": "1.51673756525e+12", "human_length": "20", "nodes_expanded": "999", "instance": "prb45893", "end_time": "1.51673763355e+12", "optimal_length": "16", "subject": "A3Q0XAGQ7TD7MP"}
{"rt": "62679.0", "trial_number": "3", "skipped": "False", "complete": "True", "assignment": "3GLB5JMZFY3TNXFGYMKRQ0JDXNTDGZ", "start_time": "1.51794585609e+12", "human_length": "28", "nodes_expanded": "999", "instance": "prb45893", "end_time": "1.51794591877e+12", "optimal_length": "16", "subject": "A3Q0XAGQ7TD7MP"}
{"rt": "68301.0", "trial_number": "0", "skipped": "False", "complete": "True", "assignment": "3X87C8JFV7JQ2BSCY8KSFD9F2ILSQK", "start_time": "1.51673756525e+12", "human_length": "20", "nodes_expanded": "999", "instance": "prb45893", "end_time": "1.51673763355e+12", "optimal_length": "16", "subject": "A3Q0XAGQ7TD7MP"}
{"rt": "62679.0", "trial_number": "1", "skipped": "False", "complete": "True", "assignment": "3GLB5JMZFY3TNXFGYMKRQ0JDXNTDGZ", "start_time": "1.51794585609e+12", "human_length": "28", "nodes_expanded": "999", "instance": "prb45893", "end_time": "1.51794591877e+12", "optimal_length": "16", "subject": "A3Q0XAGQ7TD7MP"}
{"rt": "27257.0", "trial_number": "0", "skipped": "False", "complete": "True", "assignment": "33PPO7FECWN7JOLBOAKUBCWTC0AIDL", "start_time": "1.51794143513e+12", "human_length": "20", "nodes_expanded": "999", "instance": "prb45893", "end_time": "1.51794146239e+12", "optimal_length": "16", "subject": "AB5IVPS4OP9M8"}
{"rt": "126993.0", "trial_number": "0", "skipped": "False", "complete": "False", "assignment": "3IXEICO793RY7TM78ZBKJDOA7ADT6Q", "start_time": "1.51816732840e+12", "human_length": "82", "nodes_expanded": "999", "instance": "prb45893", "end_time": "1.5181674554e+12", "optimal_length": "16", "subject": "ALH1K6ZAQQMN7"}
{"rt": "191763.0", "trial_number": "1", "skipped": "False", "complete": "True", "assignment": "3IXEICO793RY7TM78ZBKJDOA7ADT6Q", "start_time": "1.51816745809e+12", "human_length": "134", "nodes_expanded": "999", "instance": "prb45893", "end_time": "1.51816764985e+12", "optimal_length": "16", "subject": "ALH1K6ZAQQMN7"}
{"rt": "39985.0", "trial_number": "0", "skipped": "True", "complete": "False", "assignment": "36H9ULYP6320CJJDXY0KBDEE1Z3JFB", "start_time": "1.51753301617e+12", "human_length": "23", "nodes_expanded": "999", "instance": "prb45893", "end_time": "1.51753305616e+12", "optimal_length": "16", "subject": "AN098C29EGJ6"}
{"rt": "66561.0", "trial_number": "0", "skipped": "False", "complete": "True", "assignment": "3HWRJOOET6A15827PHPSLWK1MOYSEU", "start_time": "1.5181438421e+12", "human_length": "42", "nodes_expanded": "999", "instance": "prb45893", "end_time": "1.51814390866e+12", "optimal_length": "16", "subject": "AO1QGAUZ85T6L"}
{"rt": "41204.0", "trial_number": "0", "skipped": "False", "complete": "True", "assignment": "3AZHRG4CU5SYU12YRVPCSZALW5003R", "start_time": "1.51630548986e+12", "human_length": "26", "nodes_expanded": "999", "instance": "prb45893", "end_time": "1.51630553107e+12", "optimal_length": "16", "subject": "ARWF605I7RWM7"}
{"rt": "27837.0", "trial_number": "0", "skipped": "True", "complete": "False", "assignment": "3IAS3U3I0GOAT69PLB8WT61CKJ22BO", "start_time": "1.51794195952e+12", "human_length": "13", "nodes_expanded": "999", "instance": "prb45893", "end_time": "1.51794198736e+12", "optimal_length": "16", "subject": "ATSZCAVI441RM"}
{"rt": "38955.0", "trial_number": "0", "skipped": "True", "complete": "False", "assignment": "33PPO7FECWN7JOLBOAKUBCWTC0AIDL", "start_time": "1.51795050292e+12", "human_length": "18", "nodes_expanded": "999", "instance": "prb45893", "end_time": "1.51795054188e+12", "optimal_length": "16", "subject": "AXKM02NVXNGOM"}
