{"meta_move": "drag_end", "rt": "12549.0", "trial_number": "6", "pre_actions": "1", "move": "5@24", "instance": "prb45893", "distance_to_goal": "NA", "progress": "NA", "move_number": "0", "optimal_length": "16", "subject": "A18QU0YQB6Q8DF:3VE8AYVF8N5BS2NU6U3TMN50JMNF8V"}
{"meta_move": "drag_end", "rt": "1710.0", "trial_number": "6", "pre_actions": "1", "move": "0@27", "instance": "prb45893", "distance_to_goal": "NA", "progress": "NA", "move_number": "0", "optimal_length": "16", "subject": "A18QU0YQB6Q8DF:3VE8AYVF8N5BS2NU6U3TMN50JMNF8V"}
{"meta_move": "drag_end", "rt": "2894.0", "trial_number": "6", "pre_actions": "1", "move": "4@23", "instance": "prb45893", "distance_to_goal": "NA", "progress": "NA", "move_number": "0", "optimal_length": "16", "subject": "A18QU0YQB6Q8DF:3VE8AYVF8N5BS2NU6U3TMN50JMNF8V"}
{"meta_move": "drag_end", "rt": "2662.0", "trial_number": "6", "pre_actions": "1", "move": "5@24", "instance": "prb45893", "distance_to_goal": "NA", "progress": "NA", "move_number": "1", "optimal_length": "16", "subject": "A18QU0YQB6Q8DF:3VE8AYVF8N5BS2NU6U3TMN50JMNF8V"}
{"meta_move": "drag_end", "rt": "1577.0", "trial_number": "6", "pre_actions": "1", "move": "6@9", "instance": "prb45893", "distance_to_goal": "NA", "progress": "NA", "move_number": "1", "optimal_length": "16", "subject": "A18QU0YQB6Q8DF:3VE8AYVF8N5BS2NU6U3TMN50JMNF8V"}
{"meta_move": "drag_end", "rt": "1728.0", "trial_number": "6", "pre_actions": "1", "move": "1@20", "instance": "prb45893", "distance_to_goal": "NA", "progress": "NA", "move_number": "2", "optimal_length": "16", "subject": "A18QU0YQB6Q8DF:3VE8AYVF8N5BS2NU6U3TMN50JMNF8V"}
{"meta_move": "drag_end", "rt": "3602.0", "trial_number": "6", "pre_actions": "1", "move": "3@0", "instance": "prb45893", "distance_to_goal": "NA", "progress": "NA", "move_number": "3", "optimal_length": "16", "subject": "A18QU0YQB6Q8DF:3VE8AYVF8N5BS2NU6U3TMN50JMNF8V"}
{"meta_move": "drag_end", "rt": "1330.0", "trial_number": "6", "pre_actions": "1", "move": "r@12", "instance": "prb45893", "distance_to_goal": "NA", "progress": "NA", "move_number": "4", "optimal_length": "16", "subject": "A18QU0YQB6Q8DF:3VE8AYVF8N5BS2NU6U3TMN50JMNF8V"}
{"meta_move": "drag_end", "rt": "4544.0", "trial_number": "6", "pre_actions": "1", "move": "5@24", "instance": "prb45893", "distance_to_goal": "NA", "progress": "NA", "move_number": "5", "optimal_length": "16", "subject": "A18QU0YQB6Q8DF:3VE8AYVF8N5BS2NU6U3TMN50JMNF8V"}
{"meta_move": "drag_end", "rt": "1250.0", "trial_number": "6", "pre_actions": "1", "move": "1@18", "instance": "prb45893", "distance_to_goal": "NA", "progress": "NA", "move_number": "5", "optimal_length": "16", "subject": "A18QU0YQB6Q8DF:3VE8AYVF8N5BS2NU6U3TMN50JMNF8V"}
{"meta_move": "drag_end", "rt": "3882.0", "trial_number": "6", "pre_actions": "1", "move": "6@9", "instance": "prb45893", "distance_to_goal": "NA", "progress": "NA", "move_number": "6", "optimal_length": "16", "subject": "A18QU0YQB6Q8DF:3VE8AYVF8N5BS2NU6U3TMN50JMNF8V"}
{"meta_move": "drag_end", "rt": "2542.0", "trial_number": "6", "pre_actions": "1", "move": "7@8", "instance": "prb45893", "distance_to_goal": "NA", "progress": "NA", "move_number": "6", "optimal_length": "16", "subject": "A18QU0YQB6Q8DF:3VE8AYVF8N5BS2NU6U3TMN50JMNF8V"}
{"meta_move": "drag_end", "rt": "1486.0", "trial_number": "6", "pre_actions": "1", "move": "2@1", "instance": "prb45893", "distance_to_goal": "NA", "progress": "NA", "move_number": "7", "optimal_length": "16", "subject": "A18QU0YQB6Q8DF:3VE8AYVF8N5BS2NU6U3TMN50JMNF8V"}
{"meta_move": "drag_end", "rt": "1098.0", "trial_number": "6", "pre_actions": "1", "move": "6@15", "instance": "prb45893", "distance_to_goal": "NA", "progress": "NA", "move_number": "8", "optimal_length": "16", "subject": "A18QU0YQB6Q8DF:3VE8AYVF8N5BS2NU6U3TMN50JMNF8V"}
{"meta_move": "drag_end", "rt": "2241.0", "trial_number": "6", "pre_actions": "1", "move": "2@3", "instance": "prb45893", "distance_to_goal": "NA", "progress": "NA", "move_number": "9", "optimal_length": "16", "subject": "A18QU0YQB6Q8DF:3VE8AYVF8N5BS2NU6U3TMN50JMNF8V"}
{"meta_move": "drag_end", "rt": "1081.0", "trial_number": "6", "pre_actions": "1", "move": "7@2", "instance": "prb45893", "distance_to_goal": "NA", "progress": "NA", "move_number": "10", "optimal_length": "16", "subject": "A18QU0YQB6Q8DF:3VE8AYVF8N5BS2NU6U3TMN50JMNF8V"}
{"meta_move": "drag_end", "rt": "5443.0", "trial_number": "6", "pre_actions": "1", "move": "4@23", "instance": "prb45893", "distance_to_goal": "NA", "progress": "NA", "move_number": "11", "optimal_length": "16", "subject": "A18QU0YQB6Q8DF:3VE8AYVF8N5BS2NU6U3TMN50JMNF8V"}
{"meta_move": "drag_end", "rt": "1098.0", "trial_number": "6", "pre_actions": "1", "move": "6@9", "instance": "prb45893", "distance_to_goal": "NA", "progress": "NA", "move_number": "11", "optimal_length": "16", "subject": "A18QU0YQB6Q8DF:3VE8AYVF8N5BS2NU6U3TMN50JMNF8V"}
{"meta_move": "drag_end", "rt": "1890.0", "trial_number": "6", "pre_actions": "1", "move": "1@20", "instance": "prb45893", "distance_to_goal": "NA", "progress": "NA", "move_number": "12", "optimal_length": "16", "subject": "A18QU0YQB6Q8DF:3VE8AYVF8N5BS2NU6U3TMN50JMNF8V"}
{"meta_move": "drag_end", "rt": "1391.0", "trial_number": "6", "pre_actions": "1", "move": "r@12", "instance": "prb45893", "distance_to_goal": "NA", "progress": "NA", "move_number": "13", "optimal_length": "16", "subject": "A18QU0YQB6Q8DF:3VE8AYVF8N5BS2NU6U3TMN50JMNF8V"}
{"meta_move": "drag_end", "rt": "2537.0", "trial_number": "6", "pre_actions": "1", "move": "6@9", "instance": "prb45893", "distance_to_goal": "NA", "progress": "NA", "move_number": "13", "optimal_length": "16", "subject": "A18QU0YQB6Q8DF:3VE8AYVF8N5BS2NU6U3TMN50JMNF8V"}
{"meta_move": "drag_end", "rt": "1081.0", "trial_number": "6", "pre_actions": "1", "move": "7@8", "instance": "prb45893", "distance_to_goal": "NA", "progress": "NA", "move_number": "13", "optimal_length": "16", "subject": "A18QU0YQB6Q8DF:3VE8AYVF8N5BS2NU6U3TMN50JMNF8V"}
{"meta_move": "drag_end", "rt": "2054.0", "trial_number": "6", "pre_actions": "1", "move": "5@25", "instance": "prb45893", "distance_to_goal": "NA", "progress": "NA", "move_number": "14", "optimal_length": "16", "subject": "A18QU0YQB6Q8DF:3VE8AYVF8N5BS2NU6U3TMN50JMNF8V"}
{"meta_move": "drag_end", "rt": "4590.0", "trial_number": "7", "pre_actions": "1", "move": "2@3", "instance": "prb45893", "distance_to_goal": "NA", "progress": "NA", "move_number": "0", "optimal_length": "16", "subject": "A18QU0YQB6Q8DF:3VE8AYVF8N5BS2NU6U3TMN50JMNF8V"}
{"meta_move": "drag_end", "rt": "4278.0", "trial_number": "7", "pre_actions": "1", "move": "5@24", "instance": "prb45893", "distance_to_goal": "NA", "progress": "NA", "move_number": "0", "optimal_length": "16", "subject": "A18QU0YQB6Q8DF:3VE8AYVF8N5BS2NU6U3TMN50JMNF8V"}
{"meta_move": "drag_end", "rt": "1742.0", "trial_number": "7", "pre_actions": "1", "move": "4@23", "instance": "prb45893", "distance_to_goal": "NA", "progress": "NA", "move_number": "0", "optimal_length": "16", "subject": "A18QU0YQB6Q8DF:3VE8AYVF8N5BS2NU6U3TMN50JMNF8V"}
{"meta_move": "drag_end", "rt": "2714.0", "trial_number": "7", "pre_actions": "1", "move": "6@9", "instance": "prb45893", "distance_to_goal": "NA", "progress": "NA", "move_number": "1", "optimal_length": "16", "subject": "A18QU0YQB6Q8DF:3VE8AYVF8N5BS2NU6U3TMN50JMNF8V"}
{"meta_move": "drag_end", "rt": "2613.0", "trial_number": "7", "pre_actions": "1", "move": "1@18", "instance": "prb45893", "distance_to_goal": "NA", "progress": "NA", "move_number": "2", "optimal_length": "16", "subject": "A18QU0YQB6Q8DF:3VE8AYVF8N5BS2NU6U3TMN50JMNF8V"}
{"meta_move": "drag_end", "rt": "1930.0", "trial_number": "7", "pre_actions": "1", "move": "4@11", "instance": "prb45893", "distance_to_goal": "NA", "progress": "NA", "move_number": "2", "optimal_length": "16", "subject": "A18QU0YQB6Q8DF:3VE8AYVF8N5BS2NU6U3TMN50JMNF8V"}
{"meta_move": "drag_end", "rt": "3569.0", "trial_number": "7", "pre_actions": "1", "move": "1@18", "instance": "prb45893", "distance_to_goal": "NA", "progress": "NA", "move_number": "3", "optimal_length": "16", "subject": "A18QU0YQB6Q8DF:3VE8AYVF8N5BS2NU6U3TMN50JMNF8V"}
{"meta_move": "drag_end", "rt": "1425.0", "trial_number": "7", "pre_actions": "1", "move": "4@23", "instance": "prb45893", "distance_to_goal": "NA", "progress": "NA", "move_number": "3", "optimal_length": "16", "subject": "A18QU0YQB6Q8DF:3VE8AYVF8N5BS2NU6U3TMN50JMNF8V"}
{"meta_move": "drag_end", "rt": "1431.0", "trial_number": "7", "pre_actions": "1", "move": "1@20", "instance": "prb45893", "distance_to_goal": "NA", "progress": "NA", "move_number": "4", "optimal_length": "16", "subject": "A18QU0YQB6Q8DF:3VE8AYVF8N5BS2NU6U3TMN50JMNF8V"}
{"meta_move": "drag_end", "rt": "5516.0", "trial_number": "7", "pre_actions": "1", "move": "5@25", "instance": "prb45893", "distance_to_goal": "NA", "progress": "NA", "move_number": "5", "optimal_length": "16", "subject": "A18QU0YQB6Q8DF:3VE8AYVF8N5BS2NU6U3TMN50JMNF8V"}
{"meta_move": "drag_end", "rt": "1665.0", "trial_number": "7", "pre_actions": "1", "move": "3@24", "instance": "prb45893", "distance_to_goal": "NA", "progress": "NA", "move_number": "6", "optimal_length": "16", "subject": "A18QU0YQB6Q8DF:3VE8AYVF8N5BS2NU6U3TMN50JMNF8V"}
{"meta_move": "drag_end", "rt": "187.0", "trial_number": "7", "pre_actions": "1", "move": "3@24", "instance": "prb45893", "distance_to_goal": "NA", "progress": "NA", "move_number": "7", "optimal_length": "16", "subject": "A18QU0YQB6Q8DF:3VE8AYVF8N5BS2NU6U3TMN50JMNF8V"}
{"meta_move": "drag_end", "rt": "2823.0", "trial_number": "7", "pre_actions": "1", "move": "7@2", "instance": "prb45893", "distance_to_goal": "NA", "progress": "NA", "move_number": "7", "optimal_length": "16", "subject": "A18QU0YQB6Q8DF:3VE8AYVF8N5BS2NU6U3TMN50JMNF8V"}
{"meta_move": "drag_end", "rt": "1157.0", "trial_number": "7", "pre_actions": "1", "move": "r@12", "instance": "prb45893", "distance_to_goal": "NA", "progress": "NA", "move_number": "7", "optimal_length": "16", "subject": "A18QU0YQB6Q8DF:3VE8AYVF8N5BS2NU6U3TMN50JMNF8V"}
{"meta_move": "drag_end", "rt": "3874.0", "trial_number": "7", "pre_actions": "1", "move": "1@18", "instance": "prb45893", "distance_to_goal": "NA", "progress": "NA", "move_number": "8", "optimal_length": "16", "subject": "A18QU0YQB6Q8DF:3VE8AYVF8N5BS2NU6U3TMN50JMNF8V"}
{"meta_move": "drag_end", "rt": "1042.0", "trial_number": "7", "pre_actions": "1", "move": "6@15", "instance": "prb45893", "distance_to_goal": "NA", "progress": "NA", "move_number": "9", "optimal_length": "16", "subject": "A18QU0YQB6Q8DF:3VE8AYVF8N5BS2NU6U3TMN50JMNF8V"}
{"meta_move": "drag_end", "rt": "2178.0", "trial_number": "7", "pre_actions": "1", "move": "7@8", "instance": "prb45893", "distance_to_goal": "NA", "progress": "NA", "move_number": "10", "optimal_length": "16", "subject": "A18QU0YQB6Q8DF:3VE8AYVF8N5BS2NU6U3TMN50JMNF8V"}
{"meta_move": "drag_end", "rt": "1330.0", "trial_number": "7", "pre_actions": "1", "move": "2@0", "instance": "prb45893", "distance_to_goal": "NA", "progress": "NA", "move_number": "11", "optimal_length": "16", "subject": "A18QU0YQB6Q8DF:3VE8AYVF8N5BS2NU6U3TMN50JMNF8V"}
{"meta_move": "drag_end", "rt": "2031.0", "trial_number": "7", "pre_actions": "1", "move": "6@3", "instance": "prb45893", "distance_to_goal": "NA", "progress": "NA", "move_number": "12", "optimal_length": "16", "subject": "A18QU0YQB6Q8DF:3VE8AYVF8N5BS2NU6U3TMN50JMNF8V"}
{"meta_move": "drag_end", "rt": "2986.0", "trial_number": "7", "pre_actions": "1", "move": "1@20", "instance": "prb45893", "distance_to_goal": "NA", "progress": "NA", "move_number": "13", "optimal_length": "16", "subject": "A18QU0YQB6Q8DF:3VE8AYVF8N5BS2NU6U3TMN50JMNF8V"}
{"meta_move": "drag_end", "rt": "1206.0", "trial_number": "7", "pre_actions": "1", "move": "0@27", "instance": "prb45893", "distance_to_goal": "NA", "progress": "NA", "move_number": "14", "optimal_length": "16", "subject": "A18QU0YQB6Q8DF:3VE8AYVF8N5BS2NU6U3TMN50JMNF8V"}
{"meta_move": "drag_end", "rt": "560.0", "trial_number": "7", "pre_actions": "1", "move": "5@25", "instance": "prb45893", "distance_to_goal": "NA", "progress": "NA", "move_number": "14", "optimal_length": "16", "subject": "A18QU0YQB6Q8DF:3VE8AYVF8N5BS2NU6U3TMN50JMNF8V"}
{"meta_move": "drag_end", "rt": "1440.0", "trial_number": "7", "pre_actions": "1", "move": "3@24", "instance": "prb45893", "distance_to_goal": "NA", "progress": "NA", "move_number": "14", "optimal_length": "16", "subject": "A18QU0YQB6Q8DF:3VE8AYVF8N5BS2NU6U3TMN50JMNF8V"}
{"meta_move": "drag_end", "rt": "1679.0", "trial_number": "7", "pre_actions": "1", "move": "4@5", "instance": "prb45893", "distance_to_goal": "NA", "progress": "NA", "move_number": "14", "optimal_length": "16", "subject": "A18QU0YQB6Q8DF:3VE8AYVF8N5BS2NU6U3TMN50JMNF8V"}
{"meta_move": "drag_end", "rt": "3480.0", "trial_number": "1", "pre_actions": "1", "move": "4@23", "instance": "prb45893", "distance_to_goal": "NA", "progress": "NA", "move_number": "0", "optimal_length": "16", "subject": "A191V7PT3DQKDP:3PMBY0YE28B43VMUKKJ6EDF85RV9C8"}
{"meta_move": "drag_end", "rt": "1192.0", "trial_number": "1", "pre_actions": "1", "move": "6@9", "instance": "prb45893", "distance_to_goal": "NA", "progress": "NA", "move_number": "1", "optimal_length": "16", "subject": "A191V7PT3DQKDP:3PMBY0YE28B43VMUKKJ6EDF85RV9C8"}
{"meta_move": "drag_end", "rt": "1872.0", "trial_number": "1", "pre_actions": "1", "move": "1@20", "instance": "prb45893", "distance_to_goal": "NA", "progress": "NA", "move_number": "2", "optimal_length": "16", "subject": "A191V7PT3DQKDP:3PMBY0YE28B43VMUKKJ6EDF85RV9C8"}
{"meta_move": "drag_end", "rt": "770.0", "trial_number": "1", "pre_actions": "1", "move": "5@25", "instance": "prb45893", "distance_to_goal": "NA", "progress": "NA", "move_number": "3", "optimal_length": "16", "subject": "A191V7PT3DQKDP:3PMBY0YE28B43VMUKKJ6EDF85RV9C8"}
{"meta_move": "drag_end", "rt": "719.0", "trial_number": "1", "pre_actions": "1", "move": "3@24", "instance": "prb45893", "distance_to_goal": "NA", "progress": "NA", "move_number": "4", "optimal_length": "16", "subject": "A191V7PT3DQKDP:3PMBY0YE28B43VMUKKJ6EDF85RV9C8"}
{"meta_move": "drag_end", "rt": "568.0", "trial_number": "1", "pre_actions": "1", "move": "r@12", "instance": "prb45893", "distance_to_goal": "NA", "progress": "NA", "move_number": "5", "optimal_length": "16", "subject": "A191V7PT3DQKDP:3PMBY0YE28B43VMUKKJ6EDF85RV9C8"}
{"meta_move": "drag_end", "rt": "1090.0", "trial_number": "1", "pre_actions": "1", "move": "7@8", "instance": "prb45893", "distance_to_goal": "NA", "progress": "NA", "move_number": "6", "optimal_length": "16", "subject": "A191V7PT3DQKDP:3PMBY0YE28B43VMUKKJ6EDF85RV9C8"}
{"meta_move": "drag_end", "rt": "686.0", "trial_number": "1", "pre_actions": "1", "move": "2@0", "instance": "prb45893", "distance_to_goal": "NA", "progress": "NA", "move_number": "7", "optimal_length": "16", "subject": "A191V7PT3DQKDP:3PMBY0YE28B43VMUKKJ6EDF85RV9C8"}
{"meta_move": "drag_end", "rt": "855.0", "trial_number": "1", "pre_actions": "1", "move": "6@3", "instance": "prb45893", "distance_to_goal": "NA", "progress": "NA", "move_number": "8", "optimal_length": "16", "subject": "A191V7PT3DQKDP:3PMBY0YE28B43VMUKKJ6EDF85RV9C8"}
{"meta_move": "drag_end", "rt": "753.0", "trial_number": "1", "pre_actions": "1", "move": "1@18", "instance": "prb45893", "distance_to_goal": "NA", "progress": "NA", "move_number": "9", "optimal_length": "16", "subject": "A191V7PT3DQKDP:3PMBY0YE28B43VMUKKJ6EDF85RV9C8"}
{"meta_move": "drag_end", "rt": "1503.0", "trial_number": "1", "pre_actions": "1", "move": "6@15", "instance": "prb45893", "distance_to_goal": "NA", "progress": "NA", "move_number": "10", "optimal_length": "16", "subject": "A191V7PT3DQKDP:3PMBY0YE28B43VMUKKJ6EDF85RV9C8"}
{"meta_move": "drag_end", "rt": "1105.0", "trial_number": "1", "pre_actions": "1", "move": "4@5", "instance": "prb45893", "distance_to_goal": "NA", "progress": "NA", "move_number": "11", "optimal_length": "16", "subject": "A191V7PT3DQKDP:3PMBY0YE28B43VMUKKJ6EDF85RV9C8"}
{"meta_move": "drag_end", "rt": "599.0", "trial_number": "1", "pre_actions": "1", "move": "6@3", "instance": "prb45893", "distance_to_goal": "NA", "progress": "NA", "move_number": "12", "optimal_length": "16", "subject": "A191V7PT3DQKDP:3PMBY0YE28B43VMUKKJ6EDF85RV9C8"}
{"meta_move": "drag_end", "rt": "584.0", "trial_number": "1", "pre_actions": "1", "move": "0@15", "instance": "prb45893", "distance_to_goal": "NA", "progress": "NA", "move_number": "13", "optimal_length": "16", "subject": "A191V7PT3DQKDP:3PMBY0YE28B43VMUKKJ6EDF85RV9C8"}
{"meta_move": "drag_end", "rt": "650.0", "trial_number": "1", "pre_actions": "1", "move": "5@28", "instance": "prb45893", "distance_to_goal": "NA", "progress": "NA", "move_number": "14", "optimal_length": "16", "subject": "A191V7PT3DQKDP:3PMBY0YE28B43VMUKKJ6EDF85RV9C8"}
{"meta_move": "drag_end", "rt": "609.0", "trial_number": "1", "pre_actions": "1", "move": "0@27", "instance": "prb45893", "distance_to_goal": "NA", "progress": "NA", "move_number": "15", "optimal_length": "16", "subject": "A191V7PT3DQKDP:3PMBY0YE28B43VMUKKJ6EDF85RV9C8"}
{"meta_move": "drag_end", "rt": "847.0", "trial_number": "1", "pre_actions": "1", "move": "6@15", "instance": "prb45893", "distance_to_goal": "NA", "progress": "NA", "move_number": "16", "optimal_length": "16", "subject": "A191V7PT3DQKDP:3PMBY0YE28B43VMUKKJ6EDF85RV9C8"}
{"meta_move": "drag_end", "rt": "729.0", "trial_number": "1", "pre_actions": "1", "move": "2@2", "instance": "prb45893", "distance_to_goal": "NA", "progress": "NA", "move_number": "17", "optimal_length": "16", "subject": "A191V7PT3DQKDP:3PMBY0YE28B43VMUKKJ6EDF85RV9C8"}
{"meta_move": "drag_end", "rt": "1183.0", "trial_number": "1", "pre_actions": "1", "move": "4@11", "instance": "prb45893", "distance_to_goal": "NA", "progress": "NA", "move_number": "18", "optimal_length": "16", "subject": "A191V7PT3DQKDP:3PMBY0YE28B43VMUKKJ6EDF85RV9C8"}
{"meta_move": "drag_end", "rt": "430.0", "trial_number": "1", "pre_actions": "1", "move": "2@3", "instance": "prb45893", "distance_to_goal": "NA", "progress": "NA", "move_number": "19", "optimal_length": "16", "subject": "A191V7PT3DQKDP:3PMBY0YE28B43VMUKKJ6EDF85RV9C8"}
{"meta_move": "drag_end", "rt": "513.0", "trial_number": "1", "pre_actions": "1", "move": "7@2", "instance": "prb45893", "distance_to_goal": "NA", "progress": "NA", "move_number": "20", "optimal_length": "16", "subject": "A191V7PT3DQKDP:3PMBY0YE28B43VMUKKJ6EDF85RV9C8"}
{"meta_move": "drag_end", "rt": "1048.0", "trial_number": "1", "pre_actions": "1", "move": "6@9", "instance": "prb45893", "distance_to_goal": "NA", "progress": "NA", "move_number": "21", "optimal_length": "16", "subject": "A191V7PT3DQKDP:3PMBY0YE28B43VMUKKJ6EDF85RV9C8"}
{"meta_move": "drag_end", "rt": "823.0", "trial_number": "1", "pre_actions": "1", "move": "r@13", "instance": "prb45893", "distance_to_goal": "NA", "progress": "NA", "move_number": "22", "optimal_length": "16", "subject": "A191V7PT3DQKDP:3PMBY0YE28B43VMUKKJ6EDF85RV9C8"}
{"meta_move": "drag_end", "rt": "584.0", "trial_number": "1", "pre_actions": "1", "move": "1@20", "instance": "prb45893", "distance_to_goal": "NA", "progress": "NA", "move_number": "23", "optimal_length": "16", "subject": "A191V7PT3DQKDP:3PMBY0YE28B43VMUKKJ6EDF85RV9C8"}
{"meta_move": "drag_end", "rt": "728.0", "trial_number": "1", "pre_actions": "1", "move": "3@0", "instance": "prb45893", "distance_to_goal": "NA", "progress": "NA", "move_number": "24", "optimal_length": "16", "subject": "A191V7PT3DQKDP:3PMBY0YE28B43VMUKKJ6EDF85RV9C8"}
{"meta_move": "drag_end", "rt": "1097.0", "trial_number": "1", "pre_actions": "1", "move": "r@12", "instance": "prb45893", "distance_to_goal": "NA", "progress": "NA", "move_number": "25", "optimal_length": "16", "subject": "A191V7PT3DQKDP:3PMBY0YE28B43VMUKKJ6EDF85RV9C8"}
{"meta_move": "drag_end", "rt": "1263.0", "trial_number": "1", "pre_actions": "1", "move": "1@18", "instance": "prb45893", "distance_to_goal": "NA", "progress": "NA", "move_number": "26", "optimal_length": "16", "subject": "A191V7PT3DQKDP:3PMBY0YE28B43VMUKKJ6EDF85RV9C8"}
{"meta_move": "drag_end", "rt": "1153.0", "trial_number": "1", "pre_actions": "1", "move": "0@21", "instance": "prb45893", "distance_to_goal": "NA", "progress": "NA", "move_number": "27", "optimal_length": "16", "subject": "A191V7PT3DQKDP:3PMBY0YE28B43VMUKKJ6EDF85RV9C8"}
{"meta_move": "drag_end", "rt": "706.0", "trial_number": "1", "pre_actions": "1", "move": "0@27", "instance": "prb45893", "distance_to_goal": "NA", "progress": "NA", "move_number": "28", "optimal_length": "16", "subject": "A191V7PT3DQKDP:3PMBY0YE28B43VMUKKJ6EDF85RV9C8"}
{"meta_move": "drag_end", "rt": "726.0", "trial_number": "1", "pre_actions": "1", "move": "7@8", "instance": "prb45893", "distance_to_goal": "NA", "progress": "NA", "move_number": "29", "optimal_length": "16", "subject": "A191V7PT3DQKDP:3PMBY0YE28B43VMUKKJ6EDF85RV9C8"}
{"meta_move": "drag_end", "rt": "1511.0", "trial_number": "1", "pre_actions": "1", "move": "2@1", "instance": "prb45893", "distance_to_goal": "NA", "progress": "NA", "move_number": "30", "optimal_length": "16", "subject": "A191V7PT3DQKDP:3PMBY0YE28B43VMUKKJ6EDF85RV9C8"}
{"meta_move": "drag_end", "rt": "1321.0", "trial_number": "1", "pre_actions": "1", "move": "4@5", "instance": "prb45893", "distance_to_goal": "NA", "progress": "NA", "move_number": "31", "optimal_length": "16", "subject": "A191V7PT3DQKDP:3PMBY0YE28B43VMUKKJ6EDF85RV9C8"}
{"meta_move": "drag_end", "rt": "3809.0", "trial_number": "1", "pre_actions": "1", "move": "6@15", "instance": "prb45893", "distance_to_goal": "NA", "progress": "NA", "move_number": "32", "optimal_length": "16", "subject": "A191V7PT3DQKDP:3PMBY0YE28B43VMUKKJ6EDF85RV9C8"}
{"meta_move": "drag_end", "rt": "719.0", "trial_number": "1", "pre_actions": "1", "move": "2@2", "instance": "prb45893", "distance_to_goal": "NA", "progress": "NA", "move_number": "33", "optimal_length": "16", "subject": "A191V7PT3DQKDP:3PMBY0YE28B43VMUKKJ6EDF85RV9C8"}
{"meta_move": "drag_end", "rt": "959.0", "trial_number": "1", "pre_actions": "1", "move": "6@9", "instance": "prb45893", "distance_to_goal": "NA", "progress": "NA", "move_number": "34", "optimal_length": "16", "subject": "A191V7PT3DQKDP:3PMBY0YE28B43VMUKKJ6EDF85RV9C8"}
{"meta_move": "drag_end", "rt": "728.0", "trial_number": "1", "pre_actions": "1", "move": "1@21", "instance": "prb45893", "distance_to_goal": "NA", "progress": "NA", "move_number": "35", "optimal_length": "16", "subject": "A191V7PT3DQKDP:3PMBY0YE28B43VMUKKJ6EDF85RV9C8"}
{"meta_move": "drag_end", "rt": "696.0", "trial_number": "1", "pre_actions": "1", "move": "7@20", "instance": "prb45893", "distance_to_goal": "NA", "progress": "NA", "move_number": "36", "optimal_length": "16", "subject": "A191V7PT3DQKDP:3PMBY0YE28B43VMUKKJ6EDF85RV9C8"}
{"meta_move": "drag_end", "rt": "505.0", "trial_number": "1", "pre_actions": "1", "move": "r@13", "instance": "prb45893", "distance_to_goal": "NA", "progress": "NA", "move_number": "37", "optimal_length": "16", "subject": "A191V7PT3DQKDP:3PMBY0YE28B43VMUKKJ6EDF85RV9C8"}
{"meta_move": "drag_end", "rt": "1199.0", "trial_number": "1", "pre_actions": "1", "move": "3@6", "instance": "prb45893", "distance_to_goal": "NA", "progress": "NA", "move_number": "38", "optimal_length": "16", "subject": "A191V7PT3DQKDP:3PMBY0YE28B43VMUKKJ6EDF85RV9C8"}
{"meta_move": "drag_end", "rt": "704.0", "trial_number": "1", "pre_actions": "1", "move": "2@0", "instance": "prb45893", "distance_to_goal": "NA", "progress": "NA", "move_number": "39", "optimal_length": "16", "subject": "A191V7PT3DQKDP:3PMBY0YE28B43VMUKKJ6EDF85RV9C8"}
{"meta_move": "drag_end", "rt": "681.0", "trial_number": "1", "pre_actions": "1", "move": "6@3", "instance": "prb45893", "distance_to_goal": "NA", "progress": "NA", "move_number": "40", "optimal_length": "16", "subject": "A191V7PT3DQKDP:3PMBY0YE28B43VMUKKJ6EDF85RV9C8"}
{"meta_move": "drag_end", "rt": "807.0", "trial_number": "1", "pre_actions": "1", "move": "r@15", "instance": "prb45893", "distance_to_goal": "NA", "progress": "NA", "move_number": "41", "optimal_length": "16", "subject": "A191V7PT3DQKDP:3PMBY0YE28B43VMUKKJ6EDF85RV9C8"}
{"meta_move": "drag_end", "rt": "1624.0", "trial_number": "1", "pre_actions": "1", "move": "7@8", "instance": "prb45893", "distance_to_goal": "NA", "progress": "NA", "move_number": "42", "optimal_length": "16", "subject": "A191V7PT3DQKDP:3PMBY0YE28B43VMUKKJ6EDF85RV9C8"}
{"meta_move": "drag_end", "rt": "680.0", "trial_number": "1", "pre_actions": "1", "move": "3@24", "instance": "prb45893", "distance_to_goal": "NA", "progress": "NA", "move_number": "43", "optimal_length": "16", "subject": "A191V7PT3DQKDP:3PMBY0YE28B43VMUKKJ6EDF85RV9C8"}
{"meta_move": "drag_end", "rt": "969.0", "trial_number": "1", "pre_actions": "1", "move": "7@26", "instance": "prb45893", "distance_to_goal": "NA", "progress": "NA", "move_number": "44", "optimal_length": "16", "subject": "A191V7PT3DQKDP:3PMBY0YE28B43VMUKKJ6EDF85RV9C8"}
{"meta_move": "drag_end", "rt": "1756.0", "trial_number": "1", "pre_actions": "1", "move": "r@14", "instance": "prb45893", "distance_to_goal": "NA", "progress": "NA", "move_number": "45", "optimal_length": "16", "subject": "A191V7PT3DQKDP:3PMBY0YE28B43VMUKKJ6EDF85RV9C8"}
{"meta_move": "drag_end", "rt": "632.0", "trial_number": "1", "pre_actions": "1", "move": "1@18", "instance": "prb45893", "distance_to_goal": "NA", "progress": "NA", "move_number": "46", "optimal_length": "16", "subject": "A191V7PT3DQKDP:3PMBY0YE28B43VMUKKJ6EDF85RV9C8"}
{"meta_move": "drag_end", "rt": "1705.0", "trial_number": "1", "pre_actions": "1", "move": "1@21", "instance": "prb45893", "distance_to_goal": "NA", "progress": "NA", "move_number": "47", "optimal_length": "16", "subject": "A191V7PT3DQKDP:3PMBY0YE28B43VMUKKJ6EDF85RV9C8"}
{"meta_move": "drag_end", "rt": "1910.0", "trial_number": "1", "pre_actions": "1", "move": "r@15", "instance": "prb45893", "distance_to_goal": "NA", "progress": "NA", "move_number": "48", "optimal_length": "16", "subject": "A191V7PT3DQKDP:3PMBY0YE28B43VMUKKJ6EDF85RV9C8"}
{"meta_move": "drag_end", "rt": "1865.0", "trial_number": "1", "pre_actions": "1", "move": "7@8", "instance": "prb45893", "distance_to_goal": "NA", "progress": "NA", "move_number": "49", "optimal_length": "16", "subject": "A191V7PT3DQKDP:3PMBY0YE28B43VMUKKJ6EDF85RV9C8"}
{"meta_move": "drag_end", "rt": "858.0", "trial_number": "1", "pre_actions": "1", "move": "7@26", "instance": "prb45893", "distance_to_goal": "NA", "progress": "NA", "move_number": "50", "optimal_length": "16", "subject": "A191V7PT3DQKDP:3PMBY0YE28B43VMUKKJ6EDF85RV9C8"}
{"meta_move": "drag_end", "rt": "861.0", "trial_number": "1", "pre_actions": "1", "move": "r@12", "instance": "prb45893", "distance_to_goal": "NA", "progress": "NA", "move_number": "51", "optimal_length": "16", "subject": "A191V7PT3DQKDP:3PMBY0YE28B43VMUKKJ6EDF85RV9C8"}
{"meta_move": "drag_end", "rt": "793.0", "trial_number": "1", "pre_actions": "1", "move": "1@18", "instance": "prb45893", "distance_to_goal": "NA", "progress": "NA", "move_number": "52", "optimal_length": "16", "subject": "A191V7PT3DQKDP:3PMBY0YE28B43VMUKKJ6EDF85RV9C8"}
{"meta_move": "drag_end", "rt": "8471.0", "trial_number": "1", "pre_actions": "1", "move": "0@21", "instance": "prb45893", "distance_to_goal": "NA", "progress": "NA", "move_number": "53", "optimal_length": "16", "subject": "A191V7PT3DQKDP:3PMBY0YE28B43VMUKKJ6EDF85RV9C8"}
{"meta_move": "drag_end", "rt": "2049.0", "trial_number": "1", "pre_actions": "1", "move": "r@15", "instance": "prb45893", "distance_to_goal": "NA", "progress": "NA", "move_number": "54", "optimal_length": "16", "subject": "A191V7PT3DQKDP:3PMBY0YE28B43VMUKKJ6EDF85RV9C8"}
{"meta_move": "drag_end", "rt": "2479.0", "trial_number": "1", "pre_actions": "1", "move": "r@12", "instance": "prb45893", "distance_to_goal": "NA", "progress": "NA", "move_number": "55", "optimal_length": "16", "subject": "A191V7PT3DQKDP:3PMBY0YE28B43VMUKKJ6EDF85RV9C8"}
{"meta_move": "drag_end", "rt": "1305.0", "trial_number": "1", "pre_actions": "1", "move": "0@27", "instance": "prb45893", "distance_to_goal": "NA", "progress": "NA", "move_number": "56", "optimal_length": "16", "subject": "A191V7PT3DQKDP:3PMBY0YE28B43VMUKKJ6EDF85RV9C8"}
{"meta_move": "drag_end", "rt": "551.0", "trial_number": "1", "pre_actions": "1", "move": "1@21", "instance": "prb45893", "distance_to_goal": "NA", "progress": "NA", "move_number": "57", "optimal_length": "16", "subject": "A191V7PT3DQKDP:3PMBY0YE28B43VMUKKJ6EDF85RV9C8"}
{"meta_move": "drag_end", "rt": "1344.0", "trial_number": "1", "pre_actions": "1", "move": "7@8", "instance": "prb45893", "distance_to_goal": "NA", "progress": "NA", "move_number": "58", "optimal_length": "16", "subject": "A191V7PT3DQKDP:3PMBY0YE28B43VMUKKJ6EDF85RV9C8"}
{"meta_move": "drag_end", "rt": "697.0", "trial_number": "1", "pre_actions": "1", "move": "1@18", "instance": "prb45893", "distance_to_goal": "NA", "progress": "NA", "move_number": "59", "optimal_length": "16", "subject": "A191V7PT3DQKDP:3PMBY0YE28B43VMUKKJ6EDF85RV9C8"}
{"meta_move": "drag_end", "rt": "745.0", "trial_number": "1", "pre_actions": "1", "move": "0@15", "instance": "prb45893", "distance_to_goal": "NA", "progress": "NA", "move_number": "60", "optimal_length": "16", "subject": "A191V7PT3DQKDP:3PMBY0YE28B43VMUKKJ6EDF85RV9C8"}
{"meta_move": "drag_end", "rt": "647.0", "trial_number": "1", "pre_actions": "1", "move": "5@25", "instance": "prb45893", "distance_to_goal": "NA", "progress": "NA", "move_number": "61", "optimal_length": "16", "subject": "A191V7PT3DQKDP:3PMBY0YE28B43VMUKKJ6EDF85RV9C8"}
{"meta_move": "drag_end", "rt": "737.0", "trial_number": "1", "pre_actions": "1", "move": "0@27", "instance": "prb45893", "distance_to_goal": "NA", "progress": "NA", "move_number": "62", "optimal_length": "16", "subject": "A191V7PT3DQKDP:3PMBY0YE28B43VMUKKJ6EDF85RV9C8"}
{"meta_move": "drag_end", "rt": "679.0", "trial_number": "1", "pre_actions": "1", "move": "1@21", "instance": "prb45893", "distance_to_goal": "NA", "progress": "NA", "move_number": "63", "optimal_length": "16", "subject": "A191V7PT3DQKDP:3PMBY0YE28B43VMUKKJ6EDF85RV9C8"}
{"meta_move": "drag_end", "rt": "4528.0", "trial_number": "1", "pre_actions": "1", "move": "1@19", "instance": "prb45893", "distance_to_goal": "NA", "progress": "NA", "move_number": "64", "optimal_length": "16", "subject": "A191V7PT3DQKDP:3PMBY0YE28B43VMUKKJ6EDF85RV9C8"}
{"meta_move": "drag_end", "rt": "728.0", "trial_number": "1", "pre_actions": "1", "move": "4@23", "instance": "prb45893", "distance_to_goal": "NA", "progress": "NA", "move_number": "65", "optimal_length": "16", "subject": "A191V7PT3DQKDP:3PMBY0YE28B43VMUKKJ6EDF85RV9C8"}
{"meta_move": "drag_end", "rt": "1151.0", "trial_number": "1", "pre_actions": "1", "move": "1@20", "instance": "prb45893", "distance_to_goal": "NA", "progress": "NA", "move_number": "66", "optimal_length": "16", "subject": "A191V7PT3DQKDP:3PMBY0YE28B43VMUKKJ6EDF85RV9C8"}
{"meta_move": "drag_end", "rt": "1104.0", "trial_number": "1", "pre_actions": "1", "move": "6@9", "instance": "prb45893", "distance_to_goal": "NA", "progress": "NA", "move_number": "67", "optimal_length": "16", "subject": "A191V7PT3DQKDP:3PMBY0YE28B43VMUKKJ6EDF85RV9C8"}
{"meta_move": "drag_end", "rt": "600.0", "trial_number": "1", "pre_actions": "1", "move": "2@3", "instance": "prb45893", "distance_to_goal": "NA", "progress": "NA", "move_number": "68", "optimal_length": "16", "subject": "A191V7PT3DQKDP:3PMBY0YE28B43VMUKKJ6EDF85RV9C8"}
{"meta_move": "drag_end", "rt": "752.0", "trial_number": "1", "pre_actions": "1", "move": "7@2", "instance": "prb45893", "distance_to_goal": "NA", "progress": "NA", "move_number": "69", "optimal_length": "16", "subject": "A191V7PT3DQKDP:3PMBY0YE28B43VMUKKJ6EDF85RV9C8"}
{"meta_move": "drag_end", "rt": "953.0", "trial_number": "1", "pre_actions": "1", "move": "r@13", "instance": "prb45893", "distance_to_goal": "NA", "progress": "NA", "move_number": "70", "optimal_length": "16", "subject": "A191V7PT3DQKDP:3PMBY0YE28B43VMUKKJ6EDF85RV9C8"}
{"meta_move": "drag_end", "rt": "650.0", "trial_number": "1", "pre_actions": "1", "move": "3@6", "instance": "prb45893", "distance_to_goal": "NA", "progress": "NA", "move_number": "71", "optimal_length": "16", "subject": "A191V7PT3DQKDP:3PMBY0YE28B43VMUKKJ6EDF85RV9C8"}
{"meta_move": "drag_end", "rt": "741.0", "trial_number": "1", "pre_actions": "1", "move": "5@24", "instance": "prb45893", "distance_to_goal": "NA", "progress": "NA", "move_number": "72", "optimal_length": "16", "subject": "A191V7PT3DQKDP:3PMBY0YE28B43VMUKKJ6EDF85RV9C8"}
{"meta_move": "drag_end", "rt": "632.0", "trial_number": "1", "pre_actions": "1", "move": "1@18", "instance": "prb45893", "distance_to_goal": "NA", "progress": "NA", "move_number": "73", "optimal_length": "16", "subject": "A191V7PT3DQKDP:3PMBY0YE28B43VMUKKJ6EDF85RV9C8"}
{"meta_move": "drag_end", "rt": "3240.0", "trial_number": "1", "pre_actions": "1", "move": "6@9", "instance": "prb45893", "distance_to_goal": "NA", "progress": "NA", "move_number": "74", "optimal_length": "16", "subject": "A191V7PT3DQKDP:3PMBY0YE28B43VMUKKJ6EDF85RV9C8"}
{"meta_move": "drag_end", "rt": "1674.0", "trial_number": "1", "pre_actions": "1", "move": "0@27", "instance": "prb45893", "distance_to_goal": "NA", "progress": "NA", "move_number": "74", "optimal_length": "16", "subject": "A191V7PT3DQKDP:3PMBY0YE28B43VMUKKJ6EDF85RV9C8"}
{"meta_move": "drag_end", "rt": "575.0", "trial_number": "1", "pre_actions": "1", "move": "1@20", "instance": "prb45893", "distance_to_goal": "NA", "progress": "NA", "move_number": "74", "optimal_length": "16", "subject": "A191V7PT3DQKDP:3PMBY0YE28B43VMUKKJ6EDF85RV9C8"}
{"meta_move": "drag_end", "rt": "632.0", "trial_number": "1", "pre_actions": "1", "move": "5@25", "instance": "prb45893", "distance_to_goal": "NA", "progress": "NA", "move_number": "75", "optimal_length": "16", "subject": "A191V7PT3DQKDP:3PMBY0YE28B43VMUKKJ6EDF85RV9C8"}
{"meta_move": "drag_end", "rt": "686.0", "trial_number": "1", "pre_actions": "1", "move": "3@0", "instance": "prb45893", "distance_to_goal": "NA", "progress": "NA", "move_number": "76", "optimal_length": "16", "subject": "A191V7PT3DQKDP:3PMBY0YE28B43VMUKKJ6EDF85RV9C8"}
{"meta_move": "drag_end", "rt": "755.0", "trial_number": "1", "pre_actions": "1", "move": "r@12", "instance": "prb45893", "distance_to_goal": "NA", "progress": "NA", "move_number": "77", "optimal_length": "16", "subject": "A191V7PT3DQKDP:3PMBY0YE28B43VMUKKJ6EDF85RV9C8"}
{"meta_move": "drag_end", "rt": "802.0", "trial_number": "1", "pre_actions": "1", "move": "7@8", "instance": "prb45893", "distance_to_goal": "NA", "progress": "NA", "move_number": "78", "optimal_length": "16", "subject": "A191V7PT3DQKDP:3PMBY0YE28B43VMUKKJ6EDF85RV9C8"}
{"meta_move": "drag_end", "rt": "853.0", "trial_number": "1", "pre_actions": "1", "move": "2@1", "instance": "prb45893", "distance_to_goal": "NA", "progress": "NA", "move_number": "79", "optimal_length": "16", "subject": "A191V7PT3DQKDP:3PMBY0YE28B43VMUKKJ6EDF85RV9C8"}
{"meta_move": "drag_end", "rt": "1591.0", "trial_number": "1", "pre_actions": "1", "move": "2@2", "instance": "prb45893", "distance_to_goal": "NA", "progress": "NA", "move_number": "80", "optimal_length": "16", "subject": "A191V7PT3DQKDP:3PMBY0YE28B43VMUKKJ6EDF85RV9C8"}
{"meta_move": "drag_end", "rt": "807.0", "trial_number": "1", "pre_actions": "1", "move": "2@3", "instance": "prb45893", "distance_to_goal": "NA", "progress": "NA", "move_number": "81", "optimal_length": "16", "subject": "A191V7PT3DQKDP:3PMBY0YE28B43VMUKKJ6EDF85RV9C8"}
{"meta_move": "drag_end", "rt": "849.0", "trial_number": "1", "pre_actions": "1", "move": "7@2", "instance": "prb45893", "distance_to_goal": "NA", "progress": "NA", "move_number": "82", "optimal_length": "16", "subject": "A191V7PT3DQKDP:3PMBY0YE28B43VMUKKJ6EDF85RV9C8"}
{"meta_move": "drag_end", "rt": "671.0", "trial_number": "1", "pre_actions": "1", "move": "r@13", "instance": "prb45893", "distance_to_goal": "NA", "progress": "NA", "move_number": "83", "optimal_length": "16", "subject": "A191V7PT3DQKDP:3PMBY0YE28B43VMUKKJ6EDF85RV9C8"}
{"meta_move": "drag_end", "rt": "3154.0", "trial_number": "1", "pre_actions": "1", "move": "3@24", "instance": "prb45893", "distance_to_goal": "NA", "progress": "NA", "move_number": "84", "optimal_length": "16", "subject": "A191V7PT3DQKDP:3PMBY0YE28B43VMUKKJ6EDF85RV9C8"}
{"meta_move": "drag_end", "rt": "1095.0", "trial_number": "1", "pre_actions": "1", "move": "1@18", "instance": "prb45893", "distance_to_goal": "NA", "progress": "NA", "move_number": "85", "optimal_length": "16", "subject": "A191V7PT3DQKDP:3PMBY0YE28B43VMUKKJ6EDF85RV9C8"}
{"meta_move": "drag_end", "rt": "2094.0", "trial_number": "1", "pre_actions": "1", "move": "6@9", "instance": "prb45893", "distance_to_goal": "NA", "progress": "NA", "move_number": "86", "optimal_length": "16", "subject": "A191V7PT3DQKDP:3PMBY0YE28B43VMUKKJ6EDF85RV9C8"}
{"meta_move": "drag_end", "rt": "2712.0", "trial_number": "1", "pre_actions": "1", "move": "r@12", "instance": "prb45893", "distance_to_goal": "NA", "progress": "NA", "move_number": "86", "optimal_length": "16", "subject": "A191V7PT3DQKDP:3PMBY0YE28B43VMUKKJ6EDF85RV9C8"}
{"meta_move": "drag_end", "rt": "584.0", "trial_number": "1", "pre_actions": "1", "move": "7@8", "instance": "prb45893", "distance_to_goal": "NA", "progress": "NA", "move_number": "87", "optimal_length": "16", "subject": "A191V7PT3DQKDP:3PMBY0YE28B43VMUKKJ6EDF85RV9C8"}
{"meta_move": "drag_end", "rt": "1328.0", "trial_number": "1", "pre_actions": "1", "move": "2@0", "instance": "prb45893", "distance_to_goal": "NA", "progress": "NA", "move_number": "88", "optimal_length": "16", "subject": "A191V7PT3DQKDP:3PMBY0YE28B43VMUKKJ6EDF85RV9C8"}
{"meta_move": "drag_end", "rt": "1607.0", "trial_number": "1", "pre_actions": "1", "move": "6@3", "instance": "prb45893", "distance_to_goal": "NA", "progress": "NA", "move_number": "89", "optimal_length": "16", "subject": "A191V7PT3DQKDP:3PMBY0YE28B43VMUKKJ6EDF85RV9C8"}
{"meta_move": "drag_end", "rt": "657.0", "trial_number": "1", "pre_actions": "1", "move": "6@15", "instance": "prb45893", "distance_to_goal": "NA", "progress": "NA", "move_number": "90", "optimal_length": "16", "subject": "A191V7PT3DQKDP:3PMBY0YE28B43VMUKKJ6EDF85RV9C8"}
{"meta_move": "drag_end", "rt": "887.0", "trial_number": "1", "pre_actions": "1", "move": "2@3", "instance": "prb45893", "distance_to_goal": "NA", "progress": "NA", "move_number": "91", "optimal_length": "16", "subject": "A191V7PT3DQKDP:3PMBY0YE28B43VMUKKJ6EDF85RV9C8"}
{"meta_move": "drag_end", "rt": "672.0", "trial_number": "1", "pre_actions": "1", "move": "7@2", "instance": "prb45893", "distance_to_goal": "NA", "progress": "NA", "move_number": "92", "optimal_length": "16", "subject": "A191V7PT3DQKDP:3PMBY0YE28B43VMUKKJ6EDF85RV9C8"}
{"meta_move": "drag_end", "rt": "929.0", "trial_number": "1", "pre_actions": "1", "move": "r@13", "instance": "prb45893", "distance_to_goal": "NA", "progress": "NA", "move_number": "93", "optimal_length": "16", "subject": "A191V7PT3DQKDP:3PMBY0YE28B43VMUKKJ6EDF85RV9C8"}
{"meta_move": "drag_end", "rt": "2903.0", "trial_number": "1", "pre_actions": "1", "move": "4@11", "instance": "prb45893", "distance_to_goal": "NA", "progress": "NA", "move_number": "94", "optimal_length": "16", "subject": "A191V7PT3DQKDP:3PMBY0YE28B43VMUKKJ6EDF85RV9C8"}
{"meta_move": "drag_end", "rt": "5624.0", "trial_number": "1", "pre_actions": "1", "move": "6@9", "instance": "prb45893", "distance_to_goal": "NA", "progress": "NA", "move_number": "95", "optimal_length": "16", "subject": "A191V7PT3DQKDP:3PMBY0YE28B43VMUKKJ6EDF85RV9C8"}
{"meta_move": "drag_end", "rt": "953.0", "trial_number": "1", "pre_actions": "1", "move": "0@27", "instance": "prb45893", "distance_to_goal": "NA", "progress": "NA", "move_number": "96", "optimal_length": "16", "subject": "A191V7PT3DQKDP:3PMBY0YE28B43VMUKKJ6EDF85RV9C8"}
{"meta_move": "drag_end", "rt": "599.0", "trial_number": "1", "pre_actions": "1", "move": "1@20", "instance": "prb45893", "distance_to_goal": "NA", "progress": "NA", "move_number": "96", "optimal_length": "16", "subject": "A191V7PT3DQKDP:3PMBY0YE28B43VMUKKJ6EDF85RV9C8"}
{"meta_move": "drag_end", "rt": "3768.0", "trial_number": "1", "pre_actions": "1", "move": "3@12", "instance": "prb45893", "distance_to_goal": "NA", "progress": "NA", "move_number": "97", "optimal_length": "16", "subject": "A191V7PT3DQKDP:3PMBY0YE28B43VMUKKJ6EDF85RV9C8"}
{"meta_move": "drag_end", "rt": "2528.0", "trial_number": "1", "pre_actions": "1", "move": "3@6", "instance": "prb45893", "distance_to_goal": "NA", "progress": "NA", "move_number": "98", "optimal_length": "16", "subject": "A191V7PT3DQKDP:3PMBY0YE28B43VMUKKJ6EDF85RV9C8"}
{"meta_move": "drag_end", "rt": "760.0", "trial_number": "1", "pre_actions": "1", "move": "5@24", "instance": "prb45893", "distance_to_goal": "NA", "progress": "NA", "move_number": "99", "optimal_length": "16", "subject": "A191V7PT3DQKDP:3PMBY0YE28B43VMUKKJ6EDF85RV9C8"}
{"meta_move": "drag_end", "rt": "578.0", "trial_number": "1", "pre_actions": "1", "move": "1@18", "instance": "prb45893", "distance_to_goal": "NA", "progress": "NA", "move_number": "100", "optimal_length": "16", "subject": "A191V7PT3DQKDP:3PMBY0YE28B43VMUKKJ6EDF85RV9C8"}
{"meta_move": "drag_end", "rt": "4350.0", "trial_number": "1", "pre_actions": "1", "move": "0@27", "instance": "prb45893", "distance_to_goal": "NA", "progress": "NA", "move_number": "101", "optimal_length": "16", "subject": "A191V7PT3DQKDP:3PMBY0YE28B43VMUKKJ6EDF85RV9C8"}
{"meta_move": "drag_end", "rt": "1712.0", "trial_number": "1", "pre_actions": "1", "move": "4@23", "instance": "prb45893", "distance_to_goal": "NA", "progress": "NA", "move_number": "101", "optimal_length": "16", "subject": "A191V7PT3DQKDP:3PMBY0YE28B43VMUKKJ6EDF85RV9C8"}
{"meta_move": "drag_end", "rt": "953.0", "trial_number": "1", "pre_actions": "1", "move": "1@20", "instance": "prb45893", "distance_to_goal": "NA", "progress": "NA", "move_number": "102", "optimal_length": "16", "subject": "A191V7PT3DQKDP:3PMBY0YE28B43VMUKKJ6EDF85RV9C8"}
{"meta_move": "drag_end", "rt": "959.0", "trial_number": "1", "pre_actions": "1", "move": "3@12", "instance": "prb45893", "distance_to_goal": "NA", "progress": "NA", "move_number": "103", "optimal_length": "16", "subject": "A191V7PT3DQKDP:3PMBY0YE28B43VMUKKJ6EDF85RV9C8"}
{"meta_move": "drag_end", "rt": "2216.0", "trial_number": "1", "pre_actions": "1", "move": "3@0", "instance": "prb45893", "distance_to_goal": "NA", "progress": "NA", "move_number": "104", "optimal_length": "16", "subject": "A191V7PT3DQKDP:3PMBY0YE28B43VMUKKJ6EDF85RV9C8"}
{"meta_move": "drag_end", "rt": "521.0", "trial_number": "1", "pre_actions": "1", "move": "r@12", "instance": "prb45893", "distance_to_goal": "NA", "progress": "NA", "move_number": "105", "optimal_length": "16", "subject": "A191V7PT3DQKDP:3PMBY0YE28B43VMUKKJ6EDF85RV9C8"}
{"meta_move": "drag_end", "rt": "608.0", "trial_number": "1", "pre_actions": "1", "move": "7@8", "instance": "prb45893", "distance_to_goal": "NA", "progress": "NA", "move_number": "106", "optimal_length": "16", "subject": "A191V7PT3DQKDP:3PMBY0YE28B43VMUKKJ6EDF85RV9C8"}
{"meta_move": "drag_end", "rt": "855.0", "trial_number": "1", "pre_actions": "1", "move": "2@1", "instance": "prb45893", "distance_to_goal": "NA", "progress": "NA", "move_number": "107", "optimal_length": "16", "subject": "A191V7PT3DQKDP:3PMBY0YE28B43VMUKKJ6EDF85RV9C8"}
{"meta_move": "drag_end", "rt": "3761.0", "trial_number": "1", "pre_actions": "1", "move": "1@19", "instance": "prb45893", "distance_to_goal": "NA", "progress": "NA", "move_number": "108", "optimal_length": "16", "subject": "A191V7PT3DQKDP:3PMBY0YE28B43VMUKKJ6EDF85RV9C8"}
{"meta_move": "drag_end", "rt": "600.0", "trial_number": "1", "pre_actions": "1", "move": "4@5", "instance": "prb45893", "distance_to_goal": "NA", "progress": "NA", "move_number": "109", "optimal_length": "16", "subject": "A191V7PT3DQKDP:3PMBY0YE28B43VMUKKJ6EDF85RV9C8"}
{"meta_move": "drag_end", "rt": "649.0", "trial_number": "1", "pre_actions": "1", "move": "1@21", "instance": "prb45893", "distance_to_goal": "NA", "progress": "NA", "move_number": "110", "optimal_length": "16", "subject": "A191V7PT3DQKDP:3PMBY0YE28B43VMUKKJ6EDF85RV9C8"}
{"meta_move": "drag_end", "rt": "1115.0", "trial_number": "1", "pre_actions": "1", "move": "7@26", "instance": "prb45893", "distance_to_goal": "NA", "progress": "NA", "move_number": "111", "optimal_length": "16", "subject": "A191V7PT3DQKDP:3PMBY0YE28B43VMUKKJ6EDF85RV9C8"}
{"meta_move": "drag_end", "rt": "546.0", "trial_number": "1", "pre_actions": "1", "move": "r@13", "instance": "prb45893", "distance_to_goal": "NA", "progress": "NA", "move_number": "112", "optimal_length": "16", "subject": "A191V7PT3DQKDP:3PMBY0YE28B43VMUKKJ6EDF85RV9C8"}
{"meta_move": "drag_end", "rt": "761.0", "trial_number": "1", "pre_actions": "1", "move": "3@12", "instance": "prb45893", "distance_to_goal": "NA", "progress": "NA", "move_number": "113", "optimal_length": "16", "subject": "A191V7PT3DQKDP:3PMBY0YE28B43VMUKKJ6EDF85RV9C8"}
{"meta_move": "drag_end", "rt": "560.0", "trial_number": "1", "pre_actions": "1", "move": "2@0", "instance": "prb45893", "distance_to_goal": "NA", "progress": "NA", "move_number": "114", "optimal_length": "16", "subject": "A191V7PT3DQKDP:3PMBY0YE28B43VMUKKJ6EDF85RV9C8"}
{"meta_move": "drag_end", "rt": "666.0", "trial_number": "1", "pre_actions": "1", "move": "6@3", "instance": "prb45893", "distance_to_goal": "NA", "progress": "NA", "move_number": "115", "optimal_length": "16", "subject": "A191V7PT3DQKDP:3PMBY0YE28B43VMUKKJ6EDF85RV9C8"}
{"meta_move": "drag_end", "rt": "669.0", "trial_number": "1", "pre_actions": "1", "move": "1@19", "instance": "prb45893", "distance_to_goal": "NA", "progress": "NA", "move_number": "116", "optimal_length": "16", "subject": "A191V7PT3DQKDP:3PMBY0YE28B43VMUKKJ6EDF85RV9C8"}
{"meta_move": "drag_end", "rt": "729.0", "trial_number": "1", "pre_actions": "1", "move": "4@23", "instance": "prb45893", "distance_to_goal": "NA", "progress": "NA", "move_number": "117", "optimal_length": "16", "subject": "A191V7PT3DQKDP:3PMBY0YE28B43VMUKKJ6EDF85RV9C8"}
{"meta_move": "win", "rt": "785.0", "trial_number": "1", "pre_actions": "1", "move": "r@13", "instance": "prb45893", "distance_to_goal": "1", "progress": "NA", "move_number": "118", "optimal_length": "16", "subject": "A191V7PT3DQKDP:3PMBY0YE28B43VMUKKJ6EDF85RV9C8"}
{"meta_move": "drag_end", "rt": "182.0", "trial_number": "0", "pre_actions": "0", "move": "r@16", "instance": "prb45893", "distance_to_goal": "NA", "progress": "NA", "move_number": "118", "optimal_length": "16", "subject": "A191V7PT3DQKDP:3PMBY0YE28B43VMUKKJ6EDF85RV9C8"}
{"meta_move": "drag_end", "rt": "3057.0", "trial_number": "1", "pre_actions": "1", "move": "3@0", "instance": "prb45893", "distance_to_goal": "NA", "progress": "NA", "move_number": "0", "optimal_length": "16", "subject": "A1F4N58CAX8IMK:3TS1AR6UQRM7SOIBWPBN8N9589Y7FV"}
{"meta_move": "drag_end", "rt": "3288.0", "trial_number": "1", "pre_actions": "1", "move": "4@11", "instance": "prb45893", "distance_to_goal": "NA", "progress": "NA", "move_number": "1", "optimal_length": "16", "subject": "A1F4N58CAX8IMK:3TS1AR6UQRM7SOIBWPBN8N9589Y7FV"}
{"meta_move": "drag_end", "rt": "688.0", "trial_number": "1", "pre_actions": "1", "move": "6@9", "instance": "prb45893", "distance_to_goal": "NA", "progress": "NA", "move_number": "2", "optimal_length": "16", "subject": "A1F4N58CAX8IMK:3TS1AR6UQRM7SOIBWPBN8N9589Y7FV"}
{"meta_move": "drag_end", "rt": "816.0", "trial_number": "1", "pre_actions": "1", "move": "1@20", "instance": "prb45893", "distance_to_goal": "NA", "progress": "NA", "move_number": "3", "optimal_length": "16", "subject": "A1F4N58CAX8IMK:3TS1AR6UQRM7SOIBWPBN8N9589Y7FV"}
{"meta_move": "drag_end", "rt": "1384.0", "trial_number": "1", "pre_actions": "1", "move": "1@18", "instance": "prb45893", "distance_to_goal": "NA", "progress": "NA", "move_number": "4", "optimal_length": "16", "subject": "A1F4N58CAX8IMK:3TS1AR6UQRM7SOIBWPBN8N9589Y7FV"}
{"meta_move": "drag_end", "rt": "816.0", "trial_number": "1", "pre_actions": "1", "move": "6@15", "instance": "prb45893", "distance_to_goal": "NA", "progress": "NA", "move_number": "5", "optimal_length": "16", "subject": "A1F4N58CAX8IMK:3TS1AR6UQRM7SOIBWPBN8N9589Y7FV"}
{"meta_move": "drag_end", "rt": "1464.0", "trial_number": "1", "pre_actions": "1", "move": "3@6", "instance": "prb45893", "distance_to_goal": "NA", "progress": "NA", "move_number": "6", "optimal_length": "16", "subject": "A1F4N58CAX8IMK:3TS1AR6UQRM7SOIBWPBN8N9589Y7FV"}
{"meta_move": "drag_end", "rt": "1720.0", "trial_number": "1", "pre_actions": "1", "move": "6@9", "instance": "prb45893", "distance_to_goal": "NA", "progress": "NA", "move_number": "7", "optimal_length": "16", "subject": "A1F4N58CAX8IMK:3TS1AR6UQRM7SOIBWPBN8N9589Y7FV"}
{"meta_move": "drag_end", "rt": "800.0", "trial_number": "1", "pre_actions": "1", "move": "1@20", "instance": "prb45893", "distance_to_goal": "NA", "progress": "NA", "move_number": "8", "optimal_length": "16", "subject": "A1F4N58CAX8IMK:3TS1AR6UQRM7SOIBWPBN8N9589Y7FV"}
{"meta_move": "drag_end", "rt": "1160.0", "trial_number": "1", "pre_actions": "1", "move": "3@12", "instance": "prb45893", "distance_to_goal": "NA", "progress": "NA", "move_number": "9", "optimal_length": "16", "subject": "A1F4N58CAX8IMK:3TS1AR6UQRM7SOIBWPBN8N9589Y7FV"}
{"meta_move": "drag_end", "rt": "1953.0", "trial_number": "1", "pre_actions": "1", "move": "3@0", "instance": "prb45893", "distance_to_goal": "NA", "progress": "NA", "move_number": "10", "optimal_length": "16", "subject": "A1F4N58CAX8IMK:3TS1AR6UQRM7SOIBWPBN8N9589Y7FV"}
{"meta_move": "drag_end", "rt": "1303.0", "trial_number": "1", "pre_actions": "1", "move": "1@18", "instance": "prb45893", "distance_to_goal": "NA", "progress": "NA", "move_number": "11", "optimal_length": "16", "subject": "A1F4N58CAX8IMK:3TS1AR6UQRM7SOIBWPBN8N9589Y7FV"}
{"meta_move": "drag_end", "rt": "920.0", "trial_number": "1", "pre_actions": "1", "move": "4@23", "instance": "prb45893", "distance_to_goal": "NA", "progress": "NA", "move_number": "12", "optimal_length": "16", "subject": "A1F4N58CAX8IMK:3TS1AR6UQRM7SOIBWPBN8N9589Y7FV"}
{"meta_move": "drag_end", "rt": "904.0", "trial_number": "1", "pre_actions": "1", "move": "6@15", "instance": "prb45893", "distance_to_goal": "NA", "progress": "NA", "move_number": "13", "optimal_length": "16", "subject": "A1F4N58CAX8IMK:3TS1AR6UQRM7SOIBWPBN8N9589Y7FV"}
{"meta_move": "drag_end", "rt": "920.0", "trial_number": "1", "pre_actions": "1", "move": "6@9", "instance": "prb45893", "distance_to_goal": "NA", "progress": "NA", "move_number": "14", "optimal_length": "16", "subject": "A1F4N58CAX8IMK:3TS1AR6UQRM7SOIBWPBN8N9589Y7FV"}
{"meta_move": "drag_end", "rt": "8240.0", "trial_number": "1", "pre_actions": "1", "move": "6@15", "instance": "prb45893", "distance_to_goal": "NA", "progress": "NA", "move_number": "15", "optimal_length": "16", "subject": "A1F4N58CAX8IMK:3TS1AR6UQRM7SOIBWPBN8N9589Y7FV"}
{"meta_move": "drag_end", "rt": "1928.0", "trial_number": "1", "pre_actions": "1", "move": "6@9", "instance": "prb45893", "distance_to_goal": "NA", "progress": "NA", "move_number": "16", "optimal_length": "16", "subject": "A1F4N58CAX8IMK:3TS1AR6UQRM7SOIBWPBN8N9589Y7FV"}
{"meta_move": "drag_end", "rt": "1784.0", "trial_number": "1", "pre_actions": "1", "move": "4@11", "instance": "prb45893", "distance_to_goal": "NA", "progress": "NA", "move_number": "17", "optimal_length": "16", "subject": "A1F4N58CAX8IMK:3TS1AR6UQRM7SOIBWPBN8N9589Y7FV"}
{"meta_move": "drag_end", "rt": "760.0", "trial_number": "1", "pre_actions": "1", "move": "1@20", "instance": "prb45893", "distance_to_goal": "NA", "progress": "NA", "move_number": "18", "optimal_length": "16", "subject": "A1F4N58CAX8IMK:3TS1AR6UQRM7SOIBWPBN8N9589Y7FV"}
{"meta_move": "drag_end", "rt": "784.0", "trial_number": "1", "pre_actions": "1", "move": "r@12", "instance": "prb45893", "distance_to_goal": "NA", "progress": "NA", "move_number": "19", "optimal_length": "16", "subject": "A1F4N58CAX8IMK:3TS1AR6UQRM7SOIBWPBN8N9589Y7FV"}
{"meta_move": "drag_end", "rt": "688.0", "trial_number": "1", "pre_actions": "1", "move": "7@8", "instance": "prb45893", "distance_to_goal": "NA", "progress": "NA", "move_number": "20", "optimal_length": "16", "subject": "A1F4N58CAX8IMK:3TS1AR6UQRM7SOIBWPBN8N9589Y7FV"}
{"meta_move": "drag_end", "rt": "656.0", "trial_number": "1", "pre_actions": "1", "move": "2@1", "instance": "prb45893", "distance_to_goal": "NA", "progress": "NA", "move_number": "21", "optimal_length": "16", "subject": "A1F4N58CAX8IMK:3TS1AR6UQRM7SOIBWPBN8N9589Y7FV"}
{"meta_move": "drag_end", "rt": "930.0", "trial_number": "1", "pre_actions": "1", "move": "4@5", "instance": "prb45893", "distance_to_goal": "NA", "progress": "NA", "move_number": "22", "optimal_length": "16", "subject": "A1F4N58CAX8IMK:3TS1AR6UQRM7SOIBWPBN8N9589Y7FV"}
{"meta_move": "drag_end", "rt": "759.0", "trial_number": "1", "pre_actions": "1", "move": "1@21", "instance": "prb45893", "distance_to_goal": "NA", "progress": "NA", "move_number": "23", "optimal_length": "16", "subject": "A1F4N58CAX8IMK:3TS1AR6UQRM7SOIBWPBN8N9589Y7FV"}
{"meta_move": "drag_end", "rt": "679.0", "trial_number": "1", "pre_actions": "1", "move": "7@26", "instance": "prb45893", "distance_to_goal": "NA", "progress": "NA", "move_number": "24", "optimal_length": "16", "subject": "A1F4N58CAX8IMK:3TS1AR6UQRM7SOIBWPBN8N9589Y7FV"}
{"meta_move": "drag_end", "rt": "1264.0", "trial_number": "1", "pre_actions": "1", "move": "r@13", "instance": "prb45893", "distance_to_goal": "NA", "progress": "NA", "move_number": "25", "optimal_length": "16", "subject": "A1F4N58CAX8IMK:3TS1AR6UQRM7SOIBWPBN8N9589Y7FV"}
{"meta_move": "drag_end", "rt": "688.0", "trial_number": "1", "pre_actions": "1", "move": "3@12", "instance": "prb45893", "distance_to_goal": "NA", "progress": "NA", "move_number": "26", "optimal_length": "16", "subject": "A1F4N58CAX8IMK:3TS1AR6UQRM7SOIBWPBN8N9589Y7FV"}
{"meta_move": "drag_end", "rt": "584.0", "trial_number": "1", "pre_actions": "1", "move": "2@0", "instance": "prb45893", "distance_to_goal": "NA", "progress": "NA", "move_number": "27", "optimal_length": "16", "subject": "A1F4N58CAX8IMK:3TS1AR6UQRM7SOIBWPBN8N9589Y7FV"}
{"meta_move": "drag_end", "rt": "665.0", "trial_number": "1", "pre_actions": "1", "move": "6@3", "instance": "prb45893", "distance_to_goal": "NA", "progress": "NA", "move_number": "28", "optimal_length": "16", "subject": "A1F4N58CAX8IMK:3TS1AR6UQRM7SOIBWPBN8N9589Y7FV"}
{"meta_move": "drag_end", "rt": "895.0", "trial_number": "1", "pre_actions": "1", "move": "1@19", "instance": "prb45893", "distance_to_goal": "NA", "progress": "NA", "move_number": "29", "optimal_length": "16", "subject": "A1F4N58CAX8IMK:3TS1AR6UQRM7SOIBWPBN8N9589Y7FV"}
{"meta_move": "drag_end", "rt": "656.0", "trial_number": "1", "pre_actions": "1", "move": "4@23", "instance": "prb45893", "distance_to_goal": "NA", "progress": "NA", "move_number": "30", "optimal_length": "16", "subject": "A1F4N58CAX8IMK:3TS1AR6UQRM7SOIBWPBN8N9589Y7FV"}
{"meta_move": "win", "rt": "707.0", "trial_number": "1", "pre_actions": "1", "move": "r@13", "instance": "prb45893", "distance_to_goal": "1", "progress": "NA", "move_number": "31", "optimal_length": "16", "subject": "A1F4N58CAX8IMK:3TS1AR6UQRM7SOIBWPBN8N9589Y7FV"}
{"meta_move": "drag_end", "rt": "141.0", "trial_number": "0", "pre_actions": "0", "move": "r@16", "instance": "prb45893", "distance_to_goal": "NA", "progress": "NA", "move_number": "31", "optimal_length": "16", "subject": "A1F4N58CAX8IMK:3TS1AR6UQRM7SOIBWPBN8N9589Y7FV"}
{"meta_move": "drag_end", "rt": "4056.0", "trial_number": "1", "pre_actions": "1", "move": "3@0", "instance": "prb45893", "distance_to_goal": "NA", "progress": "NA", "move_number": "0", "optimal_length": "16", "subject": "A1LR0VQIHQUJAM:3YW4XOSQKRTI0K0Z2YPDTDJVFABU1I"}
{"meta_move": "drag_end", "rt": "428.0", "trial_number": "1", "pre_actions": "1", "move": "r@12", "instance": "prb45893", "distance_to_goal": "NA", "progress": "NA", "move_number": "1", "optimal_length": "16", "subject": "A1LR0VQIHQUJAM:3YW4XOSQKRTI0K0Z2YPDTDJVFABU1I"}
{"meta_move": "drag_end", "rt": "1831.0", "trial_number": "1", "pre_actions": "1", "move": "7@8", "instance": "prb45893", "distance_to_goal": "NA", "progress": "NA", "move_number": "2", "optimal_length": "16", "subject": "A1LR0VQIHQUJAM:3YW4XOSQKRTI0K0Z2YPDTDJVFABU1I"}
{"meta_move": "drag_end", "rt": "490.0", "trial_number": "1", "pre_actions": "1", "move": "6@9", "instance": "prb45893", "distance_to_goal": "NA", "progress": "NA", "move_number": "3", "optimal_length": "16", "subject": "A1LR0VQIHQUJAM:3YW4XOSQKRTI0K0Z2YPDTDJVFABU1I"}
{"meta_move": "drag_end", "rt": "534.0", "trial_number": "1", "pre_actions": "1", "move": "1@20", "instance": "prb45893", "distance_to_goal": "NA", "progress": "NA", "move_number": "4", "optimal_length": "16", "subject": "A1LR0VQIHQUJAM:3YW4XOSQKRTI0K0Z2YPDTDJVFABU1I"}
{"meta_move": "drag_end", "rt": "4435.0", "trial_number": "1", "pre_actions": "1", "move": "7@2", "instance": "prb45893", "distance_to_goal": "NA", "progress": "NA", "move_number": "5", "optimal_length": "16", "subject": "A1LR0VQIHQUJAM:3YW4XOSQKRTI0K0Z2YPDTDJVFABU1I"}
{"meta_move": "drag_end", "rt": "530.0", "trial_number": "1", "pre_actions": "1", "move": "r@13", "instance": "prb45893", "distance_to_goal": "NA", "progress": "NA", "move_number": "6", "optimal_length": "16", "subject": "A1LR0VQIHQUJAM:3YW4XOSQKRTI0K0Z2YPDTDJVFABU1I"}
{"meta_move": "drag_end", "rt": "1056.0", "trial_number": "1", "pre_actions": "1", "move": "3@12", "instance": "prb45893", "distance_to_goal": "NA", "progress": "NA", "move_number": "7", "optimal_length": "16", "subject": "A1LR0VQIHQUJAM:3YW4XOSQKRTI0K0Z2YPDTDJVFABU1I"}
{"meta_move": "drag_end", "rt": "1116.0", "trial_number": "1", "pre_actions": "1", "move": "5@25", "instance": "prb45893", "distance_to_goal": "NA", "progress": "NA", "move_number": "8", "optimal_length": "16", "subject": "A1LR0VQIHQUJAM:3YW4XOSQKRTI0K0Z2YPDTDJVFABU1I"}
{"meta_move": "drag_end", "rt": "810.0", "trial_number": "1", "pre_actions": "1", "move": "3@24", "instance": "prb45893", "distance_to_goal": "NA", "progress": "NA", "move_number": "9", "optimal_length": "16", "subject": "A1LR0VQIHQUJAM:3YW4XOSQKRTI0K0Z2YPDTDJVFABU1I"}
{"meta_move": "drag_end", "rt": "734.0", "trial_number": "1", "pre_actions": "1", "move": "1@18", "instance": "prb45893", "distance_to_goal": "NA", "progress": "NA", "move_number": "10", "optimal_length": "16", "subject": "A1LR0VQIHQUJAM:3YW4XOSQKRTI0K0Z2YPDTDJVFABU1I"}
{"meta_move": "drag_end", "rt": "697.0", "trial_number": "1", "pre_actions": "1", "move": "6@15", "instance": "prb45893", "distance_to_goal": "NA", "progress": "NA", "move_number": "11", "optimal_length": "16", "subject": "A1LR0VQIHQUJAM:3YW4XOSQKRTI0K0Z2YPDTDJVFABU1I"}
{"meta_move": "drag_end", "rt": "4550.0", "trial_number": "1", "pre_actions": "1", "move": "6@9", "instance": "prb45893", "distance_to_goal": "NA", "progress": "NA", "move_number": "12", "optimal_length": "16", "subject": "A1LR0VQIHQUJAM:3YW4XOSQKRTI0K0Z2YPDTDJVFABU1I"}
{"meta_move": "drag_end", "rt": "528.0", "trial_number": "1", "pre_actions": "1", "move": "0@21", "instance": "prb45893", "distance_to_goal": "NA", "progress": "NA", "move_number": "13", "optimal_length": "16", "subject": "A1LR0VQIHQUJAM:3YW4XOSQKRTI0K0Z2YPDTDJVFABU1I"}
{"meta_move": "drag_end", "rt": "1561.0", "trial_number": "1", "pre_actions": "1", "move": "0@27", "instance": "prb45893", "distance_to_goal": "NA", "progress": "NA", "move_number": "14", "optimal_length": "16", "subject": "A1LR0VQIHQUJAM:3YW4XOSQKRTI0K0Z2YPDTDJVFABU1I"}
{"meta_move": "drag_end", "rt": "479.0", "trial_number": "1", "pre_actions": "1", "move": "1@18", "instance": "prb45893", "distance_to_goal": "NA", "progress": "NA", "move_number": "15", "optimal_length": "16", "subject": "A1LR0VQIHQUJAM:3YW4XOSQKRTI0K0Z2YPDTDJVFABU1I"}
{"meta_move": "drag_end", "rt": "1181.0", "trial_number": "1", "pre_actions": "1", "move": "1@18", "instance": "prb45893", "distance_to_goal": "NA", "progress": "NA", "move_number": "15", "optimal_length": "16", "subject": "A1LR0VQIHQUJAM:3YW4XOSQKRTI0K0Z2YPDTDJVFABU1I"}
{"meta_move": "drag_end", "rt": "1944.0", "trial_number": "1", "pre_actions": "1", "move": "1@20", "instance": "prb45893", "distance_to_goal": "NA", "progress": "NA", "move_number": "15", "optimal_length": "16", "subject": "A1LR0VQIHQUJAM:3YW4XOSQKRTI0K0Z2YPDTDJVFABU1I"}
{"meta_move": "drag_end", "rt": "1200.0", "trial_number": "1", "pre_actions": "1", "move": "3@12", "instance": "prb45893", "distance_to_goal": "NA", "progress": "NA", "move_number": "16", "optimal_length": "16", "subject": "A1LR0VQIHQUJAM:3YW4XOSQKRTI0K0Z2YPDTDJVFABU1I"}
{"meta_move": "drag_end", "rt": "590.0", "trial_number": "1", "pre_actions": "1", "move": "5@24", "instance": "prb45893", "distance_to_goal": "NA", "progress": "NA", "move_number": "17", "optimal_length": "16", "subject": "A1LR0VQIHQUJAM:3YW4XOSQKRTI0K0Z2YPDTDJVFABU1I"}
{"meta_move": "drag_end", "rt": "625.0", "trial_number": "1", "pre_actions": "1", "move": "0@27", "instance": "prb45893", "distance_to_goal": "NA", "progress": "NA", "move_number": "18", "optimal_length": "16", "subject": "A1LR0VQIHQUJAM:3YW4XOSQKRTI0K0Z2YPDTDJVFABU1I"}
{"meta_move": "drag_end", "rt": "797.0", "trial_number": "1", "pre_actions": "1", "move": "1@19", "instance": "prb45893", "distance_to_goal": "NA", "progress": "NA", "move_number": "18", "optimal_length": "16", "subject": "A1LR0VQIHQUJAM:3YW4XOSQKRTI0K0Z2YPDTDJVFABU1I"}
{"meta_move": "drag_end", "rt": "3593.0", "trial_number": "1", "pre_actions": "1", "move": "4@23", "instance": "prb45893", "distance_to_goal": "NA", "progress": "NA", "move_number": "19", "optimal_length": "16", "subject": "A1LR0VQIHQUJAM:3YW4XOSQKRTI0K0Z2YPDTDJVFABU1I"}
{"meta_move": "drag_end", "rt": "1663.0", "trial_number": "1", "pre_actions": "1", "move": "3@0", "instance": "prb45893", "distance_to_goal": "NA", "progress": "NA", "move_number": "20", "optimal_length": "16", "subject": "A1LR0VQIHQUJAM:3YW4XOSQKRTI0K0Z2YPDTDJVFABU1I"}
{"meta_move": "drag_end", "rt": "492.0", "trial_number": "1", "pre_actions": "1", "move": "r@12", "instance": "prb45893", "distance_to_goal": "NA", "progress": "NA", "move_number": "21", "optimal_length": "16", "subject": "A1LR0VQIHQUJAM:3YW4XOSQKRTI0K0Z2YPDTDJVFABU1I"}
{"meta_move": "drag_end", "rt": "1033.0", "trial_number": "1", "pre_actions": "1", "move": "7@8", "instance": "prb45893", "distance_to_goal": "NA", "progress": "NA", "move_number": "22", "optimal_length": "16", "subject": "A1LR0VQIHQUJAM:3YW4XOSQKRTI0K0Z2YPDTDJVFABU1I"}
{"meta_move": "drag_end", "rt": "970.0", "trial_number": "1", "pre_actions": "1", "move": "2@1", "instance": "prb45893", "distance_to_goal": "NA", "progress": "NA", "move_number": "23", "optimal_length": "16", "subject": "A1LR0VQIHQUJAM:3YW4XOSQKRTI0K0Z2YPDTDJVFABU1I"}
{"meta_move": "drag_end", "rt": "1775.0", "trial_number": "1", "pre_actions": "1", "move": "1@18", "instance": "prb45893", "distance_to_goal": "NA", "progress": "NA", "move_number": "24", "optimal_length": "16", "subject": "A1LR0VQIHQUJAM:3YW4XOSQKRTI0K0Z2YPDTDJVFABU1I"}
{"meta_move": "drag_end", "rt": "608.0", "trial_number": "1", "pre_actions": "1", "move": "6@15", "instance": "prb45893", "distance_to_goal": "NA", "progress": "NA", "move_number": "25", "optimal_length": "16", "subject": "A1LR0VQIHQUJAM:3YW4XOSQKRTI0K0Z2YPDTDJVFABU1I"}
{"meta_move": "drag_end", "rt": "1837.0", "trial_number": "1", "pre_actions": "1", "move": "6@9", "instance": "prb45893", "distance_to_goal": "NA", "progress": "NA", "move_number": "26", "optimal_length": "16", "subject": "A1LR0VQIHQUJAM:3YW4XOSQKRTI0K0Z2YPDTDJVFABU1I"}
{"meta_move": "drag_end", "rt": "1285.0", "trial_number": "1", "pre_actions": "1", "move": "6@15", "instance": "prb45893", "distance_to_goal": "NA", "progress": "NA", "move_number": "27", "optimal_length": "16", "subject": "A1LR0VQIHQUJAM:3YW4XOSQKRTI0K0Z2YPDTDJVFABU1I"}
{"meta_move": "drag_end", "rt": "948.0", "trial_number": "1", "pre_actions": "1", "move": "2@3", "instance": "prb45893", "distance_to_goal": "NA", "progress": "NA", "move_number": "28", "optimal_length": "16", "subject": "A1LR0VQIHQUJAM:3YW4XOSQKRTI0K0Z2YPDTDJVFABU1I"}
{"meta_move": "drag_end", "rt": "461.0", "trial_number": "1", "pre_actions": "1", "move": "7@8", "instance": "prb45893", "distance_to_goal": "NA", "progress": "NA", "move_number": "29", "optimal_length": "16", "subject": "A1LR0VQIHQUJAM:3YW4XOSQKRTI0K0Z2YPDTDJVFABU1I"}
{"meta_move": "drag_end", "rt": "372.0", "trial_number": "1", "pre_actions": "1", "move": "7@2", "instance": "prb45893", "distance_to_goal": "NA", "progress": "NA", "move_number": "29", "optimal_length": "16", "subject": "A1LR0VQIHQUJAM:3YW4XOSQKRTI0K0Z2YPDTDJVFABU1I"}
{"meta_move": "drag_end", "rt": "504.0", "trial_number": "1", "pre_actions": "1", "move": "6@9", "instance": "prb45893", "distance_to_goal": "NA", "progress": "NA", "move_number": "30", "optimal_length": "16", "subject": "A1LR0VQIHQUJAM:3YW4XOSQKRTI0K0Z2YPDTDJVFABU1I"}
{"meta_move": "drag_end", "rt": "2698.0", "trial_number": "1", "pre_actions": "1", "move": "6@15", "instance": "prb45893", "distance_to_goal": "NA", "progress": "NA", "move_number": "31", "optimal_length": "16", "subject": "A1LR0VQIHQUJAM:3YW4XOSQKRTI0K0Z2YPDTDJVFABU1I"}
{"meta_move": "drag_end", "rt": "4071.0", "trial_number": "1", "pre_actions": "1", "move": "r@13", "instance": "prb45893", "distance_to_goal": "NA", "progress": "NA", "move_number": "32", "optimal_length": "16", "subject": "A1LR0VQIHQUJAM:3YW4XOSQKRTI0K0Z2YPDTDJVFABU1I"}
{"meta_move": "drag_end", "rt": "472.0", "trial_number": "1", "pre_actions": "1", "move": "3@6", "instance": "prb45893", "distance_to_goal": "NA", "progress": "NA", "move_number": "33", "optimal_length": "16", "subject": "A1LR0VQIHQUJAM:3YW4XOSQKRTI0K0Z2YPDTDJVFABU1I"}
{"meta_move": "drag_end", "rt": "1043.0", "trial_number": "1", "pre_actions": "1", "move": "6@9", "instance": "prb45893", "distance_to_goal": "NA", "progress": "NA", "move_number": "34", "optimal_length": "16", "subject": "A1LR0VQIHQUJAM:3YW4XOSQKRTI0K0Z2YPDTDJVFABU1I"}
{"meta_move": "drag_end", "rt": "479.0", "trial_number": "1", "pre_actions": "1", "move": "1@20", "instance": "prb45893", "distance_to_goal": "NA", "progress": "NA", "move_number": "35", "optimal_length": "16", "subject": "A1LR0VQIHQUJAM:3YW4XOSQKRTI0K0Z2YPDTDJVFABU1I"}
{"meta_move": "drag_end", "rt": "504.0", "trial_number": "1", "pre_actions": "1", "move": "5@25", "instance": "prb45893", "distance_to_goal": "NA", "progress": "NA", "move_number": "36", "optimal_length": "16", "subject": "A1LR0VQIHQUJAM:3YW4XOSQKRTI0K0Z2YPDTDJVFABU1I"}
{"meta_move": "drag_end", "rt": "587.0", "trial_number": "1", "pre_actions": "1", "move": "3@24", "instance": "prb45893", "distance_to_goal": "NA", "progress": "NA", "move_number": "37", "optimal_length": "16", "subject": "A1LR0VQIHQUJAM:3YW4XOSQKRTI0K0Z2YPDTDJVFABU1I"}
{"meta_move": "drag_end", "rt": "833.0", "trial_number": "1", "pre_actions": "1", "move": "1@18", "instance": "prb45893", "distance_to_goal": "NA", "progress": "NA", "move_number": "38", "optimal_length": "16", "subject": "A1LR0VQIHQUJAM:3YW4XOSQKRTI0K0Z2YPDTDJVFABU1I"}
{"meta_move": "drag_end", "rt": "968.0", "trial_number": "1", "pre_actions": "1", "move": "6@15", "instance": "prb45893", "distance_to_goal": "NA", "progress": "NA", "move_number": "39", "optimal_length": "16", "subject": "A1LR0VQIHQUJAM:3YW4XOSQKRTI0K0Z2YPDTDJVFABU1I"}
{"meta_move": "drag_end", "rt": "2801.0", "trial_number": "1", "pre_actions": "1", "move": "r@12", "instance": "prb45893", "distance_to_goal": "NA", "progress": "NA", "move_number": "40", "optimal_length": "16", "subject": "A1LR0VQIHQUJAM:3YW4XOSQKRTI0K0Z2YPDTDJVFABU1I"}
{"meta_move": "drag_end", "rt": "499.0", "trial_number": "1", "pre_actions": "1", "move": "7@8", "instance": "prb45893", "distance_to_goal": "NA", "progress": "NA", "move_number": "41", "optimal_length": "16", "subject": "A1LR0VQIHQUJAM:3YW4XOSQKRTI0K0Z2YPDTDJVFABU1I"}
{"meta_move": "drag_end", "rt": "580.0", "trial_number": "1", "pre_actions": "1", "move": "2@0", "instance": "prb45893", "distance_to_goal": "NA", "progress": "NA", "move_number": "42", "optimal_length": "16", "subject": "A1LR0VQIHQUJAM:3YW4XOSQKRTI0K0Z2YPDTDJVFABU1I"}
{"meta_move": "drag_end", "rt": "1698.0", "trial_number": "1", "pre_actions": "1", "move": "6@9", "instance": "prb45893", "distance_to_goal": "NA", "progress": "NA", "move_number": "43", "optimal_length": "16", "subject": "A1LR0VQIHQUJAM:3YW4XOSQKRTI0K0Z2YPDTDJVFABU1I"}
{"meta_move": "drag_end", "rt": "1015.0", "trial_number": "1", "pre_actions": "1", "move": "1@20", "instance": "prb45893", "distance_to_goal": "NA", "progress": "NA", "move_number": "44", "optimal_length": "16", "subject": "A1LR0VQIHQUJAM:3YW4XOSQKRTI0K0Z2YPDTDJVFABU1I"}
{"meta_move": "drag_end", "rt": "2096.0", "trial_number": "1", "pre_actions": "1", "move": "4@5", "instance": "prb45893", "distance_to_goal": "NA", "progress": "NA", "move_number": "45", "optimal_length": "16", "subject": "A1LR0VQIHQUJAM:3YW4XOSQKRTI0K0Z2YPDTDJVFABU1I"}
{"meta_move": "drag_end", "rt": "686.0", "trial_number": "1", "pre_actions": "1", "move": "1@21", "instance": "prb45893", "distance_to_goal": "NA", "progress": "NA", "move_number": "46", "optimal_length": "16", "subject": "A1LR0VQIHQUJAM:3YW4XOSQKRTI0K0Z2YPDTDJVFABU1I"}
{"meta_move": "drag_end", "rt": "500.0", "trial_number": "1", "pre_actions": "1", "move": "7@14", "instance": "prb45893", "distance_to_goal": "NA", "progress": "NA", "move_number": "47", "optimal_length": "16", "subject": "A1LR0VQIHQUJAM:3YW4XOSQKRTI0K0Z2YPDTDJVFABU1I"}
{"meta_move": "drag_end", "rt": "855.0", "trial_number": "1", "pre_actions": "1", "move": "6@3", "instance": "prb45893", "distance_to_goal": "NA", "progress": "NA", "move_number": "48", "optimal_length": "16", "subject": "A1LR0VQIHQUJAM:3YW4XOSQKRTI0K0Z2YPDTDJVFABU1I"}
{"meta_move": "drag_end", "rt": "7132.0", "trial_number": "1", "pre_actions": "1", "move": "7@14", "instance": "prb45893", "distance_to_goal": "NA", "progress": "NA", "move_number": "49", "optimal_length": "16", "subject": "A1LR0VQIHQUJAM:3YW4XOSQKRTI0K0Z2YPDTDJVFABU1I"}
{"meta_move": "drag_end", "rt": "490.0", "trial_number": "1", "pre_actions": "1", "move": "6@9", "instance": "prb45893", "distance_to_goal": "NA", "progress": "NA", "move_number": "49", "optimal_length": "16", "subject": "A1LR0VQIHQUJAM:3YW4XOSQKRTI0K0Z2YPDTDJVFABU1I"}
{"meta_move": "drag_end", "rt": "479.0", "trial_number": "1", "pre_actions": "1", "move": "2@2", "instance": "prb45893", "distance_to_goal": "NA", "progress": "NA", "move_number": "50", "optimal_length": "16", "subject": "A1LR0VQIHQUJAM:3YW4XOSQKRTI0K0Z2YPDTDJVFABU1I"}
{"meta_move": "drag_end", "rt": "1268.0", "trial_number": "1", "pre_actions": "1", "move": "7@8", "instance": "prb45893", "distance_to_goal": "NA", "progress": "NA", "move_number": "51", "optimal_length": "16", "subject": "A1LR0VQIHQUJAM:3YW4XOSQKRTI0K0Z2YPDTDJVFABU1I"}
{"meta_move": "drag_end", "rt": "5192.0", "trial_number": "1", "pre_actions": "1", "move": "r@12", "instance": "prb45893", "distance_to_goal": "NA", "progress": "NA", "move_number": "52", "optimal_length": "16", "subject": "A1LR0VQIHQUJAM:3YW4XOSQKRTI0K0Z2YPDTDJVFABU1I"}
{"meta_move": "drag_end", "rt": "517.0", "trial_number": "1", "pre_actions": "1", "move": "7@14", "instance": "prb45893", "distance_to_goal": "NA", "progress": "NA", "move_number": "52", "optimal_length": "16", "subject": "A1LR0VQIHQUJAM:3YW4XOSQKRTI0K0Z2YPDTDJVFABU1I"}
{"meta_move": "drag_end", "rt": "1069.0", "trial_number": "1", "pre_actions": "1", "move": "2@0", "instance": "prb45893", "distance_to_goal": "NA", "progress": "NA", "move_number": "53", "optimal_length": "16", "subject": "A1LR0VQIHQUJAM:3YW4XOSQKRTI0K0Z2YPDTDJVFABU1I"}
{"meta_move": "drag_end", "rt": "1089.0", "trial_number": "1", "pre_actions": "1", "move": "6@3", "instance": "prb45893", "distance_to_goal": "NA", "progress": "NA", "move_number": "54", "optimal_length": "16", "subject": "A1LR0VQIHQUJAM:3YW4XOSQKRTI0K0Z2YPDTDJVFABU1I"}
{"meta_move": "drag_end", "rt": "634.0", "trial_number": "1", "pre_actions": "1", "move": "7@8", "instance": "prb45893", "distance_to_goal": "NA", "progress": "NA", "move_number": "55", "optimal_length": "16", "subject": "A1LR0VQIHQUJAM:3YW4XOSQKRTI0K0Z2YPDTDJVFABU1I"}
{"meta_move": "drag_end", "rt": "1806.0", "trial_number": "1", "pre_actions": "1", "move": "1@18", "instance": "prb45893", "distance_to_goal": "NA", "progress": "NA", "move_number": "56", "optimal_length": "16", "subject": "A1LR0VQIHQUJAM:3YW4XOSQKRTI0K0Z2YPDTDJVFABU1I"}
{"meta_move": "drag_end", "rt": "682.0", "trial_number": "1", "pre_actions": "1", "move": "6@15", "instance": "prb45893", "distance_to_goal": "NA", "progress": "NA", "move_number": "57", "optimal_length": "16", "subject": "A1LR0VQIHQUJAM:3YW4XOSQKRTI0K0Z2YPDTDJVFABU1I"}
{"meta_move": "drag_end", "rt": "1012.0", "trial_number": "1", "pre_actions": "1", "move": "2@2", "instance": "prb45893", "distance_to_goal": "NA", "progress": "NA", "move_number": "58", "optimal_length": "16", "subject": "A1LR0VQIHQUJAM:3YW4XOSQKRTI0K0Z2YPDTDJVFABU1I"}
{"meta_move": "drag_end", "rt": "1275.0", "trial_number": "1", "pre_actions": "1", "move": "4@17", "instance": "prb45893", "distance_to_goal": "NA", "progress": "NA", "move_number": "59", "optimal_length": "16", "subject": "A1LR0VQIHQUJAM:3YW4XOSQKRTI0K0Z2YPDTDJVFABU1I"}
{"meta_move": "drag_end", "rt": "938.0", "trial_number": "1", "pre_actions": "1", "move": "4@11", "instance": "prb45893", "distance_to_goal": "NA", "progress": "NA", "move_number": "60", "optimal_length": "16", "subject": "A1LR0VQIHQUJAM:3YW4XOSQKRTI0K0Z2YPDTDJVFABU1I"}
{"meta_move": "drag_end", "rt": "495.0", "trial_number": "1", "pre_actions": "1", "move": "2@3", "instance": "prb45893", "distance_to_goal": "NA", "progress": "NA", "move_number": "61", "optimal_length": "16", "subject": "A1LR0VQIHQUJAM:3YW4XOSQKRTI0K0Z2YPDTDJVFABU1I"}
{"meta_move": "drag_end", "rt": "676.0", "trial_number": "1", "pre_actions": "1", "move": "7@2", "instance": "prb45893", "distance_to_goal": "NA", "progress": "NA", "move_number": "62", "optimal_length": "16", "subject": "A1LR0VQIHQUJAM:3YW4XOSQKRTI0K0Z2YPDTDJVFABU1I"}
{"meta_move": "drag_end", "rt": "1065.0", "trial_number": "1", "pre_actions": "1", "move": "r@13", "instance": "prb45893", "distance_to_goal": "NA", "progress": "NA", "move_number": "63", "optimal_length": "16", "subject": "A1LR0VQIHQUJAM:3YW4XOSQKRTI0K0Z2YPDTDJVFABU1I"}
{"meta_move": "drag_end", "rt": "2070.0", "trial_number": "1", "pre_actions": "1", "move": "6@9", "instance": "prb45893", "distance_to_goal": "NA", "progress": "NA", "move_number": "64", "optimal_length": "16", "subject": "A1LR0VQIHQUJAM:3YW4XOSQKRTI0K0Z2YPDTDJVFABU1I"}
{"meta_move": "drag_end", "rt": "506.0", "trial_number": "1", "pre_actions": "1", "move": "1@20", "instance": "prb45893", "distance_to_goal": "NA", "progress": "NA", "move_number": "65", "optimal_length": "16", "subject": "A1LR0VQIHQUJAM:3YW4XOSQKRTI0K0Z2YPDTDJVFABU1I"}
{"meta_move": "drag_end", "rt": "1126.0", "trial_number": "1", "pre_actions": "1", "move": "3@0", "instance": "prb45893", "distance_to_goal": "NA", "progress": "NA", "move_number": "66", "optimal_length": "16", "subject": "A1LR0VQIHQUJAM:3YW4XOSQKRTI0K0Z2YPDTDJVFABU1I"}
{"meta_move": "drag_end", "rt": "808.0", "trial_number": "1", "pre_actions": "1", "move": "1@18", "instance": "prb45893", "distance_to_goal": "NA", "progress": "NA", "move_number": "67", "optimal_length": "16", "subject": "A1LR0VQIHQUJAM:3YW4XOSQKRTI0K0Z2YPDTDJVFABU1I"}
{"meta_move": "drag_end", "rt": "725.0", "trial_number": "1", "pre_actions": "1", "move": "6@15", "instance": "prb45893", "distance_to_goal": "NA", "progress": "NA", "move_number": "68", "optimal_length": "16", "subject": "A1LR0VQIHQUJAM:3YW4XOSQKRTI0K0Z2YPDTDJVFABU1I"}
{"meta_move": "drag_end", "rt": "8090.0", "trial_number": "1", "pre_actions": "1", "move": "6@9", "instance": "prb45893", "distance_to_goal": "NA", "progress": "NA", "move_number": "69", "optimal_length": "16", "subject": "A1LR0VQIHQUJAM:3YW4XOSQKRTI0K0Z2YPDTDJVFABU1I"}
{"meta_move": "drag_end", "rt": "1590.0", "trial_number": "1", "pre_actions": "1", "move": "4@23", "instance": "prb45893", "distance_to_goal": "NA", "progress": "NA", "move_number": "70", "optimal_length": "16", "subject": "A1LR0VQIHQUJAM:3YW4XOSQKRTI0K0Z2YPDTDJVFABU1I"}
{"meta_move": "drag_end", "rt": "892.0", "trial_number": "1", "pre_actions": "1", "move": "1@20", "instance": "prb45893", "distance_to_goal": "NA", "progress": "NA", "move_number": "71", "optimal_length": "16", "subject": "A1LR0VQIHQUJAM:3YW4XOSQKRTI0K0Z2YPDTDJVFABU1I"}
{"meta_move": "drag_end", "rt": "2480.0", "trial_number": "1", "pre_actions": "1", "move": "1@18", "instance": "prb45893", "distance_to_goal": "NA", "progress": "NA", "move_number": "72", "optimal_length": "16", "subject": "A1LR0VQIHQUJAM:3YW4XOSQKRTI0K0Z2YPDTDJVFABU1I"}
{"meta_move": "drag_end", "rt": "11423.0", "trial_number": "1", "pre_actions": "1", "move": "3@6", "instance": "prb45893", "distance_to_goal": "NA", "progress": "NA", "move_number": "73", "optimal_length": "16", "subject": "A1LR0VQIHQUJAM:3YW4XOSQKRTI0K0Z2YPDTDJVFABU1I"}
{"meta_move": "drag_end", "rt": "10347.0", "trial_number": "1", "pre_actions": "1", "move": "5@24", "instance": "prb45893", "distance_to_goal": "NA", "progress": "NA", "move_number": "74", "optimal_length": "16", "subject": "A1LR0VQIHQUJAM:3YW4XOSQKRTI0K0Z2YPDTDJVFABU1I"}
{"meta_move": "drag_end", "rt": "2866.0", "trial_number": "1", "pre_actions": "1", "move": "4@11", "instance": "prb45893", "distance_to_goal": "NA", "progress": "NA", "move_number": "75", "optimal_length": "16", "subject": "A1LR0VQIHQUJAM:3YW4XOSQKRTI0K0Z2YPDTDJVFABU1I"}
{"meta_move": "drag_end", "rt": "1118.0", "trial_number": "1", "pre_actions": "1", "move": "3@0", "instance": "prb45893", "distance_to_goal": "NA", "progress": "NA", "move_number": "76", "optimal_length": "16", "subject": "A1LR0VQIHQUJAM:3YW4XOSQKRTI0K0Z2YPDTDJVFABU1I"}
{"meta_move": "drag_end", "rt": "394.0", "trial_number": "1", "pre_actions": "1", "move": "r@12", "instance": "prb45893", "distance_to_goal": "NA", "progress": "NA", "move_number": "77", "optimal_length": "16", "subject": "A1LR0VQIHQUJAM:3YW4XOSQKRTI0K0Z2YPDTDJVFABU1I"}
{"meta_move": "drag_end", "rt": "479.0", "trial_number": "1", "pre_actions": "1", "move": "7@8", "instance": "prb45893", "distance_to_goal": "NA", "progress": "NA", "move_number": "78", "optimal_length": "16", "subject": "A1LR0VQIHQUJAM:3YW4XOSQKRTI0K0Z2YPDTDJVFABU1I"}
{"meta_move": "drag_end", "rt": "612.0", "trial_number": "1", "pre_actions": "1", "move": "2@1", "instance": "prb45893", "distance_to_goal": "NA", "progress": "NA", "move_number": "79", "optimal_length": "16", "subject": "A1LR0VQIHQUJAM:3YW4XOSQKRTI0K0Z2YPDTDJVFABU1I"}
{"meta_move": "drag_end", "rt": "593.0", "trial_number": "1", "pre_actions": "1", "move": "4@5", "instance": "prb45893", "distance_to_goal": "NA", "progress": "NA", "move_number": "80", "optimal_length": "16", "subject": "A1LR0VQIHQUJAM:3YW4XOSQKRTI0K0Z2YPDTDJVFABU1I"}
{"meta_move": "drag_end", "rt": "1509.0", "trial_number": "1", "pre_actions": "1", "move": "1@21", "instance": "prb45893", "distance_to_goal": "NA", "progress": "NA", "move_number": "81", "optimal_length": "16", "subject": "A1LR0VQIHQUJAM:3YW4XOSQKRTI0K0Z2YPDTDJVFABU1I"}
{"meta_move": "drag_end", "rt": "1169.0", "trial_number": "1", "pre_actions": "1", "move": "7@26", "instance": "prb45893", "distance_to_goal": "NA", "progress": "NA", "move_number": "82", "optimal_length": "16", "subject": "A1LR0VQIHQUJAM:3YW4XOSQKRTI0K0Z2YPDTDJVFABU1I"}
{"meta_move": "drag_end", "rt": "1017.0", "trial_number": "1", "pre_actions": "1", "move": "1@18", "instance": "prb45893", "distance_to_goal": "NA", "progress": "NA", "move_number": "83", "optimal_length": "16", "subject": "A1LR0VQIHQUJAM:3YW4XOSQKRTI0K0Z2YPDTDJVFABU1I"}
{"meta_move": "drag_end", "rt": "3449.0", "trial_number": "1", "pre_actions": "1", "move": "6@15", "instance": "prb45893", "distance_to_goal": "NA", "progress": "NA", "move_number": "84", "optimal_length": "16", "subject": "A1LR0VQIHQUJAM:3YW4XOSQKRTI0K0Z2YPDTDJVFABU1I"}
{"meta_move": "drag_end", "rt": "800.0", "trial_number": "1", "pre_actions": "1", "move": "r@13", "instance": "prb45893", "distance_to_goal": "NA", "progress": "NA", "move_number": "85", "optimal_length": "16", "subject": "A1LR0VQIHQUJAM:3YW4XOSQKRTI0K0Z2YPDTDJVFABU1I"}
{"meta_move": "drag_end", "rt": "530.0", "trial_number": "1", "pre_actions": "1", "move": "3@6", "instance": "prb45893", "distance_to_goal": "NA", "progress": "NA", "move_number": "86", "optimal_length": "16", "subject": "A1LR0VQIHQUJAM:3YW4XOSQKRTI0K0Z2YPDTDJVFABU1I"}
{"meta_move": "drag_end", "rt": "713.0", "trial_number": "1", "pre_actions": "1", "move": "2@0", "instance": "prb45893", "distance_to_goal": "NA", "progress": "NA", "move_number": "87", "optimal_length": "16", "subject": "A1LR0VQIHQUJAM:3YW4XOSQKRTI0K0Z2YPDTDJVFABU1I"}
{"meta_move": "drag_end", "rt": "1353.0", "trial_number": "1", "pre_actions": "1", "move": "6@3", "instance": "prb45893", "distance_to_goal": "NA", "progress": "NA", "move_number": "88", "optimal_length": "16", "subject": "A1LR0VQIHQUJAM:3YW4XOSQKRTI0K0Z2YPDTDJVFABU1I"}
{"meta_move": "drag_end", "rt": "770.0", "trial_number": "1", "pre_actions": "1", "move": "r@15", "instance": "prb45893", "distance_to_goal": "NA", "progress": "NA", "move_number": "89", "optimal_length": "16", "subject": "A1LR0VQIHQUJAM:3YW4XOSQKRTI0K0Z2YPDTDJVFABU1I"}
{"meta_move": "drag_end", "rt": "542.0", "trial_number": "1", "pre_actions": "1", "move": "4@23", "instance": "prb45893", "distance_to_goal": "NA", "progress": "NA", "move_number": "90", "optimal_length": "16", "subject": "A1LR0VQIHQUJAM:3YW4XOSQKRTI0K0Z2YPDTDJVFABU1I"}
{"meta_move": "win", "rt": "451.0", "trial_number": "1", "pre_actions": "1", "move": "r@15", "instance": "prb45893", "distance_to_goal": "1", "progress": "NA", "move_number": "91", "optimal_length": "16", "subject": "A1LR0VQIHQUJAM:3YW4XOSQKRTI0K0Z2YPDTDJVFABU1I"}
{"meta_move": "drag_end", "rt": "39.0", "trial_number": "0", "pre_actions": "0", "move": "r@16", "instance": "prb45893", "distance_to_goal": "NA", "progress": "NA", "move_number": "91", "optimal_length": "16", "subject": "A1LR0VQIHQUJAM:3YW4XOSQKRTI0K0Z2YPDTDJVFABU1I"}
{"meta_move": "drag_end", "rt": "3407.0", "trial_number": "1", "pre_actions": "1", "move": "4@23", "instance": "prb45893", "distance_to_goal": "NA", "progress": "NA", "move_number": "0", "optimal_length": "16", "subject": "A214HWAW1PYWO8:34BBWHLWHBJ6SUL255PK30LEGY5IWG"}
{"meta_move": "drag_end", "rt": "777.0", "trial_number": "1", "pre_actions": "1", "move": "6@9", "instance": "prb45893", "distance_to_goal": "NA", "progress": "NA", "move_number": "1", "optimal_length": "16", "subject": "A214HWAW1PYWO8:34BBWHLWHBJ6SUL255PK30LEGY5IWG"}
{"meta_move": "drag_end", "rt": "4279.0", "trial_number": "1", "pre_actions": "1", "move": "6@9", "instance": "prb45893", "distance_to_goal": "NA", "progress": "NA", "move_number": "2", "optimal_length": "16", "subject": "A214HWAW1PYWO8:34BBWHLWHBJ6SUL255PK30LEGY5IWG"}
{"meta_move": "drag_end", "rt": "3241.0", "trial_number": "1", "pre_actions": "1", "move": "3@0", "instance": "prb45893", "distance_to_goal": "NA", "progress": "NA", "move_number": "2", "optimal_length": "16", "subject": "A214HWAW1PYWO8:34BBWHLWHBJ6SUL255PK30LEGY5IWG"}
{"meta_move": "drag_end", "rt": "487.0", "trial_number": "1", "pre_actions": "1", "move": "r@12", "instance": "prb45893", "distance_to_goal": "NA", "progress": "NA", "move_number": "3", "optimal_length": "16", "subject": "A214HWAW1PYWO8:34BBWHLWHBJ6SUL255PK30LEGY5IWG"}
{"meta_move": "drag_end", "rt": "537.0", "trial_number": "1", "pre_actions": "1", "move": "7@8", "instance": "prb45893", "distance_to_goal": "NA", "progress": "NA", "move_number": "4", "optimal_length": "16", "subject": "A214HWAW1PYWO8:34BBWHLWHBJ6SUL255PK30LEGY5IWG"}
{"meta_move": "drag_end", "rt": "488.0", "trial_number": "1", "pre_actions": "1", "move": "2@1", "instance": "prb45893", "distance_to_goal": "NA", "progress": "NA", "move_number": "5", "optimal_length": "16", "subject": "A214HWAW1PYWO8:34BBWHLWHBJ6SUL255PK30LEGY5IWG"}
{"meta_move": "drag_end", "rt": "1994.0", "trial_number": "1", "pre_actions": "1", "move": "4@23", "instance": "prb45893", "distance_to_goal": "NA", "progress": "NA", "move_number": "6", "optimal_length": "16", "subject": "A214HWAW1PYWO8:34BBWHLWHBJ6SUL255PK30LEGY5IWG"}
{"meta_move": "drag_end", "rt": "750.0", "trial_number": "1", "pre_actions": "1", "move": "6@15", "instance": "prb45893", "distance_to_goal": "NA", "progress": "NA", "move_number": "6", "optimal_length": "16", "subject": "A214HWAW1PYWO8:34BBWHLWHBJ6SUL255PK30LEGY5IWG"}
{"meta_move": "drag_end", "rt": "589.0", "trial_number": "1", "pre_actions": "1", "move": "6@9", "instance": "prb45893", "distance_to_goal": "NA", "progress": "NA", "move_number": "7", "optimal_length": "16", "subject": "A214HWAW1PYWO8:34BBWHLWHBJ6SUL255PK30LEGY5IWG"}
{"meta_move": "drag_end", "rt": "662.0", "trial_number": "1", "pre_actions": "1", "move": "1@20", "instance": "prb45893", "distance_to_goal": "NA", "progress": "NA", "move_number": "8", "optimal_length": "16", "subject": "A214HWAW1PYWO8:34BBWHLWHBJ6SUL255PK30LEGY5IWG"}
{"meta_move": "drag_end", "rt": "792.0", "trial_number": "1", "pre_actions": "1", "move": "5@25", "instance": "prb45893", "distance_to_goal": "NA", "progress": "NA", "move_number": "9", "optimal_length": "16", "subject": "A214HWAW1PYWO8:34BBWHLWHBJ6SUL255PK30LEGY5IWG"}
{"meta_move": "drag_end", "rt": "1077.0", "trial_number": "1", "pre_actions": "1", "move": "5@24", "instance": "prb45893", "distance_to_goal": "NA", "progress": "NA", "move_number": "10", "optimal_length": "16", "subject": "A214HWAW1PYWO8:34BBWHLWHBJ6SUL255PK30LEGY5IWG"}
{"meta_move": "drag_end", "rt": "1724.0", "trial_number": "1", "pre_actions": "1", "move": "2@3", "instance": "prb45893", "distance_to_goal": "NA", "progress": "NA", "move_number": "11", "optimal_length": "16", "subject": "A214HWAW1PYWO8:34BBWHLWHBJ6SUL255PK30LEGY5IWG"}
{"meta_move": "drag_end", "rt": "664.0", "trial_number": "1", "pre_actions": "1", "move": "7@2", "instance": "prb45893", "distance_to_goal": "NA", "progress": "NA", "move_number": "12", "optimal_length": "16", "subject": "A214HWAW1PYWO8:34BBWHLWHBJ6SUL255PK30LEGY5IWG"}
{"meta_move": "drag_end", "rt": "740.0", "trial_number": "1", "pre_actions": "1", "move": "r@13", "instance": "prb45893", "distance_to_goal": "NA", "progress": "NA", "move_number": "13", "optimal_length": "16", "subject": "A214HWAW1PYWO8:34BBWHLWHBJ6SUL255PK30LEGY5IWG"}
{"meta_move": "drag_end", "rt": "481.0", "trial_number": "1", "pre_actions": "1", "move": "1@18", "instance": "prb45893", "distance_to_goal": "NA", "progress": "NA", "move_number": "14", "optimal_length": "16", "subject": "A214HWAW1PYWO8:34BBWHLWHBJ6SUL255PK30LEGY5IWG"}
{"meta_move": "drag_end", "rt": "1888.0", "trial_number": "1", "pre_actions": "1", "move": "r@12", "instance": "prb45893", "distance_to_goal": "NA", "progress": "NA", "move_number": "15", "optimal_length": "16", "subject": "A214HWAW1PYWO8:34BBWHLWHBJ6SUL255PK30LEGY5IWG"}
{"meta_move": "drag_end", "rt": "981.0", "trial_number": "1", "pre_actions": "1", "move": "1@20", "instance": "prb45893", "distance_to_goal": "NA", "progress": "NA", "move_number": "16", "optimal_length": "16", "subject": "A214HWAW1PYWO8:34BBWHLWHBJ6SUL255PK30LEGY5IWG"}
{"meta_move": "drag_end", "rt": "2585.0", "trial_number": "1", "pre_actions": "1", "move": "4@11", "instance": "prb45893", "distance_to_goal": "NA", "progress": "NA", "move_number": "17", "optimal_length": "16", "subject": "A214HWAW1PYWO8:34BBWHLWHBJ6SUL255PK30LEGY5IWG"}
{"meta_move": "drag_end", "rt": "597.0", "trial_number": "1", "pre_actions": "1", "move": "7@8", "instance": "prb45893", "distance_to_goal": "NA", "progress": "NA", "move_number": "18", "optimal_length": "16", "subject": "A214HWAW1PYWO8:34BBWHLWHBJ6SUL255PK30LEGY5IWG"}
{"meta_move": "drag_end", "rt": "441.0", "trial_number": "1", "pre_actions": "1", "move": "2@1", "instance": "prb45893", "distance_to_goal": "NA", "progress": "NA", "move_number": "19", "optimal_length": "16", "subject": "A214HWAW1PYWO8:34BBWHLWHBJ6SUL255PK30LEGY5IWG"}
{"meta_move": "drag_end", "rt": "474.0", "trial_number": "1", "pre_actions": "1", "move": "4@5", "instance": "prb45893", "distance_to_goal": "NA", "progress": "NA", "move_number": "20", "optimal_length": "16", "subject": "A214HWAW1PYWO8:34BBWHLWHBJ6SUL255PK30LEGY5IWG"}
{"meta_move": "drag_end", "rt": "484.0", "trial_number": "1", "pre_actions": "1", "move": "1@21", "instance": "prb45893", "distance_to_goal": "NA", "progress": "NA", "move_number": "21", "optimal_length": "16", "subject": "A214HWAW1PYWO8:34BBWHLWHBJ6SUL255PK30LEGY5IWG"}
{"meta_move": "drag_end", "rt": "618.0", "trial_number": "1", "pre_actions": "1", "move": "7@26", "instance": "prb45893", "distance_to_goal": "NA", "progress": "NA", "move_number": "22", "optimal_length": "16", "subject": "A214HWAW1PYWO8:34BBWHLWHBJ6SUL255PK30LEGY5IWG"}
{"meta_move": "drag_end", "rt": "4136.0", "trial_number": "1", "pre_actions": "1", "move": "1@18", "instance": "prb45893", "distance_to_goal": "NA", "progress": "NA", "move_number": "23", "optimal_length": "16", "subject": "A214HWAW1PYWO8:34BBWHLWHBJ6SUL255PK30LEGY5IWG"}
{"meta_move": "drag_end", "rt": "734.0", "trial_number": "1", "pre_actions": "1", "move": "4@23", "instance": "prb45893", "distance_to_goal": "NA", "progress": "NA", "move_number": "24", "optimal_length": "16", "subject": "A214HWAW1PYWO8:34BBWHLWHBJ6SUL255PK30LEGY5IWG"}
{"meta_move": "drag_end", "rt": "1198.0", "trial_number": "1", "pre_actions": "1", "move": "2@3", "instance": "prb45893", "distance_to_goal": "NA", "progress": "NA", "move_number": "25", "optimal_length": "16", "subject": "A214HWAW1PYWO8:34BBWHLWHBJ6SUL255PK30LEGY5IWG"}
{"meta_move": "drag_end", "rt": "1086.0", "trial_number": "1", "pre_actions": "1", "move": "r@13", "instance": "prb45893", "distance_to_goal": "NA", "progress": "NA", "move_number": "26", "optimal_length": "16", "subject": "A214HWAW1PYWO8:34BBWHLWHBJ6SUL255PK30LEGY5IWG"}
{"meta_move": "drag_end", "rt": "428.0", "trial_number": "1", "pre_actions": "1", "move": "3@6", "instance": "prb45893", "distance_to_goal": "NA", "progress": "NA", "move_number": "27", "optimal_length": "16", "subject": "A214HWAW1PYWO8:34BBWHLWHBJ6SUL255PK30LEGY5IWG"}
{"meta_move": "drag_end", "rt": "449.0", "trial_number": "1", "pre_actions": "1", "move": "2@0", "instance": "prb45893", "distance_to_goal": "NA", "progress": "NA", "move_number": "28", "optimal_length": "16", "subject": "A214HWAW1PYWO8:34BBWHLWHBJ6SUL255PK30LEGY5IWG"}
{"meta_move": "drag_end", "rt": "942.0", "trial_number": "1", "pre_actions": "1", "move": "6@3", "instance": "prb45893", "distance_to_goal": "NA", "progress": "NA", "move_number": "29", "optimal_length": "16", "subject": "A214HWAW1PYWO8:34BBWHLWHBJ6SUL255PK30LEGY5IWG"}
{"meta_move": "win", "rt": "456.0", "trial_number": "1", "pre_actions": "1", "move": "r@13", "instance": "prb45893", "distance_to_goal": "1", "progress": "NA", "move_number": "30", "optimal_length": "16", "subject": "A214HWAW1PYWO8:34BBWHLWHBJ6SUL255PK30LEGY5IWG"}
{"meta_move": "drag_end", "rt": "49.0", "trial_number": "0", "pre_actions": "0", "move": "r@16", "instance": "prb45893", "distance_to_goal": "NA", "progress": "NA", "move_number": "30", "optimal_length": "16", "subject": "A214HWAW1PYWO8:34BBWHLWHBJ6SUL255PK30LEGY5IWG"}
{"meta_move": "drag_end", "rt": "3134.0", "trial_number": "1", "pre_actions": "1", "move": "4@23", "instance": "prb45893", "distance_to_goal": "NA", "progress": "NA", "move_number": "0", "optimal_length": "16", "subject": "A21S7MA9DCW95E:3X87C8JFV7JQ2BSCY8KSFD9F2ILSQK"}
{"meta_move": "drag_end", "rt": "2426.0", "trial_number": "1", "pre_actions": "1", "move": "6@9", "instance": "prb45893", "distance_to_goal": "NA", "progress": "NA", "move_number": "1", "optimal_length": "16", "subject": "A21S7MA9DCW95E:3X87C8JFV7JQ2BSCY8KSFD9F2ILSQK"}
{"meta_move": "drag_end", "rt": "1033.0", "trial_number": "1", "pre_actions": "1", "move": "1@20", "instance": "prb45893", "distance_to_goal": "NA", "progress": "NA", "move_number": "2", "optimal_length": "16", "subject": "A21S7MA9DCW95E:3X87C8JFV7JQ2BSCY8KSFD9F2ILSQK"}
{"meta_move": "drag_end", "rt": "1496.0", "trial_number": "1", "pre_actions": "1", "move": "3@0", "instance": "prb45893", "distance_to_goal": "NA", "progress": "NA", "move_number": "3", "optimal_length": "16", "subject": "A21S7MA9DCW95E:3X87C8JFV7JQ2BSCY8KSFD9F2ILSQK"}
{"meta_move": "drag_end", "rt": "4192.0", "trial_number": "1", "pre_actions": "1", "move": "1@18", "instance": "prb45893", "distance_to_goal": "NA", "progress": "NA", "move_number": "4", "optimal_length": "16", "subject": "A21S7MA9DCW95E:3X87C8JFV7JQ2BSCY8KSFD9F2ILSQK"}
{"meta_move": "drag_end", "rt": "3161.0", "trial_number": "1", "pre_actions": "1", "move": "1@20", "instance": "prb45893", "distance_to_goal": "NA", "progress": "NA", "move_number": "5", "optimal_length": "16", "subject": "A21S7MA9DCW95E:3X87C8JFV7JQ2BSCY8KSFD9F2ILSQK"}
{"meta_move": "drag_end", "rt": "2815.0", "trial_number": "1", "pre_actions": "1", "move": "r@12", "instance": "prb45893", "distance_to_goal": "NA", "progress": "NA", "move_number": "6", "optimal_length": "16", "subject": "A21S7MA9DCW95E:3X87C8JFV7JQ2BSCY8KSFD9F2ILSQK"}
{"meta_move": "drag_end", "rt": "748.0", "trial_number": "1", "pre_actions": "1", "move": "7@8", "instance": "prb45893", "distance_to_goal": "NA", "progress": "NA", "move_number": "7", "optimal_length": "16", "subject": "A21S7MA9DCW95E:3X87C8JFV7JQ2BSCY8KSFD9F2ILSQK"}
{"meta_move": "drag_end", "rt": "922.0", "trial_number": "1", "pre_actions": "1", "move": "2@1", "instance": "prb45893", "distance_to_goal": "NA", "progress": "NA", "move_number": "8", "optimal_length": "16", "subject": "A21S7MA9DCW95E:3X87C8JFV7JQ2BSCY8KSFD9F2ILSQK"}
{"meta_move": "drag_end", "rt": "1224.0", "trial_number": "1", "pre_actions": "1", "move": "4@5", "instance": "prb45893", "distance_to_goal": "NA", "progress": "NA", "move_number": "9", "optimal_length": "16", "subject": "A21S7MA9DCW95E:3X87C8JFV7JQ2BSCY8KSFD9F2ILSQK"}
{"meta_move": "drag_end", "rt": "1242.0", "trial_number": "1", "pre_actions": "1", "move": "1@21", "instance": "prb45893", "distance_to_goal": "NA", "progress": "NA", "move_number": "10", "optimal_length": "16", "subject": "A21S7MA9DCW95E:3X87C8JFV7JQ2BSCY8KSFD9F2ILSQK"}
{"meta_move": "drag_end", "rt": "2543.0", "trial_number": "1", "pre_actions": "1", "move": "5@24", "instance": "prb45893", "distance_to_goal": "NA", "progress": "NA", "move_number": "11", "optimal_length": "16", "subject": "A21S7MA9DCW95E:3X87C8JFV7JQ2BSCY8KSFD9F2ILSQK"}
{"meta_move": "drag_end", "rt": "1201.0", "trial_number": "1", "pre_actions": "1", "move": "7@20", "instance": "prb45893", "distance_to_goal": "NA", "progress": "NA", "move_number": "11", "optimal_length": "16", "subject": "A21S7MA9DCW95E:3X87C8JFV7JQ2BSCY8KSFD9F2ILSQK"}
{"meta_move": "drag_end", "rt": "868.0", "trial_number": "1", "pre_actions": "1", "move": "r@13", "instance": "prb45893", "distance_to_goal": "NA", "progress": "NA", "move_number": "12", "optimal_length": "16", "subject": "A21S7MA9DCW95E:3X87C8JFV7JQ2BSCY8KSFD9F2ILSQK"}
{"meta_move": "drag_end", "rt": "1402.0", "trial_number": "1", "pre_actions": "1", "move": "3@12", "instance": "prb45893", "distance_to_goal": "NA", "progress": "NA", "move_number": "13", "optimal_length": "16", "subject": "A21S7MA9DCW95E:3X87C8JFV7JQ2BSCY8KSFD9F2ILSQK"}
{"meta_move": "drag_end", "rt": "1405.0", "trial_number": "1", "pre_actions": "1", "move": "2@0", "instance": "prb45893", "distance_to_goal": "NA", "progress": "NA", "move_number": "14", "optimal_length": "16", "subject": "A21S7MA9DCW95E:3X87C8JFV7JQ2BSCY8KSFD9F2ILSQK"}
{"meta_move": "drag_end", "rt": "1220.0", "trial_number": "1", "pre_actions": "1", "move": "6@3", "instance": "prb45893", "distance_to_goal": "NA", "progress": "NA", "move_number": "15", "optimal_length": "16", "subject": "A21S7MA9DCW95E:3X87C8JFV7JQ2BSCY8KSFD9F2ILSQK"}
{"meta_move": "drag_end", "rt": "2129.0", "trial_number": "1", "pre_actions": "1", "move": "3@6", "instance": "prb45893", "distance_to_goal": "NA", "progress": "NA", "move_number": "16", "optimal_length": "16", "subject": "A21S7MA9DCW95E:3X87C8JFV7JQ2BSCY8KSFD9F2ILSQK"}
{"meta_move": "drag_end", "rt": "2361.0", "trial_number": "1", "pre_actions": "1", "move": "r@15", "instance": "prb45893", "distance_to_goal": "NA", "progress": "NA", "move_number": "17", "optimal_length": "16", "subject": "A21S7MA9DCW95E:3X87C8JFV7JQ2BSCY8KSFD9F2ILSQK"}
{"meta_move": "drag_end", "rt": "1346.0", "trial_number": "1", "pre_actions": "1", "move": "7@8", "instance": "prb45893", "distance_to_goal": "NA", "progress": "NA", "move_number": "18", "optimal_length": "16", "subject": "A21S7MA9DCW95E:3X87C8JFV7JQ2BSCY8KSFD9F2ILSQK"}
{"meta_move": "drag_end", "rt": "812.0", "trial_number": "1", "pre_actions": "1", "move": "1@18", "instance": "prb45893", "distance_to_goal": "NA", "progress": "NA", "move_number": "19", "optimal_length": "16", "subject": "A21S7MA9DCW95E:3X87C8JFV7JQ2BSCY8KSFD9F2ILSQK"}
{"meta_move": "drag_end", "rt": "876.0", "trial_number": "1", "pre_actions": "1", "move": "4@23", "instance": "prb45893", "distance_to_goal": "NA", "progress": "NA", "move_number": "20", "optimal_length": "16", "subject": "A21S7MA9DCW95E:3X87C8JFV7JQ2BSCY8KSFD9F2ILSQK"}
{"meta_move": "win", "rt": "974.0", "trial_number": "1", "pre_actions": "1", "move": "r@15", "instance": "prb45893", "distance_to_goal": "1", "progress": "NA", "move_number": "21", "optimal_length": "16", "subject": "A21S7MA9DCW95E:3X87C8JFV7JQ2BSCY8KSFD9F2ILSQK"}
{"meta_move": "drag_end", "rt": "20.0", "trial_number": "0", "pre_actions": "0", "move": "r@16", "instance": "prb45893", "distance_to_goal": "NA", "progress": "NA", "move_number": "21", "optimal_length": "16", "subject": "A21S7MA9DCW95E:3X87C8JFV7JQ2BSCY8KSFD9F2ILSQK"}
{"meta_move": "drag_end", "rt": "1675.0", "trial_number": "2", "pre_actions": "1", "move": "6@9", "instance": "prb45893", "distance_to_goal": "NA", "progress": "NA", "move_number": "0", "optimal_length": "16", "subject": "A23437BMZ5T1FH:3IHR8NYAM89M0EPM8U9LH53ZJDTP4U"}
{"meta_move": "drag_end", "rt": "1321.0", "trial_number": "2", "pre_actions": "1", "move": "4@11", "instance": "prb45893", "distance_to_goal": "NA", "progress": "NA", "move_number": "1", "optimal_length": "16", "subject": "A23437BMZ5T1FH:3IHR8NYAM89M0EPM8U9LH53ZJDTP4U"}
{"meta_move": "drag_end", "rt": "642.0", "trial_number": "2", "pre_actions": "1", "move": "1@20", "instance": "prb45893", "distance_to_goal": "NA", "progress": "NA", "move_number": "2", "optimal_length": "16", "subject": "A23437BMZ5T1FH:3IHR8NYAM89M0EPM8U9LH53ZJDTP4U"}
{"meta_move": "drag_end", "rt": "670.0", "trial_number": "2", "pre_actions": "1", "move": "3@12", "instance": "prb45893", "distance_to_goal": "NA", "progress": "NA", "move_number": "3", "optimal_length": "16", "subject": "A23437BMZ5T1FH:3IHR8NYAM89M0EPM8U9LH53ZJDTP4U"}
{"meta_move": "drag_end", "rt": "688.0", "trial_number": "2", "pre_actions": "1", "move": "5@25", "instance": "prb45893", "distance_to_goal": "NA", "progress": "NA", "move_number": "4", "optimal_length": "16", "subject": "A23437BMZ5T1FH:3IHR8NYAM89M0EPM8U9LH53ZJDTP4U"}
{"meta_move": "drag_end", "rt": "696.0", "trial_number": "2", "pre_actions": "1", "move": "3@24", "instance": "prb45893", "distance_to_goal": "NA", "progress": "NA", "move_number": "5", "optimal_length": "16", "subject": "A23437BMZ5T1FH:3IHR8NYAM89M0EPM8U9LH53ZJDTP4U"}
{"meta_move": "drag_end", "rt": "562.0", "trial_number": "2", "pre_actions": "1", "move": "r@12", "instance": "prb45893", "distance_to_goal": "NA", "progress": "NA", "move_number": "6", "optimal_length": "16", "subject": "A23437BMZ5T1FH:3IHR8NYAM89M0EPM8U9LH53ZJDTP4U"}
