{"rt": "26286.0", "trial_number": "0", "skipped": "False", "complete": "True", "assignment": "3TYCR1GOTDRCCQYD1V64UK7OHTBZLQ", "start_time": "1.51753638538e+12", "human_length": "22", "nodes_expanded": "999", "instance": "prb42959", "end_time": "1.51753641167e+12", "optimal_length": "11", "subject": "A13BZCNJ0WR1T7"}
{"rt": "42463.0", "trial_number": "0", "skipped": "False", "complete": "True", "assignment": "3TS1AR6UQRM7SOIBWPBN8N9589Y7FV", "start_time": "1.51684182355e+12", "human_length": "32", "nodes_expanded": "999", "instance": "prb42959", "end_time": "1.51684186601e+12", "optimal_length": "11", "subject": "A15FXHC1CVNW31"}
{"rt": "0.0", "trial_number": "0", "skipped": "False", "complete": "False", "assignment": "3VE8AYVF8N5BS2NU6U3TMN50JMNF8V", "start_time": "1.51673748959e+12", "human_length": "1", "nodes_expanded": "999", "instance": "prb42959", "end_time": "1.51673748959e+12", "optimal_length": "11", "subject": "A18QU0YQB6Q8DF"}
{"rt": "0.0", "trial_number": "1", "skipped": "False", "complete": "False", "assignment": "3VE8AYVF8N5BS2NU6U3TMN50JMNF8V", "start_time": "1.51673748959e+12", "human_length": "1", "nodes_expanded": "999", "instance": "prb42959", "end_time": "1.51673748959e+12", "optimal_length": "11", "subject": "A18QU0YQB6Q8DF"}
{"rt": "37288.0", "trial_number": "2", "skipped": "False", "complete": "True", "assignment": "3VE8AYVF8N5BS2NU6U3TMN50JMNF8V", "start_time": "1.51673748959e+12", "human_length": "18", "nodes_expanded": "999", "instance": "prb42959", "end_time": "1.51673752688e+12", "optimal_length": "11", "subject": "A18QU0YQB6Q8DF"}
{"rt": "37288.0", "trial_number": "0", "skipped": "False", "complete": "True", "assignment": "3VE8AYVF8N5BS2NU6U3TMN50JMNF8V", "start_time": "1.51673748959e+12", "human_length": "18", "nodes_expanded": "999", "instance": "prb42959", "end_time": "1.51673752688e+12", "optimal_length": "11", "subject": "A18QU0YQB6Q8DF"}
{"rt": "30427.0", "trial_number": "0", "skipped": "False", "complete": "True", "assignment": "3IJXV6UZ1YR1KY4G6BFEG1DXR47RIC", "start_time": "1.51797299718e+12", "human_length": "29", "nodes_expanded": "999", "instance": "prb42959", "end_time": "1.5179730276e+12", "optimal_length": "11", "subject": "A18T3WK7J16C1B"}
{"rt": "16319.0", "trial_number": "0", "skipped": "False", "complete": "True", "assignment": "3PMBY0YE28B43VMUKKJ6EDF85RV9C8", "start_time": "1.51638644159e+12", "human_length": "12", "nodes_expanded": "999", "instance": "prb42959", "end_time": "1.51638645791e+12", "optimal_length": "11", "subject": "A191V7PT3DQKDP"}
{"rt": "0.0", "trial_number": "0", "skipped": "False", "complete": "False", "assignment": "3H0W84IWBLAP4T2UASPNVMF5ZH7ER9", "start_time": "1.51755501202e+12", "human_length": "1", "nodes_expanded": "999", "instance": "prb42959", "end_time": "1.51755501202e+12", "optimal_length": "11", "subject": "A1AKX1C8GCVCTP"}
{"rt": "3547.0", "trial_number": "1", "skipped": "False", "complete": "False", "assignment": "3H0W84IWBLAP4T2UASPNVMF5ZH7ER9", "start_time": "1.51755501204e+12", "human_length": "2", "nodes_expanded": "999", "instance": "prb42959", "end_time": "1.51755501559e+12", "optimal_length": "11", "subject": "A1AKX1C8GCVCTP"}
{"rt": "0.0", "trial_number": "2", "skipped": "False", "complete": "False", "assignment": "3H0W84IWBLAP4T2UASPNVMF5ZH7ER9", "start_time": "1.51755501750e+12", "human_length": "1", "nodes_expanded": "999", "instance": "prb42959", "end_time": "1.51755501750e+12", "optimal_length": "11", "subject": "A1AKX1C8GCVCTP"}
{"rt": "29472.0", "trial_number": "3", "skipped": "False", "complete": "True", "assignment": "3H0W84IWBLAP4T2UASPNVMF5ZH7ER9", "start_time": "1.51755501775e+12", "human_length": "25", "nodes_expanded": "999", "instance": "prb42959", "end_time": "1.51755504723e+12", "optimal_length": "11", "subject": "A1AKX1C8GCVCTP"}
{"rt": "28238.0", "trial_number": "0", "skipped": "False", "complete": "True", "assignment": "3ZSANO2JCGFTBM23KS9Y3E51YP4FSQ", "start_time": "1.51814205583e+12", "human_length": "22", "nodes_expanded": "999", "instance": "prb42959", "end_time": "1.51814208407e+12", "optimal_length": "11", "subject": "A1F42D4L22K5ND"}
{"rt": "48975.0", "trial_number": "0", "skipped": "False", "complete": "False", "assignment": "3TS1AR6UQRM7SOIBWPBN8N9589Y7FV", "start_time": "1.51683930103e+12", "human_length": "42", "nodes_expanded": "999", "instance": "prb42959", "end_time": "1.51683935001e+12", "optimal_length": "11", "subject": "A1F4N58CAX8IMK"}
{"rt": "67535.0", "trial_number": "1", "skipped": "False", "complete": "True", "assignment": "3TS1AR6UQRM7SOIBWPBN8N9589Y7FV", "start_time": "1.51683935123e+12", "human_length": "53", "nodes_expanded": "999", "instance": "prb42959", "end_time": "1.51683941877e+12", "optimal_length": "11", "subject": "A1F4N58CAX8IMK"}
{"rt": "18524.0", "trial_number": "2", "skipped": "False", "complete": "True", "assignment": "35DR22AR5ES6RR89U7EJ1DXW91AX3P", "start_time": "1.51795285548e+12", "human_length": "18", "nodes_expanded": "999", "instance": "prb42959", "end_time": "1.517952874e+12", "optimal_length": "11", "subject": "A1F4N58CAX8IMK"}
{"rt": "25314.0", "trial_number": "0", "skipped": "False", "complete": "True", "assignment": "33F859I567LE8WC74WB3GA7E94XBHW", "start_time": "1.51797062985e+12", "human_length": "21", "nodes_expanded": "999", "instance": "prb42959", "end_time": "1.51797065517e+12", "optimal_length": "11", "subject": "A1GQS6USF2JEYG"}
{"rt": "22318.0", "trial_number": "0", "skipped": "False", "complete": "True", "assignment": "3XLBSAQ9Z5KDX59BX15UBFPNNHYZ7Q", "start_time": "1.51814712021e+12", "human_length": "18", "nodes_expanded": "999", "instance": "prb42959", "end_time": "1.51814714253e+12", "optimal_length": "11", "subject": "A1HFNOKU591WCY"}
{"rt": "29587.0", "trial_number": "0", "skipped": "False", "complete": "True", "assignment": "3FTF2T8WLSQDHTSZ1BJ7Q7MB14SW9H", "start_time": "1.5181368736e+12", "human_length": "15", "nodes_expanded": "999", "instance": "prb42959", "end_time": "1.51813690319e+12", "optimal_length": "11", "subject": "A1IUH9D7N69VS"}
{"rt": "0.0", "trial_number": "0", "skipped": "False", "complete": "False", "assignment": "3YW4XOSQKRTI0K0Z2YPDTDJVFABU1I", "start_time": "1.51683022932e+12", "human_length": "1", "nodes_expanded": "999", "instance": "prb42959", "end_time": "1.51683022932e+12", "optimal_length": "11", "subject": "A1LR0VQIHQUJAM"}
{"rt": "24174.0", "trial_number": "1", "skipped": "False", "complete": "True", "assignment": "3YW4XOSQKRTI0K0Z2YPDTDJVFABU1I", "start_time": "1.51683022932e+12", "human_length": "15", "nodes_expanded": "999", "instance": "prb42959", "end_time": "1.5168302535e+12", "optimal_length": "11", "subject": "A1LR0VQIHQUJAM"}
{"rt": "76850.0", "trial_number": "0", "skipped": "False", "complete": "True", "assignment": "31LM9EDVOM0C0BWUVMJXJINN3QPJNI", "start_time": "1.5175223529e+12", "human_length": "44", "nodes_expanded": "999", "instance": "prb42959", "end_time": "1.51752242975e+12", "optimal_length": "11", "subject": "A1NT8BT94ME6F5"}
{"rt": "29786.0", "trial_number": "0", "skipped": "False", "complete": "True", "assignment": "3RUIQRXJBCWS71H9MUFVM5WQ3SCLLJ", "start_time": "1.51815625326e+12", "human_length": "15", "nodes_expanded": "999", "instance": "prb42959", "end_time": "1.51815628305e+12", "optimal_length": "11", "subject": "A1SJRFJWFXSDH4"}
{"rt": "31818.0", "trial_number": "0", "skipped": "False", "complete": "True", "assignment": "3XC1O3LBOTUGQEPEV3HM8W67X4RTLL", "start_time": "1.51813867803e+12", "human_length": "19", "nodes_expanded": "999", "instance": "prb42959", "end_time": "1.51813870985e+12", "optimal_length": "11", "subject": "A1ZTSCPETU3UJW"}
{"rt": "35918.0", "trial_number": "0", "skipped": "False", "complete": "False", "assignment": "34BBWHLWHBJ6SUL255PK30LEGY5IWG", "start_time": "1.5163929428e+12", "human_length": "25", "nodes_expanded": "999", "instance": "prb42959", "end_time": "1.51639297872e+12", "optimal_length": "11", "subject": "A214HWAW1PYWO8"}
{"rt": "12859.0", "trial_number": "1", "skipped": "False", "complete": "True", "assignment": "34BBWHLWHBJ6SUL255PK30LEGY5IWG", "start_time": "1.51639298093e+12", "human_length": "12", "nodes_expanded": "999", "instance": "prb42959", "end_time": "1.51639299379e+12", "optimal_length": "11", "subject": "A214HWAW1PYWO8"}
{"rt": "0.0", "trial_number": "0", "skipped": "False", "complete": "False", "assignment": "3IHR8NYAM89M0EPM8U9LH53ZJDTP4U", "start_time": "1.51682533714e+12", "human_length": "1", "nodes_expanded": "999", "instance": "prb42959", "end_time": "1.51682533714e+12", "optimal_length": "11", "subject": "A23437BMZ5T1FH"}
{"rt": "13848.0", "trial_number": "1", "skipped": "False", "complete": "True", "assignment": "3IHR8NYAM89M0EPM8U9LH53ZJDTP4U", "start_time": "1.51682533714e+12", "human_length": "17", "nodes_expanded": "999", "instance": "prb42959", "end_time": "1.51682535098e+12", "optimal_length": "11", "subject": "A23437BMZ5T1FH"}
{"rt": "0.0", "trial_number": "0", "skipped": "False", "complete": "False", "assignment": "3CFVK00FWMTAOGE2ZQ9TXMETAPZ6LP", "start_time": "1.51675239179e+12", "human_length": "1", "nodes_expanded": "999", "instance": "prb42959", "end_time": "1.51675239179e+12", "optimal_length": "11", "subject": "A26RO8GGTQAXGG"}
{"rt": "0.0", "trial_number": "1", "skipped": "False", "complete": "False", "assignment": "3CFVK00FWMTAOGE2ZQ9TXMETAPZ6LP", "start_time": "1.51675239179e+12", "human_length": "1", "nodes_expanded": "999", "instance": "prb42959", "end_time": "1.51675239179e+12", "optimal_length": "11", "subject": "A26RO8GGTQAXGG"}
{"rt": "31032.0", "trial_number": "2", "skipped": "True", "complete": "False", "assignment": "3CFVK00FWMTAOGE2ZQ9TXMETAPZ6LP", "start_time": "1.51675239179e+12", "human_length": "6", "nodes_expanded": "999", "instance": "prb42959", "end_time": "1.51675242282e+12", "optimal_length": "11", "subject": "A26RO8GGTQAXGG"}
{"rt": "31032.0", "trial_number": "0", "skipped": "True", "complete": "False", "assignment": "3CFVK00FWMTAOGE2ZQ9TXMETAPZ6LP", "start_time": "1.51675239179e+12", "human_length": "6", "nodes_expanded": "999", "instance": "prb42959", "end_time": "1.51675242282e+12", "optimal_length": "11", "subject": "A26RO8GGTQAXGG"}
{"rt": "45298.0", "trial_number": "0", "skipped": "False", "complete": "True", "assignment": "3ZV9H2YQQEFR2R3JK2IXZUJPXAF3WW", "start_time": "1.51630817131e+12", "human_length": "11", "nodes_expanded": "999", "instance": "prb42959", "end_time": "1.5163082166e+12", "optimal_length": "11", "subject": "A289D98Z4GAZ28"}
{"rt": "43253.0", "trial_number": "0", "skipped": "True", "complete": "False", "assignment": "3SITXWYCNWHBUMCM90TPJWV8Y7AXBW", "start_time": "1.51816636819e+12", "human_length": "24", "nodes_expanded": "999", "instance": "prb42959", "end_time": "1.51816641144e+12", "optimal_length": "11", "subject": "A28RX7L0QZ993M"}
{"rt": "1088546.0", "trial_number": "0", "skipped": "True", "complete": "False", "assignment": "3IAS3U3I0GOAT69PLB8WT61CKJ22BO", "start_time": "1.51794026011e+12", "human_length": "4", "nodes_expanded": "999", "instance": "prb42959", "end_time": "1.51794134866e+12", "optimal_length": "11", "subject": "A2C84POENS2UNY"}
{"rt": "0.0", "trial_number": "0", "skipped": "False", "complete": "False", "assignment": "37WLF8U1WQYZ4AWKEQXSIM1ELVEK6W", "start_time": "1.51682986164e+12", "human_length": "1", "nodes_expanded": "999", "instance": "prb42959", "end_time": "1.51682986164e+12", "optimal_length": "11", "subject": "A2EPBSY0VPI38S"}
{"rt": "58725.0", "trial_number": "1", "skipped": "False", "complete": "True", "assignment": "37WLF8U1WQYZ4AWKEQXSIM1ELVEK6W", "start_time": "1.51682986164e+12", "human_length": "30", "nodes_expanded": "999", "instance": "prb42959", "end_time": "1.51682992037e+12", "optimal_length": "11", "subject": "A2EPBSY0VPI38S"}
{"rt": "0.0", "trial_number": "0", "skipped": "False", "complete": "False", "assignment": "3X4MXAO0BHWJLTOLVSJTHSM54OHWRG", "start_time": "1.51682238212e+12", "human_length": "1", "nodes_expanded": "999", "instance": "prb42959", "end_time": "1.51682238212e+12", "optimal_length": "11", "subject": "A2IBQA01NR5N76"}
{"rt": "42904.0", "trial_number": "1", "skipped": "False", "complete": "True", "assignment": "3X4MXAO0BHWJLTOLVSJTHSM54OHWRG", "start_time": "1.51682238212e+12", "human_length": "35", "nodes_expanded": "999", "instance": "prb42959", "end_time": "1.51682242503e+12", "optimal_length": "11", "subject": "A2IBQA01NR5N76"}
{"rt": "42904.0", "trial_number": "0", "skipped": "False", "complete": "True", "assignment": "3X4MXAO0BHWJLTOLVSJTHSM54OHWRG", "start_time": "1.51682238212e+12", "human_length": "35", "nodes_expanded": "999", "instance": "prb42959", "end_time": "1.51682242503e+12", "optimal_length": "11", "subject": "A2IBQA01NR5N76"}
{"rt": "35599.0", "trial_number": "0", "skipped": "False", "complete": "True", "assignment": "3FUI0JHJPY6UBT1VAI7VUX8S3KH33W", "start_time": "1.51815089505e+12", "human_length": "18", "nodes_expanded": "999", "instance": "prb42959", "end_time": "1.51815093065e+12", "optimal_length": "11", "subject": "A2QIZ31TMHU0GD"}
{"rt": "33250.0", "trial_number": "0", "skipped": "False", "complete": "True", "assignment": "3TAYZSBPLMG9ASQRWXURJVBCPLN2SH", "start_time": "1.51813765922e+12", "human_length": "20", "nodes_expanded": "999", "instance": "prb42959", "end_time": "1.51813769247e+12", "optimal_length": "11", "subject": "A2RCYLKY072XXO"}
{"rt": "0.0", "trial_number": "0", "skipped": "False", "complete": "False", "assignment": "3WSELTNVR4AZUVYAYCSWZIQW0J4ATB", "start_time": "1.51673775455e+12", "human_length": "1", "nodes_expanded": "999", "instance": "prb42959", "end_time": "1.51673775455e+12", "optimal_length": "11", "subject": "A2TQNX64349OZ9"}
{"rt": "0.0", "trial_number": "1", "skipped": "False", "complete": "False", "assignment": "3WSELTNVR4AZUVYAYCSWZIQW0J4ATB", "start_time": "1.51673775455e+12", "human_length": "1", "nodes_expanded": "999", "instance": "prb42959", "end_time": "1.51673775455e+12", "optimal_length": "11", "subject": "A2TQNX64349OZ9"}
{"rt": "20351.0", "trial_number": "2", "skipped": "False", "complete": "True", "assignment": "3WSELTNVR4AZUVYAYCSWZIQW0J4ATB", "start_time": "1.51673775455e+12", "human_length": "13", "nodes_expanded": "999", "instance": "prb42959", "end_time": "1.5167377749e+12", "optimal_length": "11", "subject": "A2TQNX64349OZ9"}
{"rt": "20351.0", "trial_number": "0", "skipped": "False", "complete": "True", "assignment": "3WSELTNVR4AZUVYAYCSWZIQW0J4ATB", "start_time": "1.51673775455e+12", "human_length": "13", "nodes_expanded": "999", "instance": "prb42959", "end_time": "1.5167377749e+12", "optimal_length": "11", "subject": "A2TQNX64349OZ9"}
{"rt": "54521.0", "trial_number": "0", "skipped": "False", "complete": "False", "assignment": "37TD41K0AIHM8AITTQJXV8KY05QCSB", "start_time": "1.51752330318e+12", "human_length": "22", "nodes_expanded": "999", "instance": "prb42959", "end_time": "1.5175233577e+12", "optimal_length": "11", "subject": "A30KYQGABO7JER"}
{"rt": "33042.0", "trial_number": "1", "skipped": "False", "complete": "True", "assignment": "37TD41K0AIHM8AITTQJXV8KY05QCSB", "start_time": "1.51752336144e+12", "human_length": "11", "nodes_expanded": "999", "instance": "prb42959", "end_time": "1.51752339448e+12", "optimal_length": "11", "subject": "A30KYQGABO7JER"}
{"rt": "25827.0", "trial_number": "0", "skipped": "False", "complete": "True", "assignment": "34HJIJKLP64Z5YMIU6IKNXSH7PDV4I", "start_time": "1.51794177078e+12", "human_length": "15", "nodes_expanded": "999", "instance": "prb42959", "end_time": "1.5179417966e+12", "optimal_length": "11", "subject": "A3CTXNQ2GXIQSP"}
{"rt": "0.0", "trial_number": "0", "skipped": "False", "complete": "False", "assignment": "3I2PTA7R3U2SESF4TZBQORI5LSJQKK", "start_time": "1.5167595466e+12", "human_length": "1", "nodes_expanded": "999", "instance": "prb42959", "end_time": "1.5167595466e+12", "optimal_length": "11", "subject": "A3NMQ3019X6YE0"}
{"rt": "0.0", "trial_number": "1", "skipped": "False", "complete": "False", "assignment": "3I2PTA7R3U2SESF4TZBQORI5LSJQKK", "start_time": "1.5167595466e+12", "human_length": "1", "nodes_expanded": "999", "instance": "prb42959", "end_time": "1.5167595466e+12", "optimal_length": "11", "subject": "A3NMQ3019X6YE0"}
{"rt": "44853.0", "trial_number": "2", "skipped": "False", "complete": "True", "assignment": "3I2PTA7R3U2SESF4TZBQORI5LSJQKK", "start_time": "1.5167595466e+12", "human_length": "22", "nodes_expanded": "999", "instance": "prb42959", "end_time": "1.51675959146e+12", "optimal_length": "11", "subject": "A3NMQ3019X6YE0"}
{"rt": "74791.0", "trial_number": "3", "skipped": "False", "complete": "True", "assignment": "3V5Q80FXIYZ5QB5C6ITQBN30WY823U", "start_time": "1.51753541466e+12", "human_length": "22", "nodes_expanded": "999", "instance": "prb42959", "end_time": "1.51753548945e+12", "optimal_length": "11", "subject": "A3NMQ3019X6YE0"}
{"rt": "44853.0", "trial_number": "0", "skipped": "False", "complete": "True", "assignment": "3I2PTA7R3U2SESF4TZBQORI5LSJQKK", "start_time": "1.5167595466e+12", "human_length": "22", "nodes_expanded": "999", "instance": "prb42959", "end_time": "1.51675959146e+12", "optimal_length": "11", "subject": "A3NMQ3019X6YE0"}
{"rt": "74791.0", "trial_number": "1", "skipped": "False", "complete": "True", "assignment": "3V5Q80FXIYZ5QB5C6ITQBN30WY823U", "start_time": "1.51753541466e+12", "human_length": "22", "nodes_expanded": "999", "instance": "prb42959", "end_time": "1.51753548945e+12", "optimal_length": "11", "subject": "A3NMQ3019X6YE0"}
{"rt": "14956.0", "trial_number": "0", "skipped": "False", "complete": "True", "assignment": "3STRJBFXOXZ5687WA35LTWTS7QZKTT", "start_time": "1.51794654338e+12", "human_length": "13", "nodes_expanded": "999", "instance": "prb42959", "end_time": "1.51794655834e+12", "optimal_length": "11", "subject": "A3OB6REG5CGHK1"}
{"rt": "0.0", "trial_number": "0", "skipped": "False", "complete": "False", "assignment": "3X87C8JFV7JQ2BSCY8KSFD9F2ILSQK", "start_time": "1.51674005839e+12", "human_length": "1", "nodes_expanded": "999", "instance": "prb42959", "end_time": "1.51674005839e+12", "optimal_length": "11", "subject": "A3Q0XAGQ7TD7MP"}
{"rt": "0.0", "trial_number": "1", "skipped": "False", "complete": "False", "assignment": "3X87C8JFV7JQ2BSCY8KSFD9F2ILSQK", "start_time": "1.51674005839e+12", "human_length": "1", "nodes_expanded": "999", "instance": "prb42959", "end_time": "1.51674005839e+12", "optimal_length": "11", "subject": "A3Q0XAGQ7TD7MP"}
{"rt": "24949.0", "trial_number": "2", "skipped": "False", "complete": "True", "assignment": "3X87C8JFV7JQ2BSCY8KSFD9F2ILSQK", "start_time": "1.51674005839e+12", "human_length": "15", "nodes_expanded": "999", "instance": "prb42959", "end_time": "1.51674008334e+12", "optimal_length": "11", "subject": "A3Q0XAGQ7TD7MP"}
{"rt": "28458.0", "trial_number": "3", "skipped": "False", "complete": "True", "assignment": "3GLB5JMZFY3TNXFGYMKRQ0JDXNTDGZ", "start_time": "1.51794778868e+12", "human_length": "12", "nodes_expanded": "999", "instance": "prb42959", "end_time": "1.51794781714e+12", "optimal_length": "11", "subject": "A3Q0XAGQ7TD7MP"}
{"rt": "24949.0", "trial_number": "0", "skipped": "False", "complete": "True", "assignment": "3X87C8JFV7JQ2BSCY8KSFD9F2ILSQK", "start_time": "1.51674005839e+12", "human_length": "15", "nodes_expanded": "999", "instance": "prb42959", "end_time": "1.51674008334e+12", "optimal_length": "11", "subject": "A3Q0XAGQ7TD7MP"}
{"rt": "28458.0", "trial_number": "1", "skipped": "False", "complete": "True", "assignment": "3GLB5JMZFY3TNXFGYMKRQ0JDXNTDGZ", "start_time": "1.51794778868e+12", "human_length": "12", "nodes_expanded": "999", "instance": "prb42959", "end_time": "1.51794781714e+12", "optimal_length": "11", "subject": "A3Q0XAGQ7TD7MP"}
{"rt": "32748.0", "trial_number": "0", "skipped": "True", "complete": "False", "assignment": "3M0BCWMB8W4W5M7WZVX3HDH1P53WB1", "start_time": "1.51816006409e+12", "human_length": "20", "nodes_expanded": "999", "instance": "prb42959", "end_time": "1.51816009684e+12", "optimal_length": "11", "subject": "A53S7J4JGWG38"}
{"rt": "22757.0", "trial_number": "0", "skipped": "False", "complete": "True", "assignment": "3IXEICO793RY7TM78ZBKJDOA7ADT6Q", "start_time": "1.51816720486e+12", "human_length": "16", "nodes_expanded": "999", "instance": "prb42959", "end_time": "1.51816722762e+12", "optimal_length": "11", "subject": "ALH1K6ZAQQMN7"}
{"rt": "56031.0", "trial_number": "0", "skipped": "False", "complete": "True", "assignment": "3HWRJOOET6A15827PHPSLWK1MOYSEU", "start_time": "1.51814562194e+12", "human_length": "46", "nodes_expanded": "999", "instance": "prb42959", "end_time": "1.51814567797e+12", "optimal_length": "11", "subject": "AO1QGAUZ85T6L"}
{"rt": "18704.0", "trial_number": "0", "skipped": "False", "complete": "True", "assignment": "3AZHRG4CU5SYU12YRVPCSZALW5003R", "start_time": "1.51630743867e+12", "human_length": "19", "nodes_expanded": "999", "instance": "prb42959", "end_time": "1.51630745738e+12", "optimal_length": "11", "subject": "ARWF605I7RWM7"}
{"rt": "48728.0", "trial_number": "0", "skipped": "True", "complete": "False", "assignment": "3IAS3U3I0GOAT69PLB8WT61CKJ22BO", "start_time": "1.51794185654e+12", "human_length": "28", "nodes_expanded": "999", "instance": "prb42959", "end_time": "1.51794190526e+12", "optimal_length": "11", "subject": "ATSZCAVI441RM"}
{"rt": "17882.0", "trial_number": "0", "skipped": "False", "complete": "True", "assignment": "3ZSY5X72NYJBGKFJ46SJ0Y9J0RLROB", "start_time": "1.51638784307e+12", "human_length": "12", "nodes_expanded": "999", "instance": "prb42959", "end_time": "1.51638786095e+12", "optimal_length": "11", "subject": "AU4KK3OYS2UZF"}
{"rt": "37190.0", "trial_number": "0", "skipped": "False", "complete": "True", "assignment": "33PPO7FECWN7JOLBOAKUBCWTC0AIDL", "start_time": "1.51795138606e+12", "human_length": "13", "nodes_expanded": "999", "instance": "prb42959", "end_time": "1.51795142325e+12", "optimal_length": "11", "subject": "AXKM02NVXNGOM"}
{"rt": "40849.0", "trial_number": "0", "skipped": "False", "complete": "True", "assignment": "3ON104KXQL4CKNMNKGNG9ZBVBAB4WI", "start_time": "1.51631203712e+12", "human_length": "26", "nodes_expanded": "999", "instance": "prb42959", "end_time": "1.51631207797e+12", "optimal_length": "11", "subject": "AYPOAY43REHC8"}
