{"meta_move": "drag_end", "rt": "7332.0", "trial_number": "1", "pre_actions": "1", "move": "4@0", "instance": "prb42959", "distance_to_goal": "NA", "progress": "NA", "move_number": "0", "optimal_length": "11", "subject": "A15FXHC1CVNW31:3TS1AR6UQRM7SOIBWPBN8N9589Y7FV"}
{"meta_move": "drag_end", "rt": "1194.0", "trial_number": "1", "pre_actions": "1", "move": "4@6", "instance": "prb42959", "distance_to_goal": "NA", "progress": "NA", "move_number": "1", "optimal_length": "11", "subject": "A15FXHC1CVNW31:3TS1AR6UQRM7SOIBWPBN8N9589Y7FV"}
{"meta_move": "drag_end", "rt": "512.0", "trial_number": "1", "pre_actions": "1", "move": "3@0", "instance": "prb42959", "distance_to_goal": "NA", "progress": "NA", "move_number": "2", "optimal_length": "11", "subject": "A15FXHC1CVNW31:3TS1AR6UQRM7SOIBWPBN8N9589Y7FV"}
{"meta_move": "drag_end", "rt": "1316.0", "trial_number": "1", "pre_actions": "1", "move": "3@1", "instance": "prb42959", "distance_to_goal": "NA", "progress": "NA", "move_number": "3", "optimal_length": "11", "subject": "A15FXHC1CVNW31:3TS1AR6UQRM7SOIBWPBN8N9589Y7FV"}
{"meta_move": "drag_end", "rt": "883.0", "trial_number": "1", "pre_actions": "1", "move": "4@0", "instance": "prb42959", "distance_to_goal": "NA", "progress": "NA", "move_number": "4", "optimal_length": "11", "subject": "A15FXHC1CVNW31:3TS1AR6UQRM7SOIBWPBN8N9589Y7FV"}
{"meta_move": "drag_end", "rt": "687.0", "trial_number": "1", "pre_actions": "1", "move": "0@26", "instance": "prb42959", "distance_to_goal": "NA", "progress": "NA", "move_number": "5", "optimal_length": "11", "subject": "A15FXHC1CVNW31:3TS1AR6UQRM7SOIBWPBN8N9589Y7FV"}
{"meta_move": "drag_end", "rt": "730.0", "trial_number": "1", "pre_actions": "1", "move": "5@20", "instance": "prb42959", "distance_to_goal": "NA", "progress": "NA", "move_number": "6", "optimal_length": "11", "subject": "A15FXHC1CVNW31:3TS1AR6UQRM7SOIBWPBN8N9589Y7FV"}
{"meta_move": "drag_end", "rt": "1978.0", "trial_number": "1", "pre_actions": "1", "move": "4@6", "instance": "prb42959", "distance_to_goal": "NA", "progress": "NA", "move_number": "7", "optimal_length": "11", "subject": "A15FXHC1CVNW31:3TS1AR6UQRM7SOIBWPBN8N9589Y7FV"}
{"meta_move": "drag_end", "rt": "530.0", "trial_number": "1", "pre_actions": "1", "move": "3@0", "instance": "prb42959", "distance_to_goal": "NA", "progress": "NA", "move_number": "8", "optimal_length": "11", "subject": "A15FXHC1CVNW31:3TS1AR6UQRM7SOIBWPBN8N9589Y7FV"}
{"meta_move": "drag_end", "rt": "944.0", "trial_number": "1", "pre_actions": "1", "move": "6@10", "instance": "prb42959", "distance_to_goal": "NA", "progress": "NA", "move_number": "9", "optimal_length": "11", "subject": "A15FXHC1CVNW31:3TS1AR6UQRM7SOIBWPBN8N9589Y7FV"}
{"meta_move": "drag_end", "rt": "790.0", "trial_number": "1", "pre_actions": "1", "move": "2@5", "instance": "prb42959", "distance_to_goal": "NA", "progress": "NA", "move_number": "10", "optimal_length": "11", "subject": "A15FXHC1CVNW31:3TS1AR6UQRM7SOIBWPBN8N9589Y7FV"}
{"meta_move": "drag_end", "rt": "3824.0", "trial_number": "1", "pre_actions": "1", "move": "6@4", "instance": "prb42959", "distance_to_goal": "NA", "progress": "NA", "move_number": "11", "optimal_length": "11", "subject": "A15FXHC1CVNW31:3TS1AR6UQRM7SOIBWPBN8N9589Y7FV"}
{"meta_move": "drag_end", "rt": "788.0", "trial_number": "1", "pre_actions": "1", "move": "3@1", "instance": "prb42959", "distance_to_goal": "NA", "progress": "NA", "move_number": "12", "optimal_length": "11", "subject": "A15FXHC1CVNW31:3TS1AR6UQRM7SOIBWPBN8N9589Y7FV"}
{"meta_move": "drag_end", "rt": "606.0", "trial_number": "1", "pre_actions": "1", "move": "4@0", "instance": "prb42959", "distance_to_goal": "NA", "progress": "NA", "move_number": "13", "optimal_length": "11", "subject": "A15FXHC1CVNW31:3TS1AR6UQRM7SOIBWPBN8N9589Y7FV"}
{"meta_move": "drag_end", "rt": "2283.0", "trial_number": "1", "pre_actions": "1", "move": "6@10", "instance": "prb42959", "distance_to_goal": "NA", "progress": "NA", "move_number": "14", "optimal_length": "11", "subject": "A15FXHC1CVNW31:3TS1AR6UQRM7SOIBWPBN8N9589Y7FV"}
{"meta_move": "drag_end", "rt": "815.0", "trial_number": "1", "pre_actions": "1", "move": "2@17", "instance": "prb42959", "distance_to_goal": "NA", "progress": "NA", "move_number": "15", "optimal_length": "11", "subject": "A15FXHC1CVNW31:3TS1AR6UQRM7SOIBWPBN8N9589Y7FV"}
{"meta_move": "drag_end", "rt": "1322.0", "trial_number": "1", "pre_actions": "1", "move": "3@3", "instance": "prb42959", "distance_to_goal": "NA", "progress": "NA", "move_number": "16", "optimal_length": "11", "subject": "A15FXHC1CVNW31:3TS1AR6UQRM7SOIBWPBN8N9589Y7FV"}
{"meta_move": "drag_end", "rt": "2247.0", "trial_number": "1", "pre_actions": "1", "move": "r@12", "instance": "prb42959", "distance_to_goal": "NA", "progress": "NA", "move_number": "17", "optimal_length": "11", "subject": "A15FXHC1CVNW31:3TS1AR6UQRM7SOIBWPBN8N9589Y7FV"}
{"meta_move": "drag_end", "rt": "2602.0", "trial_number": "1", "pre_actions": "1", "move": "5@20", "instance": "prb42959", "distance_to_goal": "NA", "progress": "NA", "move_number": "18", "optimal_length": "11", "subject": "A15FXHC1CVNW31:3TS1AR6UQRM7SOIBWPBN8N9589Y7FV"}
{"meta_move": "drag_end", "rt": "1274.0", "trial_number": "1", "pre_actions": "1", "move": "3@1", "instance": "prb42959", "distance_to_goal": "NA", "progress": "NA", "move_number": "18", "optimal_length": "11", "subject": "A15FXHC1CVNW31:3TS1AR6UQRM7SOIBWPBN8N9589Y7FV"}
{"meta_move": "drag_end", "rt": "571.0", "trial_number": "1", "pre_actions": "1", "move": "6@4", "instance": "prb42959", "distance_to_goal": "NA", "progress": "NA", "move_number": "19", "optimal_length": "11", "subject": "A15FXHC1CVNW31:3TS1AR6UQRM7SOIBWPBN8N9589Y7FV"}
{"meta_move": "drag_end", "rt": "624.0", "trial_number": "1", "pre_actions": "1", "move": "5@21", "instance": "prb42959", "distance_to_goal": "NA", "progress": "NA", "move_number": "20", "optimal_length": "11", "subject": "A15FXHC1CVNW31:3TS1AR6UQRM7SOIBWPBN8N9589Y7FV"}
{"meta_move": "drag_end", "rt": "764.0", "trial_number": "1", "pre_actions": "1", "move": "0@8", "instance": "prb42959", "distance_to_goal": "NA", "progress": "NA", "move_number": "21", "optimal_length": "11", "subject": "A15FXHC1CVNW31:3TS1AR6UQRM7SOIBWPBN8N9589Y7FV"}
{"meta_move": "drag_end", "rt": "654.0", "trial_number": "1", "pre_actions": "1", "move": "5@20", "instance": "prb42959", "distance_to_goal": "NA", "progress": "NA", "move_number": "22", "optimal_length": "11", "subject": "A15FXHC1CVNW31:3TS1AR6UQRM7SOIBWPBN8N9589Y7FV"}
{"meta_move": "drag_end", "rt": "718.0", "trial_number": "1", "pre_actions": "1", "move": "6@10", "instance": "prb42959", "distance_to_goal": "NA", "progress": "NA", "move_number": "23", "optimal_length": "11", "subject": "A15FXHC1CVNW31:3TS1AR6UQRM7SOIBWPBN8N9589Y7FV"}
{"meta_move": "drag_end", "rt": "520.0", "trial_number": "1", "pre_actions": "1", "move": "3@3", "instance": "prb42959", "distance_to_goal": "NA", "progress": "NA", "move_number": "24", "optimal_length": "11", "subject": "A15FXHC1CVNW31:3TS1AR6UQRM7SOIBWPBN8N9589Y7FV"}
{"meta_move": "drag_end", "rt": "702.0", "trial_number": "1", "pre_actions": "1", "move": "0@2", "instance": "prb42959", "distance_to_goal": "NA", "progress": "NA", "move_number": "25", "optimal_length": "11", "subject": "A15FXHC1CVNW31:3TS1AR6UQRM7SOIBWPBN8N9589Y7FV"}
{"meta_move": "drag_end", "rt": "1071.0", "trial_number": "1", "pre_actions": "1", "move": "r@13", "instance": "prb42959", "distance_to_goal": "NA", "progress": "NA", "move_number": "26", "optimal_length": "11", "subject": "A15FXHC1CVNW31:3TS1AR6UQRM7SOIBWPBN8N9589Y7FV"}
{"meta_move": "drag_end", "rt": "1381.0", "trial_number": "1", "pre_actions": "1", "move": "1@24", "instance": "prb42959", "distance_to_goal": "NA", "progress": "NA", "move_number": "27", "optimal_length": "11", "subject": "A15FXHC1CVNW31:3TS1AR6UQRM7SOIBWPBN8N9589Y7FV"}
{"meta_move": "drag_end", "rt": "1185.0", "trial_number": "1", "pre_actions": "1", "move": "6@22", "instance": "prb42959", "distance_to_goal": "NA", "progress": "NA", "move_number": "28", "optimal_length": "11", "subject": "A15FXHC1CVNW31:3TS1AR6UQRM7SOIBWPBN8N9589Y7FV"}
{"meta_move": "drag_end", "rt": "571.0", "trial_number": "1", "pre_actions": "1", "move": "2@29", "instance": "prb42959", "distance_to_goal": "NA", "progress": "NA", "move_number": "29", "optimal_length": "11", "subject": "A15FXHC1CVNW31:3TS1AR6UQRM7SOIBWPBN8N9589Y7FV"}
{"meta_move": "win", "rt": "896.0", "trial_number": "1", "pre_actions": "1", "move": "r@13", "instance": "prb42959", "distance_to_goal": "1", "progress": "NA", "move_number": "30", "optimal_length": "11", "subject": "A15FXHC1CVNW31:3TS1AR6UQRM7SOIBWPBN8N9589Y7FV"}
{"meta_move": "drag_end", "rt": "149.0", "trial_number": "0", "pre_actions": "0", "move": "r@16", "instance": "prb42959", "distance_to_goal": "NA", "progress": "NA", "move_number": "30", "optimal_length": "11", "subject": "A15FXHC1CVNW31:3TS1AR6UQRM7SOIBWPBN8N9589Y7FV"}
{"meta_move": "drag_end", "rt": "9239.0", "trial_number": "2", "pre_actions": "1", "move": "4@0", "instance": "prb42959", "distance_to_goal": "NA", "progress": "NA", "move_number": "0", "optimal_length": "11", "subject": "A18QU0YQB6Q8DF:3VE8AYVF8N5BS2NU6U3TMN50JMNF8V"}
{"meta_move": "drag_end", "rt": "1951.0", "trial_number": "2", "pre_actions": "1", "move": "2@5", "instance": "prb42959", "distance_to_goal": "NA", "progress": "NA", "move_number": "1", "optimal_length": "11", "subject": "A18QU0YQB6Q8DF:3VE8AYVF8N5BS2NU6U3TMN50JMNF8V"}
{"meta_move": "drag_end", "rt": "1144.0", "trial_number": "2", "pre_actions": "1", "move": "5@22", "instance": "prb42959", "distance_to_goal": "NA", "progress": "NA", "move_number": "2", "optimal_length": "11", "subject": "A18QU0YQB6Q8DF:3VE8AYVF8N5BS2NU6U3TMN50JMNF8V"}
{"meta_move": "drag_end", "rt": "1238.0", "trial_number": "2", "pre_actions": "1", "move": "0@26", "instance": "prb42959", "distance_to_goal": "NA", "progress": "NA", "move_number": "3", "optimal_length": "11", "subject": "A18QU0YQB6Q8DF:3VE8AYVF8N5BS2NU6U3TMN50JMNF8V"}
{"meta_move": "drag_end", "rt": "1919.0", "trial_number": "2", "pre_actions": "1", "move": "7@20", "instance": "prb42959", "distance_to_goal": "NA", "progress": "NA", "move_number": "4", "optimal_length": "11", "subject": "A18QU0YQB6Q8DF:3VE8AYVF8N5BS2NU6U3TMN50JMNF8V"}
{"meta_move": "drag_end", "rt": "2614.0", "trial_number": "2", "pre_actions": "1", "move": "r@12", "instance": "prb42959", "distance_to_goal": "NA", "progress": "NA", "move_number": "5", "optimal_length": "11", "subject": "A18QU0YQB6Q8DF:3VE8AYVF8N5BS2NU6U3TMN50JMNF8V"}
{"meta_move": "drag_end", "rt": "2078.0", "trial_number": "2", "pre_actions": "1", "move": "7@18", "instance": "prb42959", "distance_to_goal": "NA", "progress": "NA", "move_number": "6", "optimal_length": "11", "subject": "A18QU0YQB6Q8DF:3VE8AYVF8N5BS2NU6U3TMN50JMNF8V"}
{"meta_move": "drag_end", "rt": "1750.0", "trial_number": "2", "pre_actions": "1", "move": "5@20", "instance": "prb42959", "distance_to_goal": "NA", "progress": "NA", "move_number": "7", "optimal_length": "11", "subject": "A18QU0YQB6Q8DF:3VE8AYVF8N5BS2NU6U3TMN50JMNF8V"}
{"meta_move": "drag_end", "rt": "1407.0", "trial_number": "2", "pre_actions": "1", "move": "5@22", "instance": "prb42959", "distance_to_goal": "NA", "progress": "NA", "move_number": "8", "optimal_length": "11", "subject": "A18QU0YQB6Q8DF:3VE8AYVF8N5BS2NU6U3TMN50JMNF8V"}
{"meta_move": "drag_end", "rt": "1115.0", "trial_number": "2", "pre_actions": "1", "move": "0@8", "instance": "prb42959", "distance_to_goal": "NA", "progress": "NA", "move_number": "9", "optimal_length": "11", "subject": "A18QU0YQB6Q8DF:3VE8AYVF8N5BS2NU6U3TMN50JMNF8V"}
{"meta_move": "drag_end", "rt": "1532.0", "trial_number": "2", "pre_actions": "1", "move": "1@24", "instance": "prb42959", "distance_to_goal": "NA", "progress": "NA", "move_number": "10", "optimal_length": "11", "subject": "A18QU0YQB6Q8DF:3VE8AYVF8N5BS2NU6U3TMN50JMNF8V"}
{"meta_move": "drag_end", "rt": "1757.0", "trial_number": "2", "pre_actions": "1", "move": "5@20", "instance": "prb42959", "distance_to_goal": "NA", "progress": "NA", "move_number": "11", "optimal_length": "11", "subject": "A18QU0YQB6Q8DF:3VE8AYVF8N5BS2NU6U3TMN50JMNF8V"}
{"meta_move": "drag_end", "rt": "1384.0", "trial_number": "2", "pre_actions": "1", "move": "6@22", "instance": "prb42959", "distance_to_goal": "NA", "progress": "NA", "move_number": "12", "optimal_length": "11", "subject": "A18QU0YQB6Q8DF:3VE8AYVF8N5BS2NU6U3TMN50JMNF8V"}
{"meta_move": "drag_end", "rt": "2070.0", "trial_number": "2", "pre_actions": "1", "move": "2@29", "instance": "prb42959", "distance_to_goal": "NA", "progress": "NA", "move_number": "13", "optimal_length": "11", "subject": "A18QU0YQB6Q8DF:3VE8AYVF8N5BS2NU6U3TMN50JMNF8V"}
{"meta_move": "drag_end", "rt": "3119.0", "trial_number": "2", "pre_actions": "1", "move": "3@3", "instance": "prb42959", "distance_to_goal": "NA", "progress": "NA", "move_number": "14", "optimal_length": "11", "subject": "A18QU0YQB6Q8DF:3VE8AYVF8N5BS2NU6U3TMN50JMNF8V"}
{"meta_move": "drag_end", "rt": "1036.0", "trial_number": "2", "pre_actions": "1", "move": "0@2", "instance": "prb42959", "distance_to_goal": "NA", "progress": "NA", "move_number": "15", "optimal_length": "11", "subject": "A18QU0YQB6Q8DF:3VE8AYVF8N5BS2NU6U3TMN50JMNF8V"}
{"meta_move": "drag_end", "rt": "1935.0", "trial_number": "2", "pre_actions": "1", "move": "r@16", "instance": "prb42959", "distance_to_goal": "NA", "progress": "NA", "move_number": "16", "optimal_length": "11", "subject": "A18QU0YQB6Q8DF:3VE8AYVF8N5BS2NU6U3TMN50JMNF8V"}
{"meta_move": "drag_end", "rt": "951.0", "trial_number": "2", "pre_actions": "1", "move": "r@16", "instance": "prb42959", "distance_to_goal": "NA", "progress": "NA", "move_number": "17", "optimal_length": "11", "subject": "A18QU0YQB6Q8DF:3VE8AYVF8N5BS2NU6U3TMN50JMNF8V"}
{"meta_move": "win", "rt": "537.0", "trial_number": "2", "pre_actions": "1", "move": "r@16", "instance": "prb42959", "distance_to_goal": "1", "progress": "NA", "move_number": "17", "optimal_length": "11", "subject": "A18QU0YQB6Q8DF:3VE8AYVF8N5BS2NU6U3TMN50JMNF8V"}
{"meta_move": "drag_end", "rt": "278.0", "trial_number": "0", "pre_actions": "0", "move": "r@16", "instance": "prb42959", "distance_to_goal": "NA", "progress": "NA", "move_number": "17", "optimal_length": "11", "subject": "A18QU0YQB6Q8DF:3VE8AYVF8N5BS2NU6U3TMN50JMNF8V"}
{"meta_move": "drag_end", "rt": "3535.0", "trial_number": "1", "pre_actions": "1", "move": "4@0", "instance": "prb42959", "distance_to_goal": "NA", "progress": "NA", "move_number": "0", "optimal_length": "11", "subject": "A191V7PT3DQKDP:3PMBY0YE28B43VMUKKJ6EDF85RV9C8"}
{"meta_move": "drag_end", "rt": "2256.0", "trial_number": "1", "pre_actions": "1", "move": "r@12", "instance": "prb42959", "distance_to_goal": "NA", "progress": "NA", "move_number": "1", "optimal_length": "11", "subject": "A191V7PT3DQKDP:3PMBY0YE28B43VMUKKJ6EDF85RV9C8"}
{"meta_move": "drag_end", "rt": "2001.0", "trial_number": "1", "pre_actions": "1", "move": "2@17", "instance": "prb42959", "distance_to_goal": "NA", "progress": "NA", "move_number": "2", "optimal_length": "11", "subject": "A191V7PT3DQKDP:3PMBY0YE28B43VMUKKJ6EDF85RV9C8"}
{"meta_move": "drag_end", "rt": "1007.0", "trial_number": "1", "pre_actions": "1", "move": "0@8", "instance": "prb42959", "distance_to_goal": "NA", "progress": "NA", "move_number": "3", "optimal_length": "11", "subject": "A191V7PT3DQKDP:3PMBY0YE28B43VMUKKJ6EDF85RV9C8"}
{"meta_move": "drag_end", "rt": "1760.0", "trial_number": "1", "pre_actions": "1", "move": "1@24", "instance": "prb42959", "distance_to_goal": "NA", "progress": "NA", "move_number": "4", "optimal_length": "11", "subject": "A191V7PT3DQKDP:3PMBY0YE28B43VMUKKJ6EDF85RV9C8"}
{"meta_move": "drag_end", "rt": "2056.0", "trial_number": "1", "pre_actions": "1", "move": "5@20", "instance": "prb42959", "distance_to_goal": "NA", "progress": "NA", "move_number": "5", "optimal_length": "11", "subject": "A191V7PT3DQKDP:3PMBY0YE28B43VMUKKJ6EDF85RV9C8"}
{"meta_move": "drag_end", "rt": "752.0", "trial_number": "1", "pre_actions": "1", "move": "6@22", "instance": "prb42959", "distance_to_goal": "NA", "progress": "NA", "move_number": "6", "optimal_length": "11", "subject": "A191V7PT3DQKDP:3PMBY0YE28B43VMUKKJ6EDF85RV9C8"}
{"meta_move": "drag_end", "rt": "720.0", "trial_number": "1", "pre_actions": "1", "move": "2@29", "instance": "prb42959", "distance_to_goal": "NA", "progress": "NA", "move_number": "7", "optimal_length": "11", "subject": "A191V7PT3DQKDP:3PMBY0YE28B43VMUKKJ6EDF85RV9C8"}
{"meta_move": "drag_end", "rt": "888.0", "trial_number": "1", "pre_actions": "1", "move": "3@3", "instance": "prb42959", "distance_to_goal": "NA", "progress": "NA", "move_number": "8", "optimal_length": "11", "subject": "A191V7PT3DQKDP:3PMBY0YE28B43VMUKKJ6EDF85RV9C8"}
{"meta_move": "drag_end", "rt": "592.0", "trial_number": "1", "pre_actions": "1", "move": "0@2", "instance": "prb42959", "distance_to_goal": "NA", "progress": "NA", "move_number": "9", "optimal_length": "11", "subject": "A191V7PT3DQKDP:3PMBY0YE28B43VMUKKJ6EDF85RV9C8"}
{"meta_move": "win", "rt": "586.0", "trial_number": "1", "pre_actions": "1", "move": "r@12", "instance": "prb42959", "distance_to_goal": "1", "progress": "NA", "move_number": "10", "optimal_length": "11", "subject": "A191V7PT3DQKDP:3PMBY0YE28B43VMUKKJ6EDF85RV9C8"}
{"meta_move": "drag_end", "rt": "166.0", "trial_number": "0", "pre_actions": "0", "move": "r@16", "instance": "prb42959", "distance_to_goal": "NA", "progress": "NA", "move_number": "10", "optimal_length": "11", "subject": "A191V7PT3DQKDP:3PMBY0YE28B43VMUKKJ6EDF85RV9C8"}
{"meta_move": "drag_end", "rt": "2792.0", "trial_number": "1", "pre_actions": "1", "move": "0@26", "instance": "prb42959", "distance_to_goal": "NA", "progress": "NA", "move_number": "0", "optimal_length": "11", "subject": "A1F4N58CAX8IMK:3TS1AR6UQRM7SOIBWPBN8N9589Y7FV"}
{"meta_move": "drag_end", "rt": "729.0", "trial_number": "1", "pre_actions": "1", "move": "5@20", "instance": "prb42959", "distance_to_goal": "NA", "progress": "NA", "move_number": "1", "optimal_length": "11", "subject": "A1F4N58CAX8IMK:3TS1AR6UQRM7SOIBWPBN8N9589Y7FV"}
{"meta_move": "drag_end", "rt": "1639.0", "trial_number": "1", "pre_actions": "1", "move": "5@22", "instance": "prb42959", "distance_to_goal": "NA", "progress": "NA", "move_number": "2", "optimal_length": "11", "subject": "A1F4N58CAX8IMK:3TS1AR6UQRM7SOIBWPBN8N9589Y7FV"}
{"meta_move": "drag_end", "rt": "641.0", "trial_number": "1", "pre_actions": "1", "move": "0@20", "instance": "prb42959", "distance_to_goal": "NA", "progress": "NA", "move_number": "3", "optimal_length": "11", "subject": "A1F4N58CAX8IMK:3TS1AR6UQRM7SOIBWPBN8N9589Y7FV"}
{"meta_move": "drag_end", "rt": "1376.0", "trial_number": "1", "pre_actions": "1", "move": "r@13", "instance": "prb42959", "distance_to_goal": "NA", "progress": "NA", "move_number": "4", "optimal_length": "11", "subject": "A1F4N58CAX8IMK:3TS1AR6UQRM7SOIBWPBN8N9589Y7FV"}
{"meta_move": "drag_end", "rt": "1439.0", "trial_number": "1", "pre_actions": "1", "move": "r@14", "instance": "prb42959", "distance_to_goal": "NA", "progress": "NA", "move_number": "5", "optimal_length": "11", "subject": "A1F4N58CAX8IMK:3TS1AR6UQRM7SOIBWPBN8N9589Y7FV"}
{"meta_move": "drag_end", "rt": "640.0", "trial_number": "1", "pre_actions": "1", "move": "4@0", "instance": "prb42959", "distance_to_goal": "NA", "progress": "NA", "move_number": "6", "optimal_length": "11", "subject": "A1F4N58CAX8IMK:3TS1AR6UQRM7SOIBWPBN8N9589Y7FV"}
{"meta_move": "drag_end", "rt": "911.0", "trial_number": "1", "pre_actions": "1", "move": "r@12", "instance": "prb42959", "distance_to_goal": "NA", "progress": "NA", "move_number": "7", "optimal_length": "11", "subject": "A1F4N58CAX8IMK:3TS1AR6UQRM7SOIBWPBN8N9589Y7FV"}
{"meta_move": "drag_end", "rt": "721.0", "trial_number": "1", "pre_actions": "1", "move": "0@8", "instance": "prb42959", "distance_to_goal": "NA", "progress": "NA", "move_number": "8", "optimal_length": "11", "subject": "A1F4N58CAX8IMK:3TS1AR6UQRM7SOIBWPBN8N9589Y7FV"}
{"meta_move": "drag_end", "rt": "792.0", "trial_number": "1", "pre_actions": "1", "move": "1@24", "instance": "prb42959", "distance_to_goal": "NA", "progress": "NA", "move_number": "9", "optimal_length": "11", "subject": "A1F4N58CAX8IMK:3TS1AR6UQRM7SOIBWPBN8N9589Y7FV"}
{"meta_move": "drag_end", "rt": "792.0", "trial_number": "1", "pre_actions": "1", "move": "5@20", "instance": "prb42959", "distance_to_goal": "NA", "progress": "NA", "move_number": "10", "optimal_length": "11", "subject": "A1F4N58CAX8IMK:3TS1AR6UQRM7SOIBWPBN8N9589Y7FV"}
{"meta_move": "drag_end", "rt": "704.0", "trial_number": "1", "pre_actions": "1", "move": "6@22", "instance": "prb42959", "distance_to_goal": "NA", "progress": "NA", "move_number": "11", "optimal_length": "11", "subject": "A1F4N58CAX8IMK:3TS1AR6UQRM7SOIBWPBN8N9589Y7FV"}
{"meta_move": "drag_end", "rt": "600.0", "trial_number": "1", "pre_actions": "1", "move": "2@5", "instance": "prb42959", "distance_to_goal": "NA", "progress": "NA", "move_number": "12", "optimal_length": "11", "subject": "A1F4N58CAX8IMK:3TS1AR6UQRM7SOIBWPBN8N9589Y7FV"}
{"meta_move": "drag_end", "rt": "1488.0", "trial_number": "1", "pre_actions": "1", "move": "6@4", "instance": "prb42959", "distance_to_goal": "NA", "progress": "NA", "move_number": "13", "optimal_length": "11", "subject": "A1F4N58CAX8IMK:3TS1AR6UQRM7SOIBWPBN8N9589Y7FV"}
{"meta_move": "drag_end", "rt": "888.0", "trial_number": "1", "pre_actions": "1", "move": "5@22", "instance": "prb42959", "distance_to_goal": "NA", "progress": "NA", "move_number": "14", "optimal_length": "11", "subject": "A1F4N58CAX8IMK:3TS1AR6UQRM7SOIBWPBN8N9589Y7FV"}
{"meta_move": "drag_end", "rt": "753.0", "trial_number": "1", "pre_actions": "1", "move": "0@14", "instance": "prb42959", "distance_to_goal": "NA", "progress": "NA", "move_number": "15", "optimal_length": "11", "subject": "A1F4N58CAX8IMK:3TS1AR6UQRM7SOIBWPBN8N9589Y7FV"}
{"meta_move": "drag_end", "rt": "1071.0", "trial_number": "1", "pre_actions": "1", "move": "0@8", "instance": "prb42959", "distance_to_goal": "NA", "progress": "NA", "move_number": "16", "optimal_length": "11", "subject": "A1F4N58CAX8IMK:3TS1AR6UQRM7SOIBWPBN8N9589Y7FV"}
{"meta_move": "drag_end", "rt": "713.0", "trial_number": "1", "pre_actions": "1", "move": "7@20", "instance": "prb42959", "distance_to_goal": "NA", "progress": "NA", "move_number": "17", "optimal_length": "11", "subject": "A1F4N58CAX8IMK:3TS1AR6UQRM7SOIBWPBN8N9589Y7FV"}
{"meta_move": "drag_end", "rt": "1024.0", "trial_number": "1", "pre_actions": "1", "move": "1@24", "instance": "prb42959", "distance_to_goal": "NA", "progress": "NA", "move_number": "18", "optimal_length": "11", "subject": "A1F4N58CAX8IMK:3TS1AR6UQRM7SOIBWPBN8N9589Y7FV"}
{"meta_move": "drag_end", "rt": "1008.0", "trial_number": "1", "pre_actions": "1", "move": "1@27", "instance": "prb42959", "distance_to_goal": "NA", "progress": "NA", "move_number": "18", "optimal_length": "11", "subject": "A1F4N58CAX8IMK:3TS1AR6UQRM7SOIBWPBN8N9589Y7FV"}
{"meta_move": "drag_end", "rt": "791.0", "trial_number": "1", "pre_actions": "1", "move": "7@18", "instance": "prb42959", "distance_to_goal": "NA", "progress": "NA", "move_number": "19", "optimal_length": "11", "subject": "A1F4N58CAX8IMK:3TS1AR6UQRM7SOIBWPBN8N9589Y7FV"}
{"meta_move": "drag_end", "rt": "839.0", "trial_number": "1", "pre_actions": "1", "move": "0@26", "instance": "prb42959", "distance_to_goal": "NA", "progress": "NA", "move_number": "20", "optimal_length": "11", "subject": "A1F4N58CAX8IMK:3TS1AR6UQRM7SOIBWPBN8N9589Y7FV"}
{"meta_move": "drag_end", "rt": "897.0", "trial_number": "1", "pre_actions": "1", "move": "r@14", "instance": "prb42959", "distance_to_goal": "NA", "progress": "NA", "move_number": "21", "optimal_length": "11", "subject": "A1F4N58CAX8IMK:3TS1AR6UQRM7SOIBWPBN8N9589Y7FV"}
{"meta_move": "drag_end", "rt": "1640.0", "trial_number": "1", "pre_actions": "1", "move": "5@20", "instance": "prb42959", "distance_to_goal": "NA", "progress": "NA", "move_number": "22", "optimal_length": "11", "subject": "A1F4N58CAX8IMK:3TS1AR6UQRM7SOIBWPBN8N9589Y7FV"}
{"meta_move": "drag_end", "rt": "2136.0", "trial_number": "1", "pre_actions": "1", "move": "7@18", "instance": "prb42959", "distance_to_goal": "NA", "progress": "NA", "move_number": "23", "optimal_length": "11", "subject": "A1F4N58CAX8IMK:3TS1AR6UQRM7SOIBWPBN8N9589Y7FV"}
{"meta_move": "drag_end", "rt": "567.0", "trial_number": "1", "pre_actions": "1", "move": "5@22", "instance": "prb42959", "distance_to_goal": "NA", "progress": "NA", "move_number": "23", "optimal_length": "11", "subject": "A1F4N58CAX8IMK:3TS1AR6UQRM7SOIBWPBN8N9589Y7FV"}
{"meta_move": "drag_end", "rt": "1097.0", "trial_number": "1", "pre_actions": "1", "move": "0@20", "instance": "prb42959", "distance_to_goal": "NA", "progress": "NA", "move_number": "24", "optimal_length": "11", "subject": "A1F4N58CAX8IMK:3TS1AR6UQRM7SOIBWPBN8N9589Y7FV"}
{"meta_move": "drag_end", "rt": "1096.0", "trial_number": "1", "pre_actions": "1", "move": "0@26", "instance": "prb42959", "distance_to_goal": "NA", "progress": "NA", "move_number": "25", "optimal_length": "11", "subject": "A1F4N58CAX8IMK:3TS1AR6UQRM7SOIBWPBN8N9589Y7FV"}
{"meta_move": "drag_end", "rt": "1112.0", "trial_number": "1", "pre_actions": "1", "move": "4@6", "instance": "prb42959", "distance_to_goal": "NA", "progress": "NA", "move_number": "26", "optimal_length": "11", "subject": "A1F4N58CAX8IMK:3TS1AR6UQRM7SOIBWPBN8N9589Y7FV"}
{"meta_move": "drag_end", "rt": "718.0", "trial_number": "1", "pre_actions": "1", "move": "3@0", "instance": "prb42959", "distance_to_goal": "NA", "progress": "NA", "move_number": "27", "optimal_length": "11", "subject": "A1F4N58CAX8IMK:3TS1AR6UQRM7SOIBWPBN8N9589Y7FV"}
{"meta_move": "drag_end", "rt": "1418.0", "trial_number": "1", "pre_actions": "1", "move": "r@13", "instance": "prb42959", "distance_to_goal": "NA", "progress": "NA", "move_number": "28", "optimal_length": "11", "subject": "A1F4N58CAX8IMK:3TS1AR6UQRM7SOIBWPBN8N9589Y7FV"}
{"meta_move": "drag_end", "rt": "1657.0", "trial_number": "1", "pre_actions": "1", "move": "0@20", "instance": "prb42959", "distance_to_goal": "NA", "progress": "NA", "move_number": "29", "optimal_length": "11", "subject": "A1F4N58CAX8IMK:3TS1AR6UQRM7SOIBWPBN8N9589Y7FV"}
{"meta_move": "drag_end", "rt": "901.0", "trial_number": "1", "pre_actions": "1", "move": "0@26", "instance": "prb42959", "distance_to_goal": "NA", "progress": "NA", "move_number": "30", "optimal_length": "11", "subject": "A1F4N58CAX8IMK:3TS1AR6UQRM7SOIBWPBN8N9589Y7FV"}
{"meta_move": "drag_end", "rt": "689.0", "trial_number": "1", "pre_actions": "1", "move": "5@20", "instance": "prb42959", "distance_to_goal": "NA", "progress": "NA", "move_number": "31", "optimal_length": "11", "subject": "A1F4N58CAX8IMK:3TS1AR6UQRM7SOIBWPBN8N9589Y7FV"}
{"meta_move": "drag_end", "rt": "1009.0", "trial_number": "1", "pre_actions": "1", "move": "6@10", "instance": "prb42959", "distance_to_goal": "NA", "progress": "NA", "move_number": "32", "optimal_length": "11", "subject": "A1F4N58CAX8IMK:3TS1AR6UQRM7SOIBWPBN8N9589Y7FV"}
{"meta_move": "drag_end", "rt": "2295.0", "trial_number": "1", "pre_actions": "1", "move": "1@27", "instance": "prb42959", "distance_to_goal": "NA", "progress": "NA", "move_number": "33", "optimal_length": "11", "subject": "A1F4N58CAX8IMK:3TS1AR6UQRM7SOIBWPBN8N9589Y7FV"}
{"meta_move": "drag_end", "rt": "832.0", "trial_number": "1", "pre_actions": "1", "move": "2@17", "instance": "prb42959", "distance_to_goal": "NA", "progress": "NA", "move_number": "33", "optimal_length": "11", "subject": "A1F4N58CAX8IMK:3TS1AR6UQRM7SOIBWPBN8N9589Y7FV"}
{"meta_move": "drag_end", "rt": "737.0", "trial_number": "1", "pre_actions": "1", "move": "6@4", "instance": "prb42959", "distance_to_goal": "NA", "progress": "NA", "move_number": "34", "optimal_length": "11", "subject": "A1F4N58CAX8IMK:3TS1AR6UQRM7SOIBWPBN8N9589Y7FV"}
{"meta_move": "drag_end", "rt": "711.0", "trial_number": "1", "pre_actions": "1", "move": "5@21", "instance": "prb42959", "distance_to_goal": "NA", "progress": "NA", "move_number": "35", "optimal_length": "11", "subject": "A1F4N58CAX8IMK:3TS1AR6UQRM7SOIBWPBN8N9589Y7FV"}
{"meta_move": "drag_end", "rt": "1224.0", "trial_number": "1", "pre_actions": "1", "move": "r@14", "instance": "prb42959", "distance_to_goal": "NA", "progress": "NA", "move_number": "36", "optimal_length": "11", "subject": "A1F4N58CAX8IMK:3TS1AR6UQRM7SOIBWPBN8N9589Y7FV"}
{"meta_move": "drag_end", "rt": "1008.0", "trial_number": "1", "pre_actions": "1", "move": "7@19", "instance": "prb42959", "distance_to_goal": "NA", "progress": "NA", "move_number": "37", "optimal_length": "11", "subject": "A1F4N58CAX8IMK:3TS1AR6UQRM7SOIBWPBN8N9589Y7FV"}
{"meta_move": "drag_end", "rt": "1216.0", "trial_number": "1", "pre_actions": "1", "move": "7@18", "instance": "prb42959", "distance_to_goal": "NA", "progress": "NA", "move_number": "38", "optimal_length": "11", "subject": "A1F4N58CAX8IMK:3TS1AR6UQRM7SOIBWPBN8N9589Y7FV"}
{"meta_move": "drag_end", "rt": "744.0", "trial_number": "1", "pre_actions": "1", "move": "0@20", "instance": "prb42959", "distance_to_goal": "NA", "progress": "NA", "move_number": "39", "optimal_length": "11", "subject": "A1F4N58CAX8IMK:3TS1AR6UQRM7SOIBWPBN8N9589Y7FV"}
{"meta_move": "drag_end", "rt": "848.0", "trial_number": "1", "pre_actions": "1", "move": "5@21", "instance": "prb42959", "distance_to_goal": "NA", "progress": "NA", "move_number": "40", "optimal_length": "11", "subject": "A1F4N58CAX8IMK:3TS1AR6UQRM7SOIBWPBN8N9589Y7FV"}
{"meta_move": "drag_end", "rt": "520.0", "trial_number": "1", "pre_actions": "1", "move": "6@4", "instance": "prb42959", "distance_to_goal": "NA", "progress": "NA", "move_number": "40", "optimal_length": "11", "subject": "A1F4N58CAX8IMK:3TS1AR6UQRM7SOIBWPBN8N9589Y7FV"}
{"meta_move": "drag_end", "rt": "1552.0", "trial_number": "1", "pre_actions": "1", "move": "r@13", "instance": "prb42959", "distance_to_goal": "NA", "progress": "NA", "move_number": "40", "optimal_length": "11", "subject": "A1F4N58CAX8IMK:3TS1AR6UQRM7SOIBWPBN8N9589Y7FV"}
{"meta_move": "drag_end", "rt": "5952.0", "trial_number": "2", "pre_actions": "1", "move": "0@26", "instance": "prb42959", "distance_to_goal": "NA", "progress": "NA", "move_number": "0", "optimal_length": "11", "subject": "A1F4N58CAX8IMK:3TS1AR6UQRM7SOIBWPBN8N9589Y7FV"}
{"meta_move": "drag_end", "rt": "2536.0", "trial_number": "2", "pre_actions": "1", "move": "3@0", "instance": "prb42959", "distance_to_goal": "NA", "progress": "NA", "move_number": "1", "optimal_length": "11", "subject": "A1F4N58CAX8IMK:3TS1AR6UQRM7SOIBWPBN8N9589Y7FV"}
{"meta_move": "drag_end", "rt": "1103.0", "trial_number": "2", "pre_actions": "1", "move": "7@19", "instance": "prb42959", "distance_to_goal": "NA", "progress": "NA", "move_number": "2", "optimal_length": "11", "subject": "A1F4N58CAX8IMK:3TS1AR6UQRM7SOIBWPBN8N9589Y7FV"}
{"meta_move": "drag_end", "rt": "744.0", "trial_number": "2", "pre_actions": "1", "move": "4@24", "instance": "prb42959", "distance_to_goal": "NA", "progress": "NA", "move_number": "3", "optimal_length": "11", "subject": "A1F4N58CAX8IMK:3TS1AR6UQRM7SOIBWPBN8N9589Y7FV"}
{"meta_move": "drag_end", "rt": "1064.0", "trial_number": "2", "pre_actions": "1", "move": "r@12", "instance": "prb42959", "distance_to_goal": "NA", "progress": "NA", "move_number": "4", "optimal_length": "11", "subject": "A1F4N58CAX8IMK:3TS1AR6UQRM7SOIBWPBN8N9589Y7FV"}
{"meta_move": "drag_end", "rt": "1456.0", "trial_number": "2", "pre_actions": "1", "move": "7@18", "instance": "prb42959", "distance_to_goal": "NA", "progress": "NA", "move_number": "5", "optimal_length": "11", "subject": "A1F4N58CAX8IMK:3TS1AR6UQRM7SOIBWPBN8N9589Y7FV"}
{"meta_move": "drag_end", "rt": "1056.0", "trial_number": "2", "pre_actions": "1", "move": "0@8", "instance": "prb42959", "distance_to_goal": "NA", "progress": "NA", "move_number": "6", "optimal_length": "11", "subject": "A1F4N58CAX8IMK:3TS1AR6UQRM7SOIBWPBN8N9589Y7FV"}
{"meta_move": "drag_end", "rt": "664.0", "trial_number": "2", "pre_actions": "1", "move": "1@25", "instance": "prb42959", "distance_to_goal": "NA", "progress": "NA", "move_number": "7", "optimal_length": "11", "subject": "A1F4N58CAX8IMK:3TS1AR6UQRM7SOIBWPBN8N9589Y7FV"}
{"meta_move": "drag_end", "rt": "1320.0", "trial_number": "2", "pre_actions": "1", "move": "2@29", "instance": "prb42959", "distance_to_goal": "NA", "progress": "NA", "move_number": "8", "optimal_length": "11", "subject": "A1F4N58CAX8IMK:3TS1AR6UQRM7SOIBWPBN8N9589Y7FV"}
{"meta_move": "drag_end", "rt": "729.0", "trial_number": "2", "pre_actions": "1", "move": "5@22", "instance": "prb42959", "distance_to_goal": "NA", "progress": "NA", "move_number": "9", "optimal_length": "11", "subject": "A1F4N58CAX8IMK:3TS1AR6UQRM7SOIBWPBN8N9589Y7FV"}
{"meta_move": "drag_end", "rt": "1687.0", "trial_number": "2", "pre_actions": "1", "move": "6@4", "instance": "prb42959", "distance_to_goal": "NA", "progress": "NA", "move_number": "10", "optimal_length": "11", "subject": "A1F4N58CAX8IMK:3TS1AR6UQRM7SOIBWPBN8N9589Y7FV"}
{"meta_move": "drag_end", "rt": "568.0", "trial_number": "2", "pre_actions": "1", "move": "5@20", "instance": "prb42959", "distance_to_goal": "NA", "progress": "NA", "move_number": "10", "optimal_length": "11", "subject": "A1F4N58CAX8IMK:3TS1AR6UQRM7SOIBWPBN8N9589Y7FV"}
{"meta_move": "drag_end", "rt": "1048.0", "trial_number": "2", "pre_actions": "1", "move": "6@22", "instance": "prb42959", "distance_to_goal": "NA", "progress": "NA", "move_number": "11", "optimal_length": "11", "subject": "A1F4N58CAX8IMK:3TS1AR6UQRM7SOIBWPBN8N9589Y7FV"}
{"meta_move": "drag_end", "rt": "1056.0", "trial_number": "2", "pre_actions": "1", "move": "0@8", "instance": "prb42959", "distance_to_goal": "NA", "progress": "NA", "move_number": "12", "optimal_length": "11", "subject": "A1F4N58CAX8IMK:3TS1AR6UQRM7SOIBWPBN8N9589Y7FV"}
{"meta_move": "drag_end", "rt": "1256.0", "trial_number": "2", "pre_actions": "1", "move": "0@8", "instance": "prb42959", "distance_to_goal": "NA", "progress": "NA", "move_number": "12", "optimal_length": "11", "subject": "A1F4N58CAX8IMK:3TS1AR6UQRM7SOIBWPBN8N9589Y7FV"}
{"meta_move": "drag_end", "rt": "616.0", "trial_number": "2", "pre_actions": "1", "move": "0@8", "instance": "prb42959", "distance_to_goal": "NA", "progress": "NA", "move_number": "12", "optimal_length": "11", "subject": "A1F4N58CAX8IMK:3TS1AR6UQRM7SOIBWPBN8N9589Y7FV"}
{"meta_move": "drag_end", "rt": "657.0", "trial_number": "2", "pre_actions": "1", "move": "7@18", "instance": "prb42959", "distance_to_goal": "NA", "progress": "NA", "move_number": "12", "optimal_length": "11", "subject": "A1F4N58CAX8IMK:3TS1AR6UQRM7SOIBWPBN8N9589Y7FV"}
{"meta_move": "drag_end", "rt": "1176.0", "trial_number": "2", "pre_actions": "1", "move": "2@5", "instance": "prb42959", "distance_to_goal": "NA", "progress": "NA", "move_number": "12", "optimal_length": "11", "subject": "A1F4N58CAX8IMK:3TS1AR6UQRM7SOIBWPBN8N9589Y7FV"}
{"meta_move": "drag_end", "rt": "600.0", "trial_number": "2", "pre_actions": "1", "move": "6@4", "instance": "prb42959", "distance_to_goal": "NA", "progress": "NA", "move_number": "13", "optimal_length": "11", "subject": "A1F4N58CAX8IMK:3TS1AR6UQRM7SOIBWPBN8N9589Y7FV"}
{"meta_move": "drag_end", "rt": "896.0", "trial_number": "2", "pre_actions": "1", "move": "5@22", "instance": "prb42959", "distance_to_goal": "NA", "progress": "NA", "move_number": "14", "optimal_length": "11", "subject": "A1F4N58CAX8IMK:3TS1AR6UQRM7SOIBWPBN8N9589Y7FV"}
{"meta_move": "drag_end", "rt": "855.0", "trial_number": "2", "pre_actions": "1", "move": "0@14", "instance": "prb42959", "distance_to_goal": "NA", "progress": "NA", "move_number": "15", "optimal_length": "11", "subject": "A1F4N58CAX8IMK:3TS1AR6UQRM7SOIBWPBN8N9589Y7FV"}
{"meta_move": "drag_end", "rt": "873.0", "trial_number": "2", "pre_actions": "1", "move": "1@27", "instance": "prb42959", "distance_to_goal": "NA", "progress": "NA", "move_number": "16", "optimal_length": "11", "subject": "A1F4N58CAX8IMK:3TS1AR6UQRM7SOIBWPBN8N9589Y7FV"}
{"meta_move": "drag_end", "rt": "655.0", "trial_number": "2", "pre_actions": "1", "move": "0@26", "instance": "prb42959", "distance_to_goal": "NA", "progress": "NA", "move_number": "17", "optimal_length": "11", "subject": "A1F4N58CAX8IMK:3TS1AR6UQRM7SOIBWPBN8N9589Y7FV"}
{"meta_move": "drag_end", "rt": "728.0", "trial_number": "2", "pre_actions": "1", "move": "r@14", "instance": "prb42959", "distance_to_goal": "NA", "progress": "NA", "move_number": "18", "optimal_length": "11", "subject": "A1F4N58CAX8IMK:3TS1AR6UQRM7SOIBWPBN8N9589Y7FV"}
{"meta_move": "drag_end", "rt": "2512.0", "trial_number": "2", "pre_actions": "1", "move": "5@20", "instance": "prb42959", "distance_to_goal": "NA", "progress": "NA", "move_number": "19", "optimal_length": "11", "subject": "A1F4N58CAX8IMK:3TS1AR6UQRM7SOIBWPBN8N9589Y7FV"}
{"meta_move": "drag_end", "rt": "617.0", "trial_number": "2", "pre_actions": "1", "move": "5@22", "instance": "prb42959", "distance_to_goal": "NA", "progress": "NA", "move_number": "20", "optimal_length": "11", "subject": "A1F4N58CAX8IMK:3TS1AR6UQRM7SOIBWPBN8N9589Y7FV"}
{"meta_move": "drag_end", "rt": "488.0", "trial_number": "2", "pre_actions": "1", "move": "7@20", "instance": "prb42959", "distance_to_goal": "NA", "progress": "NA", "move_number": "21", "optimal_length": "11", "subject": "A1F4N58CAX8IMK:3TS1AR6UQRM7SOIBWPBN8N9589Y7FV"}
{"meta_move": "drag_end", "rt": "775.0", "trial_number": "2", "pre_actions": "1", "move": "4@6", "instance": "prb42959", "distance_to_goal": "NA", "progress": "NA", "move_number": "22", "optimal_length": "11", "subject": "A1F4N58CAX8IMK:3TS1AR6UQRM7SOIBWPBN8N9589Y7FV"}
{"meta_move": "drag_end", "rt": "656.0", "trial_number": "2", "pre_actions": "1", "move": "7@18", "instance": "prb42959", "distance_to_goal": "NA", "progress": "NA", "move_number": "23", "optimal_length": "11", "subject": "A1F4N58CAX8IMK:3TS1AR6UQRM7SOIBWPBN8N9589Y7FV"}
{"meta_move": "drag_end", "rt": "1240.0", "trial_number": "2", "pre_actions": "1", "move": "5@20", "instance": "prb42959", "distance_to_goal": "NA", "progress": "NA", "move_number": "24", "optimal_length": "11", "subject": "A1F4N58CAX8IMK:3TS1AR6UQRM7SOIBWPBN8N9589Y7FV"}
{"meta_move": "drag_end", "rt": "1376.0", "trial_number": "2", "pre_actions": "1", "move": "5@22", "instance": "prb42959", "distance_to_goal": "NA", "progress": "NA", "move_number": "25", "optimal_length": "11", "subject": "A1F4N58CAX8IMK:3TS1AR6UQRM7SOIBWPBN8N9589Y7FV"}
{"meta_move": "drag_end", "rt": "848.0", "trial_number": "2", "pre_actions": "1", "move": "0@20", "instance": "prb42959", "distance_to_goal": "NA", "progress": "NA", "move_number": "26", "optimal_length": "11", "subject": "A1F4N58CAX8IMK:3TS1AR6UQRM7SOIBWPBN8N9589Y7FV"}
{"meta_move": "drag_end", "rt": "1096.0", "trial_number": "2", "pre_actions": "1", "move": "r@13", "instance": "prb42959", "distance_to_goal": "NA", "progress": "NA", "move_number": "27", "optimal_length": "11", "subject": "A1F4N58CAX8IMK:3TS1AR6UQRM7SOIBWPBN8N9589Y7FV"}
{"meta_move": "drag_end", "rt": "976.0", "trial_number": "2", "pre_actions": "1", "move": "r@13", "instance": "prb42959", "distance_to_goal": "NA", "progress": "NA", "move_number": "28", "optimal_length": "11", "subject": "A1F4N58CAX8IMK:3TS1AR6UQRM7SOIBWPBN8N9589Y7FV"}
{"meta_move": "drag_end", "rt": "1184.0", "trial_number": "2", "pre_actions": "1", "move": "r@14", "instance": "prb42959", "distance_to_goal": "NA", "progress": "NA", "move_number": "28", "optimal_length": "11", "subject": "A1F4N58CAX8IMK:3TS1AR6UQRM7SOIBWPBN8N9589Y7FV"}
{"meta_move": "drag_end", "rt": "1153.0", "trial_number": "2", "pre_actions": "1", "move": "0@20", "instance": "prb42959", "distance_to_goal": "NA", "progress": "NA", "move_number": "29", "optimal_length": "11", "subject": "A1F4N58CAX8IMK:3TS1AR6UQRM7SOIBWPBN8N9589Y7FV"}
{"meta_move": "drag_end", "rt": "528.0", "trial_number": "2", "pre_actions": "1", "move": "5@21", "instance": "prb42959", "distance_to_goal": "NA", "progress": "NA", "move_number": "29", "optimal_length": "11", "subject": "A1F4N58CAX8IMK:3TS1AR6UQRM7SOIBWPBN8N9589Y7FV"}
{"meta_move": "drag_end", "rt": "543.0", "trial_number": "2", "pre_actions": "1", "move": "2@17", "instance": "prb42959", "distance_to_goal": "NA", "progress": "NA", "move_number": "30", "optimal_length": "11", "subject": "A1F4N58CAX8IMK:3TS1AR6UQRM7SOIBWPBN8N9589Y7FV"}
{"meta_move": "drag_end", "rt": "593.0", "trial_number": "2", "pre_actions": "1", "move": "6@4", "instance": "prb42959", "distance_to_goal": "NA", "progress": "NA", "move_number": "31", "optimal_length": "11", "subject": "A1F4N58CAX8IMK:3TS1AR6UQRM7SOIBWPBN8N9589Y7FV"}
{"meta_move": "drag_end", "rt": "496.0", "trial_number": "2", "pre_actions": "1", "move": "3@1", "instance": "prb42959", "distance_to_goal": "NA", "progress": "NA", "move_number": "31", "optimal_length": "11", "subject": "A1F4N58CAX8IMK:3TS1AR6UQRM7SOIBWPBN8N9589Y7FV"}
{"meta_move": "drag_end", "rt": "887.0", "trial_number": "2", "pre_actions": "1", "move": "4@0", "instance": "prb42959", "distance_to_goal": "NA", "progress": "NA", "move_number": "32", "optimal_length": "11", "subject": "A1F4N58CAX8IMK:3TS1AR6UQRM7SOIBWPBN8N9589Y7FV"}
{"meta_move": "drag_end", "rt": "832.0", "trial_number": "2", "pre_actions": "1", "move": "r@12", "instance": "prb42959", "distance_to_goal": "NA", "progress": "NA", "move_number": "33", "optimal_length": "11", "subject": "A1F4N58CAX8IMK:3TS1AR6UQRM7SOIBWPBN8N9589Y7FV"}
{"meta_move": "drag_end", "rt": "648.0", "trial_number": "2", "pre_actions": "1", "move": "0@8", "instance": "prb42959", "distance_to_goal": "NA", "progress": "NA", "move_number": "34", "optimal_length": "11", "subject": "A1F4N58CAX8IMK:3TS1AR6UQRM7SOIBWPBN8N9589Y7FV"}
{"meta_move": "drag_end", "rt": "841.0", "trial_number": "2", "pre_actions": "1", "move": "1@24", "instance": "prb42959", "distance_to_goal": "NA", "progress": "NA", "move_number": "35", "optimal_length": "11", "subject": "A1F4N58CAX8IMK:3TS1AR6UQRM7SOIBWPBN8N9589Y7FV"}
{"meta_move": "drag_end", "rt": "2232.0", "trial_number": "2", "pre_actions": "1", "move": "0@8", "instance": "prb42959", "distance_to_goal": "NA", "progress": "NA", "move_number": "36", "optimal_length": "11", "subject": "A1F4N58CAX8IMK:3TS1AR6UQRM7SOIBWPBN8N9589Y7FV"}
{"meta_move": "drag_end", "rt": "663.0", "trial_number": "2", "pre_actions": "1", "move": "5@20", "instance": "prb42959", "distance_to_goal": "NA", "progress": "NA", "move_number": "36", "optimal_length": "11", "subject": "A1F4N58CAX8IMK:3TS1AR6UQRM7SOIBWPBN8N9589Y7FV"}
{"meta_move": "drag_end", "rt": "1256.0", "trial_number": "2", "pre_actions": "1", "move": "6@22", "instance": "prb42959", "distance_to_goal": "NA", "progress": "NA", "move_number": "37", "optimal_length": "11", "subject": "A1F4N58CAX8IMK:3TS1AR6UQRM7SOIBWPBN8N9589Y7FV"}
{"meta_move": "drag_end", "rt": "720.0", "trial_number": "2", "pre_actions": "1", "move": "2@29", "instance": "prb42959", "distance_to_goal": "NA", "progress": "NA", "move_number": "38", "optimal_length": "11", "subject": "A1F4N58CAX8IMK:3TS1AR6UQRM7SOIBWPBN8N9589Y7FV"}
{"meta_move": "drag_end", "rt": "1768.0", "trial_number": "2", "pre_actions": "1", "move": "6@4", "instance": "prb42959", "distance_to_goal": "NA", "progress": "NA", "move_number": "39", "optimal_length": "11", "subject": "A1F4N58CAX8IMK:3TS1AR6UQRM7SOIBWPBN8N9589Y7FV"}
{"meta_move": "drag_end", "rt": "752.0", "trial_number": "2", "pre_actions": "1", "move": "5@22", "instance": "prb42959", "distance_to_goal": "NA", "progress": "NA", "move_number": "40", "optimal_length": "11", "subject": "A1F4N58CAX8IMK:3TS1AR6UQRM7SOIBWPBN8N9589Y7FV"}
{"meta_move": "drag_end", "rt": "753.0", "trial_number": "2", "pre_actions": "1", "move": "0@14", "instance": "prb42959", "distance_to_goal": "NA", "progress": "NA", "move_number": "41", "optimal_length": "11", "subject": "A1F4N58CAX8IMK:3TS1AR6UQRM7SOIBWPBN8N9589Y7FV"}
{"meta_move": "drag_end", "rt": "1055.0", "trial_number": "2", "pre_actions": "1", "move": "0@8", "instance": "prb42959", "distance_to_goal": "NA", "progress": "NA", "move_number": "42", "optimal_length": "11", "subject": "A1F4N58CAX8IMK:3TS1AR6UQRM7SOIBWPBN8N9589Y7FV"}
{"meta_move": "drag_end", "rt": "736.0", "trial_number": "2", "pre_actions": "1", "move": "1@26", "instance": "prb42959", "distance_to_goal": "NA", "progress": "NA", "move_number": "43", "optimal_length": "11", "subject": "A1F4N58CAX8IMK:3TS1AR6UQRM7SOIBWPBN8N9589Y7FV"}
{"meta_move": "drag_end", "rt": "1512.0", "trial_number": "2", "pre_actions": "1", "move": "7@20", "instance": "prb42959", "distance_to_goal": "NA", "progress": "NA", "move_number": "44", "optimal_length": "11", "subject": "A1F4N58CAX8IMK:3TS1AR6UQRM7SOIBWPBN8N9589Y7FV"}
{"meta_move": "drag_end", "rt": "1304.0", "trial_number": "2", "pre_actions": "1", "move": "7@18", "instance": "prb42959", "distance_to_goal": "NA", "progress": "NA", "move_number": "45", "optimal_length": "11", "subject": "A1F4N58CAX8IMK:3TS1AR6UQRM7SOIBWPBN8N9589Y7FV"}
{"meta_move": "drag_end", "rt": "736.0", "trial_number": "2", "pre_actions": "1", "move": "1@24", "instance": "prb42959", "distance_to_goal": "NA", "progress": "NA", "move_number": "46", "optimal_length": "11", "subject": "A1F4N58CAX8IMK:3TS1AR6UQRM7SOIBWPBN8N9589Y7FV"}
{"meta_move": "drag_end", "rt": "1537.0", "trial_number": "2", "pre_actions": "1", "move": "5@20", "instance": "prb42959", "distance_to_goal": "NA", "progress": "NA", "move_number": "47", "optimal_length": "11", "subject": "A1F4N58CAX8IMK:3TS1AR6UQRM7SOIBWPBN8N9589Y7FV"}
{"meta_move": "drag_end", "rt": "679.0", "trial_number": "2", "pre_actions": "1", "move": "6@22", "instance": "prb42959", "distance_to_goal": "NA", "progress": "NA", "move_number": "48", "optimal_length": "11", "subject": "A1F4N58CAX8IMK:3TS1AR6UQRM7SOIBWPBN8N9589Y7FV"}
{"meta_move": "drag_end", "rt": "2657.0", "trial_number": "2", "pre_actions": "1", "move": "3@3", "instance": "prb42959", "distance_to_goal": "NA", "progress": "NA", "move_number": "49", "optimal_length": "11", "subject": "A1F4N58CAX8IMK:3TS1AR6UQRM7SOIBWPBN8N9589Y7FV"}
{"meta_move": "drag_end", "rt": "935.0", "trial_number": "2", "pre_actions": "1", "move": "0@2", "instance": "prb42959", "distance_to_goal": "NA", "progress": "NA", "move_number": "50", "optimal_length": "11", "subject": "A1F4N58CAX8IMK:3TS1AR6UQRM7SOIBWPBN8N9589Y7FV"}
{"meta_move": "win", "rt": "502.0", "trial_number": "2", "pre_actions": "1", "move": "r@12", "instance": "prb42959", "distance_to_goal": "1", "progress": "NA", "move_number": "51", "optimal_length": "11", "subject": "A1F4N58CAX8IMK:3TS1AR6UQRM7SOIBWPBN8N9589Y7FV"}
{"meta_move": "drag_end", "rt": "154.0", "trial_number": "0", "pre_actions": "0", "move": "r@16", "instance": "prb42959", "distance_to_goal": "NA", "progress": "NA", "move_number": "51", "optimal_length": "11", "subject": "A1F4N58CAX8IMK:3TS1AR6UQRM7SOIBWPBN8N9589Y7FV"}
{"meta_move": "drag_end", "rt": "2430.0", "trial_number": "1", "pre_actions": "1", "move": "0@26", "instance": "prb42959", "distance_to_goal": "NA", "progress": "NA", "move_number": "0", "optimal_length": "11", "subject": "A1LR0VQIHQUJAM:3YW4XOSQKRTI0K0Z2YPDTDJVFABU1I"}
{"meta_move": "drag_end", "rt": "2444.0", "trial_number": "1", "pre_actions": "1", "move": "5@20", "instance": "prb42959", "distance_to_goal": "NA", "progress": "NA", "move_number": "1", "optimal_length": "11", "subject": "A1LR0VQIHQUJAM:3YW4XOSQKRTI0K0Z2YPDTDJVFABU1I"}
{"meta_move": "drag_end", "rt": "858.0", "trial_number": "1", "pre_actions": "1", "move": "5@21", "instance": "prb42959", "distance_to_goal": "NA", "progress": "NA", "move_number": "2", "optimal_length": "11", "subject": "A1LR0VQIHQUJAM:3YW4XOSQKRTI0K0Z2YPDTDJVFABU1I"}
{"meta_move": "drag_end", "rt": "1590.0", "trial_number": "1", "pre_actions": "1", "move": "r@14", "instance": "prb42959", "distance_to_goal": "NA", "progress": "NA", "move_number": "3", "optimal_length": "11", "subject": "A1LR0VQIHQUJAM:3YW4XOSQKRTI0K0Z2YPDTDJVFABU1I"}
{"meta_move": "drag_end", "rt": "562.0", "trial_number": "1", "pre_actions": "1", "move": "4@0", "instance": "prb42959", "distance_to_goal": "NA", "progress": "NA", "move_number": "3", "optimal_length": "11", "subject": "A1LR0VQIHQUJAM:3YW4XOSQKRTI0K0Z2YPDTDJVFABU1I"}
{"meta_move": "drag_end", "rt": "526.0", "trial_number": "1", "pre_actions": "1", "move": "r@12", "instance": "prb42959", "distance_to_goal": "NA", "progress": "NA", "move_number": "4", "optimal_length": "11", "subject": "A1LR0VQIHQUJAM:3YW4XOSQKRTI0K0Z2YPDTDJVFABU1I"}
{"meta_move": "drag_end", "rt": "697.0", "trial_number": "1", "pre_actions": "1", "move": "0@8", "instance": "prb42959", "distance_to_goal": "NA", "progress": "NA", "move_number": "5", "optimal_length": "11", "subject": "A1LR0VQIHQUJAM:3YW4XOSQKRTI0K0Z2YPDTDJVFABU1I"}
{"meta_move": "drag_end", "rt": "3011.0", "trial_number": "1", "pre_actions": "1", "move": "1@27", "instance": "prb42959", "distance_to_goal": "NA", "progress": "NA", "move_number": "6", "optimal_length": "11", "subject": "A1LR0VQIHQUJAM:3YW4XOSQKRTI0K0Z2YPDTDJVFABU1I"}
{"meta_move": "drag_end", "rt": "6167.0", "trial_number": "1", "pre_actions": "1", "move": "5@20", "instance": "prb42959", "distance_to_goal": "NA", "progress": "NA", "move_number": "6", "optimal_length": "11", "subject": "A1LR0VQIHQUJAM:3YW4XOSQKRTI0K0Z2YPDTDJVFABU1I"}
{"meta_move": "drag_end", "rt": "463.0", "trial_number": "1", "pre_actions": "1", "move": "1@24", "instance": "prb42959", "distance_to_goal": "NA", "progress": "NA", "move_number": "7", "optimal_length": "11", "subject": "A1LR0VQIHQUJAM:3YW4XOSQKRTI0K0Z2YPDTDJVFABU1I"}
{"meta_move": "drag_end", "rt": "814.0", "trial_number": "1", "pre_actions": "1", "move": "6@22", "instance": "prb42959", "distance_to_goal": "NA", "progress": "NA", "move_number": "8", "optimal_length": "11", "subject": "A1LR0VQIHQUJAM:3YW4XOSQKRTI0K0Z2YPDTDJVFABU1I"}
{"meta_move": "drag_end", "rt": "536.0", "trial_number": "1", "pre_actions": "1", "move": "1@25", "instance": "prb42959", "distance_to_goal": "NA", "progress": "NA", "move_number": "9", "optimal_length": "11", "subject": "A1LR0VQIHQUJAM:3YW4XOSQKRTI0K0Z2YPDTDJVFABU1I"}
{"meta_move": "drag_end", "rt": "1953.0", "trial_number": "1", "pre_actions": "1", "move": "3@3", "instance": "prb42959", "distance_to_goal": "NA", "progress": "NA", "move_number": "10", "optimal_length": "11", "subject": "A1LR0VQIHQUJAM:3YW4XOSQKRTI0K0Z2YPDTDJVFABU1I"}
{"meta_move": "drag_end", "rt": "705.0", "trial_number": "1", "pre_actions": "1", "move": "0@2", "instance": "prb42959", "distance_to_goal": "NA", "progress": "NA", "move_number": "11", "optimal_length": "11", "subject": "A1LR0VQIHQUJAM:3YW4XOSQKRTI0K0Z2YPDTDJVFABU1I"}
{"meta_move": "drag_end", "rt": "659.0", "trial_number": "1", "pre_actions": "1", "move": "2@29", "instance": "prb42959", "distance_to_goal": "NA", "progress": "NA", "move_number": "12", "optimal_length": "11", "subject": "A1LR0VQIHQUJAM:3YW4XOSQKRTI0K0Z2YPDTDJVFABU1I"}
{"meta_move": "win", "rt": "661.0", "trial_number": "1", "pre_actions": "1", "move": "r@12", "instance": "prb42959", "distance_to_goal": "1", "progress": "NA", "move_number": "13", "optimal_length": "11", "subject": "A1LR0VQIHQUJAM:3YW4XOSQKRTI0K0Z2YPDTDJVFABU1I"}
{"meta_move": "drag_end", "rt": "98.0", "trial_number": "0", "pre_actions": "0", "move": "r@16", "instance": "prb42959", "distance_to_goal": "NA", "progress": "NA", "move_number": "13", "optimal_length": "11", "subject": "A1LR0VQIHQUJAM:3YW4XOSQKRTI0K0Z2YPDTDJVFABU1I"}
{"meta_move": "drag_end", "rt": "3195.0", "trial_number": "1", "pre_actions": "1", "move": "4@0", "instance": "prb42959", "distance_to_goal": "NA", "progress": "NA", "move_number": "0", "optimal_length": "11", "subject": "A214HWAW1PYWO8:34BBWHLWHBJ6SUL255PK30LEGY5IWG"}
{"meta_move": "drag_end", "rt": "3113.0", "trial_number": "1", "pre_actions": "1", "move": "r@14", "instance": "prb42959", "distance_to_goal": "NA", "progress": "NA", "move_number": "1", "optimal_length": "11", "subject": "A214HWAW1PYWO8:34BBWHLWHBJ6SUL255PK30LEGY5IWG"}
{"meta_move": "drag_end", "rt": "1062.0", "trial_number": "1", "pre_actions": "1", "move": "r@12", "instance": "prb42959", "distance_to_goal": "NA", "progress": "NA", "move_number": "1", "optimal_length": "11", "subject": "A214HWAW1PYWO8:34BBWHLWHBJ6SUL255PK30LEGY5IWG"}
{"meta_move": "drag_end", "rt": "558.0", "trial_number": "1", "pre_actions": "1", "move": "0@8", "instance": "prb42959", "distance_to_goal": "NA", "progress": "NA", "move_number": "2", "optimal_length": "11", "subject": "A214HWAW1PYWO8:34BBWHLWHBJ6SUL255PK30LEGY5IWG"}
{"meta_move": "drag_end", "rt": "3038.0", "trial_number": "1", "pre_actions": "1", "move": "5@20", "instance": "prb42959", "distance_to_goal": "NA", "progress": "NA", "move_number": "3", "optimal_length": "11", "subject": "A214HWAW1PYWO8:34BBWHLWHBJ6SUL255PK30LEGY5IWG"}
{"meta_move": "drag_end", "rt": "476.0", "trial_number": "1", "pre_actions": "1", "move": "1@24", "instance": "prb42959", "distance_to_goal": "NA", "progress": "NA", "move_number": "4", "optimal_length": "11", "subject": "A214HWAW1PYWO8:34BBWHLWHBJ6SUL255PK30LEGY5IWG"}
{"meta_move": "drag_end", "rt": "626.0", "trial_number": "1", "pre_actions": "1", "move": "6@22", "instance": "prb42959", "distance_to_goal": "NA", "progress": "NA", "move_number": "5", "optimal_length": "11", "subject": "A214HWAW1PYWO8:34BBWHLWHBJ6SUL255PK30LEGY5IWG"}
{"meta_move": "drag_end", "rt": "1193.0", "trial_number": "1", "pre_actions": "1", "move": "2@29", "instance": "prb42959", "distance_to_goal": "NA", "progress": "NA", "move_number": "6", "optimal_length": "11", "subject": "A214HWAW1PYWO8:34BBWHLWHBJ6SUL255PK30LEGY5IWG"}
{"meta_move": "drag_end", "rt": "2594.0", "trial_number": "1", "pre_actions": "1", "move": "6@4", "instance": "prb42959", "distance_to_goal": "NA", "progress": "NA", "move_number": "7", "optimal_length": "11", "subject": "A214HWAW1PYWO8:34BBWHLWHBJ6SUL255PK30LEGY5IWG"}
{"meta_move": "drag_end", "rt": "697.0", "trial_number": "1", "pre_actions": "1", "move": "5@22", "instance": "prb42959", "distance_to_goal": "NA", "progress": "NA", "move_number": "8", "optimal_length": "11", "subject": "A214HWAW1PYWO8:34BBWHLWHBJ6SUL255PK30LEGY5IWG"}
{"meta_move": "drag_end", "rt": "2488.0", "trial_number": "1", "pre_actions": "1", "move": "5@20", "instance": "prb42959", "distance_to_goal": "NA", "progress": "NA", "move_number": "9", "optimal_length": "11", "subject": "A214HWAW1PYWO8:34BBWHLWHBJ6SUL255PK30LEGY5IWG"}
{"meta_move": "drag_end", "rt": "618.0", "trial_number": "1", "pre_actions": "1", "move": "2@5", "instance": "prb42959", "distance_to_goal": "NA", "progress": "NA", "move_number": "10", "optimal_length": "11", "subject": "A214HWAW1PYWO8:34BBWHLWHBJ6SUL255PK30LEGY5IWG"}
{"meta_move": "drag_end", "rt": "660.0", "trial_number": "1", "pre_actions": "1", "move": "5@22", "instance": "prb42959", "distance_to_goal": "NA", "progress": "NA", "move_number": "11", "optimal_length": "11", "subject": "A214HWAW1PYWO8:34BBWHLWHBJ6SUL255PK30LEGY5IWG"}
{"meta_move": "drag_end", "rt": "701.0", "trial_number": "1", "pre_actions": "1", "move": "1@27", "instance": "prb42959", "distance_to_goal": "NA", "progress": "NA", "move_number": "12", "optimal_length": "11", "subject": "A214HWAW1PYWO8:34BBWHLWHBJ6SUL255PK30LEGY5IWG"}
{"meta_move": "drag_end", "rt": "688.0", "trial_number": "1", "pre_actions": "1", "move": "0@26", "instance": "prb42959", "distance_to_goal": "NA", "progress": "NA", "move_number": "13", "optimal_length": "11", "subject": "A214HWAW1PYWO8:34BBWHLWHBJ6SUL255PK30LEGY5IWG"}
{"meta_move": "drag_end", "rt": "714.0", "trial_number": "1", "pre_actions": "1", "move": "5@20", "instance": "prb42959", "distance_to_goal": "NA", "progress": "NA", "move_number": "14", "optimal_length": "11", "subject": "A214HWAW1PYWO8:34BBWHLWHBJ6SUL255PK30LEGY5IWG"}
{"meta_move": "drag_end", "rt": "489.0", "trial_number": "1", "pre_actions": "1", "move": "r@14", "instance": "prb42959", "distance_to_goal": "NA", "progress": "NA", "move_number": "15", "optimal_length": "11", "subject": "A214HWAW1PYWO8:34BBWHLWHBJ6SUL255PK30LEGY5IWG"}
{"meta_move": "drag_end", "rt": "2597.0", "trial_number": "1", "pre_actions": "1", "move": "r@12", "instance": "prb42959", "distance_to_goal": "NA", "progress": "NA", "move_number": "16", "optimal_length": "11", "subject": "A214HWAW1PYWO8:34BBWHLWHBJ6SUL255PK30LEGY5IWG"}
{"meta_move": "drag_end", "rt": "567.0", "trial_number": "1", "pre_actions": "1", "move": "5@22", "instance": "prb42959", "distance_to_goal": "NA", "progress": "NA", "move_number": "17", "optimal_length": "11", "subject": "A214HWAW1PYWO8:34BBWHLWHBJ6SUL255PK30LEGY5IWG"}
{"meta_move": "drag_end", "rt": "598.0", "trial_number": "1", "pre_actions": "1", "move": "r@14", "instance": "prb42959", "distance_to_goal": "NA", "progress": "NA", "move_number": "18", "optimal_length": "11", "subject": "A214HWAW1PYWO8:34BBWHLWHBJ6SUL255PK30LEGY5IWG"}
{"meta_move": "drag_end", "rt": "1165.0", "trial_number": "1", "pre_actions": "1", "move": "5@20", "instance": "prb42959", "distance_to_goal": "NA", "progress": "NA", "move_number": "19", "optimal_length": "11", "subject": "A214HWAW1PYWO8:34BBWHLWHBJ6SUL255PK30LEGY5IWG"}
{"meta_move": "drag_end", "rt": "772.0", "trial_number": "1", "pre_actions": "1", "move": "6@10", "instance": "prb42959", "distance_to_goal": "NA", "progress": "NA", "move_number": "20", "optimal_length": "11", "subject": "A214HWAW1PYWO8:34BBWHLWHBJ6SUL255PK30LEGY5IWG"}
{"meta_move": "drag_end", "rt": "352.0", "trial_number": "1", "pre_actions": "1", "move": "6@4", "instance": "prb42959", "distance_to_goal": "NA", "progress": "NA", "move_number": "21", "optimal_length": "11", "subject": "A214HWAW1PYWO8:34BBWHLWHBJ6SUL255PK30LEGY5IWG"}
{"meta_move": "drag_end", "rt": "5952.0", "trial_number": "1", "pre_actions": "1", "move": "5@22", "instance": "prb42959", "distance_to_goal": "NA", "progress": "NA", "move_number": "22", "optimal_length": "11", "subject": "A214HWAW1PYWO8:34BBWHLWHBJ6SUL255PK30LEGY5IWG"}
{"meta_move": "drag_end", "rt": "1005.0", "trial_number": "1", "pre_actions": "1", "move": "r@12", "instance": "prb42959", "distance_to_goal": "NA", "progress": "NA", "move_number": "23", "optimal_length": "11", "subject": "A214HWAW1PYWO8:34BBWHLWHBJ6SUL255PK30LEGY5IWG"}
{"meta_move": "drag_end", "rt": "4739.0", "trial_number": "2", "pre_actions": "1", "move": "4@0", "instance": "prb42959", "distance_to_goal": "NA", "progress": "NA", "move_number": "0", "optimal_length": "11", "subject": "A214HWAW1PYWO8:34BBWHLWHBJ6SUL255PK30LEGY5IWG"}
{"meta_move": "drag_end", "rt": "1059.0", "trial_number": "2", "pre_actions": "1", "move": "r@12", "instance": "prb42959", "distance_to_goal": "NA", "progress": "NA", "move_number": "1", "optimal_length": "11", "subject": "A214HWAW1PYWO8:34BBWHLWHBJ6SUL255PK30LEGY5IWG"}
{"meta_move": "drag_end", "rt": "2977.0", "trial_number": "2", "pre_actions": "1", "move": "0@8", "instance": "prb42959", "distance_to_goal": "NA", "progress": "NA", "move_number": "2", "optimal_length": "11", "subject": "A214HWAW1PYWO8:34BBWHLWHBJ6SUL255PK30LEGY5IWG"}
{"meta_move": "drag_end", "rt": "571.0", "trial_number": "2", "pre_actions": "1", "move": "1@24", "instance": "prb42959", "distance_to_goal": "NA", "progress": "NA", "move_number": "3", "optimal_length": "11", "subject": "A214HWAW1PYWO8:34BBWHLWHBJ6SUL255PK30LEGY5IWG"}
{"meta_move": "drag_end", "rt": "459.0", "trial_number": "2", "pre_actions": "1", "move": "5@20", "instance": "prb42959", "distance_to_goal": "NA", "progress": "NA", "move_number": "4", "optimal_length": "11", "subject": "A214HWAW1PYWO8:34BBWHLWHBJ6SUL255PK30LEGY5IWG"}
{"meta_move": "drag_end", "rt": "521.0", "trial_number": "2", "pre_actions": "1", "move": "6@22", "instance": "prb42959", "distance_to_goal": "NA", "progress": "NA", "move_number": "5", "optimal_length": "11", "subject": "A214HWAW1PYWO8:34BBWHLWHBJ6SUL255PK30LEGY5IWG"}
{"meta_move": "drag_end", "rt": "632.0", "trial_number": "2", "pre_actions": "1", "move": "3@3", "instance": "prb42959", "distance_to_goal": "NA", "progress": "NA", "move_number": "6", "optimal_length": "11", "subject": "A214HWAW1PYWO8:34BBWHLWHBJ6SUL255PK30LEGY5IWG"}
{"meta_move": "drag_end", "rt": "569.0", "trial_number": "2", "pre_actions": "1", "move": "0@2", "instance": "prb42959", "distance_to_goal": "NA", "progress": "NA", "move_number": "7", "optimal_length": "11", "subject": "A214HWAW1PYWO8:34BBWHLWHBJ6SUL255PK30LEGY5IWG"}
{"meta_move": "drag_end", "rt": "486.0", "trial_number": "2", "pre_actions": "1", "move": "r@15", "instance": "prb42959", "distance_to_goal": "NA", "progress": "NA", "move_number": "8", "optimal_length": "11", "subject": "A214HWAW1PYWO8:34BBWHLWHBJ6SUL255PK30LEGY5IWG"}
{"meta_move": "drag_end", "rt": "480.0", "trial_number": "2", "pre_actions": "1", "move": "2@29", "instance": "prb42959", "distance_to_goal": "NA", "progress": "NA", "move_number": "9", "optimal_length": "11", "subject": "A214HWAW1PYWO8:34BBWHLWHBJ6SUL255PK30LEGY5IWG"}
{"meta_move": "win", "rt": "344.0", "trial_number": "2", "pre_actions": "1", "move": "r@15", "instance": "prb42959", "distance_to_goal": "1", "progress": "NA", "move_number": "10", "optimal_length": "11", "subject": "A214HWAW1PYWO8:34BBWHLWHBJ6SUL255PK30LEGY5IWG"}
{"meta_move": "drag_end", "rt": "22.0", "trial_number": "0", "pre_actions": "0", "move": "r@16", "instance": "prb42959", "distance_to_goal": "NA", "progress": "NA", "move_number": "10", "optimal_length": "11", "subject": "A214HWAW1PYWO8:34BBWHLWHBJ6SUL255PK30LEGY5IWG"}
{"meta_move": "drag_end", "rt": "1032.0", "trial_number": "1", "pre_actions": "1", "move": "0@20", "instance": "prb42959", "distance_to_goal": "NA", "progress": "NA", "move_number": "0", "optimal_length": "11", "subject": "A23437BMZ5T1FH:3IHR8NYAM89M0EPM8U9LH53ZJDTP4U"}
{"meta_move": "drag_end", "rt": "857.0", "trial_number": "1", "pre_actions": "1", "move": "r@13", "instance": "prb42959", "distance_to_goal": "NA", "progress": "NA", "move_number": "0", "optimal_length": "11", "subject": "A23437BMZ5T1FH:3IHR8NYAM89M0EPM8U9LH53ZJDTP4U"}
{"meta_move": "drag_end", "rt": "1080.0", "trial_number": "1", "pre_actions": "1", "move": "r@14", "instance": "prb42959", "distance_to_goal": "NA", "progress": "NA", "move_number": "1", "optimal_length": "11", "subject": "A23437BMZ5T1FH:3IHR8NYAM89M0EPM8U9LH53ZJDTP4U"}
{"meta_move": "drag_end", "rt": "535.0", "trial_number": "1", "pre_actions": "1", "move": "4@0", "instance": "prb42959", "distance_to_goal": "NA", "progress": "NA", "move_number": "2", "optimal_length": "11", "subject": "A23437BMZ5T1FH:3IHR8NYAM89M0EPM8U9LH53ZJDTP4U"}
{"meta_move": "drag_end", "rt": "656.0", "trial_number": "1", "pre_actions": "1", "move": "r@12", "instance": "prb42959", "distance_to_goal": "NA", "progress": "NA", "move_number": "3", "optimal_length": "11", "subject": "A23437BMZ5T1FH:3IHR8NYAM89M0EPM8U9LH53ZJDTP4U"}
{"meta_move": "drag_end", "rt": "1330.0", "trial_number": "1", "pre_actions": "1", "move": "0@8", "instance": "prb42959", "distance_to_goal": "NA", "progress": "NA", "move_number": "4", "optimal_length": "11", "subject": "A23437BMZ5T1FH:3IHR8NYAM89M0EPM8U9LH53ZJDTP4U"}
{"meta_move": "drag_end", "rt": "582.0", "trial_number": "1", "pre_actions": "1", "move": "7@19", "instance": "prb42959", "distance_to_goal": "NA", "progress": "NA", "move_number": "5", "optimal_length": "11", "subject": "A23437BMZ5T1FH:3IHR8NYAM89M0EPM8U9LH53ZJDTP4U"}
{"meta_move": "drag_end", "rt": "1536.0", "trial_number": "1", "pre_actions": "1", "move": "1@24", "instance": "prb42959", "distance_to_goal": "NA", "progress": "NA", "move_number": "6", "optimal_length": "11", "subject": "A23437BMZ5T1FH:3IHR8NYAM89M0EPM8U9LH53ZJDTP4U"}
{"meta_move": "drag_end", "rt": "954.0", "trial_number": "1", "pre_actions": "1", "move": "5@22", "instance": "prb42959", "distance_to_goal": "NA", "progress": "NA", "move_number": "7", "optimal_length": "11", "subject": "A23437BMZ5T1FH:3IHR8NYAM89M0EPM8U9LH53ZJDTP4U"}
{"meta_move": "drag_end", "rt": "790.0", "trial_number": "1", "pre_actions": "1", "move": "5@21", "instance": "prb42959", "distance_to_goal": "NA", "progress": "NA", "move_number": "8", "optimal_length": "11", "subject": "A23437BMZ5T1FH:3IHR8NYAM89M0EPM8U9LH53ZJDTP4U"}
{"meta_move": "drag_end", "rt": "489.0", "trial_number": "1", "pre_actions": "1", "move": "7@18", "instance": "prb42959", "distance_to_goal": "NA", "progress": "NA", "move_number": "9", "optimal_length": "11", "subject": "A23437BMZ5T1FH:3IHR8NYAM89M0EPM8U9LH53ZJDTP4U"}
{"meta_move": "drag_end", "rt": "511.0", "trial_number": "1", "pre_actions": "1", "move": "5@20", "instance": "prb42959", "distance_to_goal": "NA", "progress": "NA", "move_number": "10", "optimal_length": "11", "subject": "A23437BMZ5T1FH:3IHR8NYAM89M0EPM8U9LH53ZJDTP4U"}
{"meta_move": "drag_end", "rt": "825.0", "trial_number": "1", "pre_actions": "1", "move": "6@22", "instance": "prb42959", "distance_to_goal": "NA", "progress": "NA", "move_number": "11", "optimal_length": "11", "subject": "A23437BMZ5T1FH:3IHR8NYAM89M0EPM8U9LH53ZJDTP4U"}
{"meta_move": "drag_end", "rt": "769.0", "trial_number": "1", "pre_actions": "1", "move": "2@29", "instance": "prb42959", "distance_to_goal": "NA", "progress": "NA", "move_number": "12", "optimal_length": "11", "subject": "A23437BMZ5T1FH:3IHR8NYAM89M0EPM8U9LH53ZJDTP4U"}
{"meta_move": "drag_end", "rt": "783.0", "trial_number": "1", "pre_actions": "1", "move": "3@3", "instance": "prb42959", "distance_to_goal": "NA", "progress": "NA", "move_number": "13", "optimal_length": "11", "subject": "A23437BMZ5T1FH:3IHR8NYAM89M0EPM8U9LH53ZJDTP4U"}
{"meta_move": "drag_end", "rt": "615.0", "trial_number": "1", "pre_actions": "1", "move": "0@2", "instance": "prb42959", "distance_to_goal": "NA", "progress": "NA", "move_number": "14", "optimal_length": "11", "subject": "A23437BMZ5T1FH:3IHR8NYAM89M0EPM8U9LH53ZJDTP4U"}
{"meta_move": "win", "rt": "434.0", "trial_number": "1", "pre_actions": "1", "move": "r@12", "instance": "prb42959", "distance_to_goal": "1", "progress": "NA", "move_number": "15", "optimal_length": "11", "subject": "A23437BMZ5T1FH:3IHR8NYAM89M0EPM8U9LH53ZJDTP4U"}
{"meta_move": "drag_end", "rt": "70.0", "trial_number": "0", "pre_actions": "0", "move": "r@16", "instance": "prb42959", "distance_to_goal": "NA", "progress": "NA", "move_number": "15", "optimal_length": "11", "subject": "A23437BMZ5T1FH:3IHR8NYAM89M0EPM8U9LH53ZJDTP4U"}
{"meta_move": "drag_end", "rt": "3993.0", "trial_number": "8", "pre_actions": "1", "move": "0@26", "instance": "prb42959", "distance_to_goal": "NA", "progress": "NA", "move_number": "0", "optimal_length": "11", "subject": "A26RO8GGTQAXGG:3CFVK00FWMTAOGE2ZQ9TXMETAPZ6LP"}
{"meta_move": "drag_end", "rt": "20887.0", "trial_number": "8", "pre_actions": "1", "move": "5@20", "instance": "prb42959", "distance_to_goal": "NA", "progress": "NA", "move_number": "1", "optimal_length": "11", "subject": "A26RO8GGTQAXGG:3CFVK00FWMTAOGE2ZQ9TXMETAPZ6LP"}
{"meta_move": "drag_end", "rt": "1672.0", "trial_number": "8", "pre_actions": "1", "move": "4@0", "instance": "prb42959", "distance_to_goal": "NA", "progress": "NA", "move_number": "2", "optimal_length": "11", "subject": "A26RO8GGTQAXGG:3CFVK00FWMTAOGE2ZQ9TXMETAPZ6LP"}
{"meta_move": "drag_end", "rt": "1544.0", "trial_number": "8", "pre_actions": "1", "move": "2@17", "instance": "prb42959", "distance_to_goal": "NA", "progress": "NA", "move_number": "3", "optimal_length": "11", "subject": "A26RO8GGTQAXGG:3CFVK00FWMTAOGE2ZQ9TXMETAPZ6LP"}
{"meta_move": "drag_end", "rt": "2936.0", "trial_number": "8", "pre_actions": "1", "move": "r@12", "instance": "prb42959", "distance_to_goal": "NA", "progress": "NA", "move_number": "4", "optimal_length": "11", "subject": "A26RO8GGTQAXGG:3CFVK00FWMTAOGE2ZQ9TXMETAPZ6LP"}
{"meta_move": "drag_end", "rt": "17741.0", "trial_number": "1", "pre_actions": "1", "move": "4@0", "instance": "prb42959", "distance_to_goal": "NA", "progress": "NA", "move_number": "0", "optimal_length": "11", "subject": "A289D98Z4GAZ28:3ZV9H2YQQEFR2R3JK2IXZUJPXAF3WW"}
{"meta_move": "drag_end", "rt": "8042.0", "trial_number": "1", "pre_actions": "1", "move": "r@12", "instance": "prb42959", "distance_to_goal": "NA", "progress": "NA", "move_number": "1", "optimal_length": "11", "subject": "A289D98Z4GAZ28:3ZV9H2YQQEFR2R3JK2IXZUJPXAF3WW"}
{"meta_move": "drag_end", "rt": "1596.0", "trial_number": "1", "pre_actions": "1", "move": "0@8", "instance": "prb42959", "distance_to_goal": "NA", "progress": "NA", "move_number": "2", "optimal_length": "11", "subject": "A289D98Z4GAZ28:3ZV9H2YQQEFR2R3JK2IXZUJPXAF3WW"}
{"meta_move": "drag_end", "rt": "1564.0", "trial_number": "1", "pre_actions": "1", "move": "5@20", "instance": "prb42959", "distance_to_goal": "NA", "progress": "NA", "move_number": "3", "optimal_length": "11", "subject": "A289D98Z4GAZ28:3ZV9H2YQQEFR2R3JK2IXZUJPXAF3WW"}
{"meta_move": "drag_end", "rt": "872.0", "trial_number": "1", "pre_actions": "1", "move": "1@24", "instance": "prb42959", "distance_to_goal": "NA", "progress": "NA", "move_number": "4", "optimal_length": "11", "subject": "A289D98Z4GAZ28:3ZV9H2YQQEFR2R3JK2IXZUJPXAF3WW"}
{"meta_move": "drag_end", "rt": "1107.0", "trial_number": "1", "pre_actions": "1", "move": "6@22", "instance": "prb42959", "distance_to_goal": "NA", "progress": "NA", "move_number": "5", "optimal_length": "11", "subject": "A289D98Z4GAZ28:3ZV9H2YQQEFR2R3JK2IXZUJPXAF3WW"}
{"meta_move": "drag_end", "rt": "859.0", "trial_number": "1", "pre_actions": "1", "move": "2@29", "instance": "prb42959", "distance_to_goal": "NA", "progress": "NA", "move_number": "6", "optimal_length": "11", "subject": "A289D98Z4GAZ28:3ZV9H2YQQEFR2R3JK2IXZUJPXAF3WW"}
{"meta_move": "drag_end", "rt": "10624.0", "trial_number": "1", "pre_actions": "1", "move": "6@22", "instance": "prb42959", "distance_to_goal": "NA", "progress": "NA", "move_number": "7", "optimal_length": "11", "subject": "A289D98Z4GAZ28:3ZV9H2YQQEFR2R3JK2IXZUJPXAF3WW"}
{"meta_move": "drag_end", "rt": "1013.0", "trial_number": "1", "pre_actions": "1", "move": "3@3", "instance": "prb42959", "distance_to_goal": "NA", "progress": "NA", "move_number": "7", "optimal_length": "11", "subject": "A289D98Z4GAZ28:3ZV9H2YQQEFR2R3JK2IXZUJPXAF3WW"}
{"meta_move": "drag_end", "rt": "873.0", "trial_number": "1", "pre_actions": "1", "move": "0@2", "instance": "prb42959", "distance_to_goal": "NA", "progress": "NA", "move_number": "8", "optimal_length": "11", "subject": "A289D98Z4GAZ28:3ZV9H2YQQEFR2R3JK2IXZUJPXAF3WW"}
{"meta_move": "win", "rt": "704.0", "trial_number": "1", "pre_actions": "1", "move": "r@12", "instance": "prb42959", "distance_to_goal": "1", "progress": "NA", "move_number": "9", "optimal_length": "11", "subject": "A289D98Z4GAZ28:3ZV9H2YQQEFR2R3JK2IXZUJPXAF3WW"}
{"meta_move": "drag_end", "rt": "303.0", "trial_number": "0", "pre_actions": "0", "move": "r@16", "instance": "prb42959", "distance_to_goal": "NA", "progress": "NA", "move_number": "9", "optimal_length": "11", "subject": "A289D98Z4GAZ28:3ZV9H2YQQEFR2R3JK2IXZUJPXAF3WW"}
{"meta_move": "drag_end", "rt": "5582.0", "trial_number": "1", "pre_actions": "1", "move": "2@17", "instance": "prb42959", "distance_to_goal": "NA", "progress": "NA", "move_number": "0", "optimal_length": "11", "subject": "A2EPBSY0VPI38S:37WLF8U1WQYZ4AWKEQXSIM1ELVEK6W"}
{"meta_move": "drag_end", "rt": "2230.0", "trial_number": "1", "pre_actions": "1", "move": "0@26", "instance": "prb42959", "distance_to_goal": "NA", "progress": "NA", "move_number": "1", "optimal_length": "11", "subject": "A2EPBSY0VPI38S:37WLF8U1WQYZ4AWKEQXSIM1ELVEK6W"}
{"meta_move": "drag_end", "rt": "1944.0", "trial_number": "1", "pre_actions": "1", "move": "7@19", "instance": "prb42959", "distance_to_goal": "NA", "progress": "NA", "move_number": "2", "optimal_length": "11", "subject": "A2EPBSY0VPI38S:37WLF8U1WQYZ4AWKEQXSIM1ELVEK6W"}
{"meta_move": "drag_end", "rt": "1900.0", "trial_number": "1", "pre_actions": "1", "move": "7@18", "instance": "prb42959", "distance_to_goal": "NA", "progress": "NA", "move_number": "3", "optimal_length": "11", "subject": "A2EPBSY0VPI38S:37WLF8U1WQYZ4AWKEQXSIM1ELVEK6W"}
{"meta_move": "drag_end", "rt": "1310.0", "trial_number": "1", "pre_actions": "1", "move": "5@20", "instance": "prb42959", "distance_to_goal": "NA", "progress": "NA", "move_number": "4", "optimal_length": "11", "subject": "A2EPBSY0VPI38S:37WLF8U1WQYZ4AWKEQXSIM1ELVEK6W"}
{"meta_move": "drag_end", "rt": "1071.0", "trial_number": "1", "pre_actions": "1", "move": "3@0", "instance": "prb42959", "distance_to_goal": "NA", "progress": "NA", "move_number": "5", "optimal_length": "11", "subject": "A2EPBSY0VPI38S:37WLF8U1WQYZ4AWKEQXSIM1ELVEK6W"}
{"meta_move": "drag_end", "rt": "1983.0", "trial_number": "1", "pre_actions": "1", "move": "6@4", "instance": "prb42959", "distance_to_goal": "NA", "progress": "NA", "move_number": "6", "optimal_length": "11", "subject": "A2EPBSY0VPI38S:37WLF8U1WQYZ4AWKEQXSIM1ELVEK6W"}
{"meta_move": "drag_end", "rt": "3642.0", "trial_number": "1", "pre_actions": "1", "move": "7@18", "instance": "prb42959", "distance_to_goal": "NA", "progress": "NA", "move_number": "6", "optimal_length": "11", "subject": "A2EPBSY0VPI38S:37WLF8U1WQYZ4AWKEQXSIM1ELVEK6W"}
{"meta_move": "drag_end", "rt": "735.0", "trial_number": "1", "pre_actions": "1", "move": "5@21", "instance": "prb42959", "distance_to_goal": "NA", "progress": "NA", "move_number": "6", "optimal_length": "11", "subject": "A2EPBSY0VPI38S:37WLF8U1WQYZ4AWKEQXSIM1ELVEK6W"}
{"meta_move": "drag_end", "rt": "1055.0", "trial_number": "1", "pre_actions": "1", "move": "7@19", "instance": "prb42959", "distance_to_goal": "NA", "progress": "NA", "move_number": "7", "optimal_length": "11", "subject": "A2EPBSY0VPI38S:37WLF8U1WQYZ4AWKEQXSIM1ELVEK6W"}
{"meta_move": "drag_end", "rt": "1363.0", "trial_number": "1", "pre_actions": "1", "move": "4@24", "instance": "prb42959", "distance_to_goal": "NA", "progress": "NA", "move_number": "8", "optimal_length": "11", "subject": "A2EPBSY0VPI38S:37WLF8U1WQYZ4AWKEQXSIM1ELVEK6W"}
{"meta_move": "drag_end", "rt": "1480.0", "trial_number": "1", "pre_actions": "1", "move": "7@18", "instance": "prb42959", "distance_to_goal": "NA", "progress": "NA", "move_number": "9", "optimal_length": "11", "subject": "A2EPBSY0VPI38S:37WLF8U1WQYZ4AWKEQXSIM1ELVEK6W"}
{"meta_move": "drag_end", "rt": "702.0", "trial_number": "1", "pre_actions": "1", "move": "r@13", "instance": "prb42959", "distance_to_goal": "NA", "progress": "NA", "move_number": "10", "optimal_length": "11", "subject": "A2EPBSY0VPI38S:37WLF8U1WQYZ4AWKEQXSIM1ELVEK6W"}
{"meta_move": "drag_end", "rt": "1776.0", "trial_number": "1", "pre_actions": "1", "move": "r@12", "instance": "prb42959", "distance_to_goal": "NA", "progress": "NA", "move_number": "11", "optimal_length": "11", "subject": "A2EPBSY0VPI38S:37WLF8U1WQYZ4AWKEQXSIM1ELVEK6W"}
{"meta_move": "drag_end", "rt": "2183.0", "trial_number": "1", "pre_actions": "1", "move": "3@1", "instance": "prb42959", "distance_to_goal": "NA", "progress": "NA", "move_number": "12", "optimal_length": "11", "subject": "A2EPBSY0VPI38S:37WLF8U1WQYZ4AWKEQXSIM1ELVEK6W"}
{"meta_move": "drag_end", "rt": "1185.0", "trial_number": "1", "pre_actions": "1", "move": "3@0", "instance": "prb42959", "distance_to_goal": "NA", "progress": "NA", "move_number": "13", "optimal_length": "11", "subject": "A2EPBSY0VPI38S:37WLF8U1WQYZ4AWKEQXSIM1ELVEK6W"}
{"meta_move": "drag_end", "rt": "2392.0", "trial_number": "1", "pre_actions": "1", "move": "5@20", "instance": "prb42959", "distance_to_goal": "NA", "progress": "NA", "move_number": "14", "optimal_length": "11", "subject": "A2EPBSY0VPI38S:37WLF8U1WQYZ4AWKEQXSIM1ELVEK6W"}
{"meta_move": "drag_end", "rt": "1026.0", "trial_number": "1", "pre_actions": "1", "move": "6@10", "instance": "prb42959", "distance_to_goal": "NA", "progress": "NA", "move_number": "15", "optimal_length": "11", "subject": "A2EPBSY0VPI38S:37WLF8U1WQYZ4AWKEQXSIM1ELVEK6W"}
{"meta_move": "drag_end", "rt": "3814.0", "trial_number": "1", "pre_actions": "1", "move": "2@5", "instance": "prb42959", "distance_to_goal": "NA", "progress": "NA", "move_number": "16", "optimal_length": "11", "subject": "A2EPBSY0VPI38S:37WLF8U1WQYZ4AWKEQXSIM1ELVEK6W"}
{"meta_move": "drag_end", "rt": "2100.0", "trial_number": "1", "pre_actions": "1", "move": "6@4", "instance": "prb42959", "distance_to_goal": "NA", "progress": "NA", "move_number": "17", "optimal_length": "11", "subject": "A2EPBSY0VPI38S:37WLF8U1WQYZ4AWKEQXSIM1ELVEK6W"}
{"meta_move": "drag_end", "rt": "1909.0", "trial_number": "1", "pre_actions": "1", "move": "5@22", "instance": "prb42959", "distance_to_goal": "NA", "progress": "NA", "move_number": "18", "optimal_length": "11", "subject": "A2EPBSY0VPI38S:37WLF8U1WQYZ4AWKEQXSIM1ELVEK6W"}
{"meta_move": "drag_end", "rt": "3104.0", "trial_number": "1", "pre_actions": "1", "move": "3@1", "instance": "prb42959", "distance_to_goal": "NA", "progress": "NA", "move_number": "19", "optimal_length": "11", "subject": "A2EPBSY0VPI38S:37WLF8U1WQYZ4AWKEQXSIM1ELVEK6W"}
{"meta_move": "drag_end", "rt": "1263.0", "trial_number": "1", "pre_actions": "1", "move": "0@8", "instance": "prb42959", "distance_to_goal": "NA", "progress": "NA", "move_number": "20", "optimal_length": "11", "subject": "A2EPBSY0VPI38S:37WLF8U1WQYZ4AWKEQXSIM1ELVEK6W"}
{"meta_move": "drag_end", "rt": "2003.0", "trial_number": "1", "pre_actions": "1", "move": "1@25", "instance": "prb42959", "distance_to_goal": "NA", "progress": "NA", "move_number": "21", "optimal_length": "11", "subject": "A2EPBSY0VPI38S:37WLF8U1WQYZ4AWKEQXSIM1ELVEK6W"}
{"meta_move": "drag_end", "rt": "1222.0", "trial_number": "1", "pre_actions": "1", "move": "5@20", "instance": "prb42959", "distance_to_goal": "NA", "progress": "NA", "move_number": "22", "optimal_length": "11", "subject": "A2EPBSY0VPI38S:37WLF8U1WQYZ4AWKEQXSIM1ELVEK6W"}
{"meta_move": "drag_end", "rt": "1183.0", "trial_number": "1", "pre_actions": "1", "move": "6@22", "instance": "prb42959", "distance_to_goal": "NA", "progress": "NA", "move_number": "23", "optimal_length": "11", "subject": "A2EPBSY0VPI38S:37WLF8U1WQYZ4AWKEQXSIM1ELVEK6W"}
{"meta_move": "drag_end", "rt": "1216.0", "trial_number": "1", "pre_actions": "1", "move": "3@2", "instance": "prb42959", "distance_to_goal": "NA", "progress": "NA", "move_number": "24", "optimal_length": "11", "subject": "A2EPBSY0VPI38S:37WLF8U1WQYZ4AWKEQXSIM1ELVEK6W"}
{"meta_move": "drag_end", "rt": "1449.0", "trial_number": "1", "pre_actions": "1", "move": "2@29", "instance": "prb42959", "distance_to_goal": "NA", "progress": "NA", "move_number": "25", "optimal_length": "11", "subject": "A2EPBSY0VPI38S:37WLF8U1WQYZ4AWKEQXSIM1ELVEK6W"}
{"meta_move": "drag_end", "rt": "1735.0", "trial_number": "1", "pre_actions": "1", "move": "3@3", "instance": "prb42959", "distance_to_goal": "NA", "progress": "NA", "move_number": "26", "optimal_length": "11", "subject": "A2EPBSY0VPI38S:37WLF8U1WQYZ4AWKEQXSIM1ELVEK6W"}
{"meta_move": "drag_end", "rt": "2544.0", "trial_number": "1", "pre_actions": "1", "move": "0@2", "instance": "prb42959", "distance_to_goal": "NA", "progress": "NA", "move_number": "27", "optimal_length": "11", "subject": "A2EPBSY0VPI38S:37WLF8U1WQYZ4AWKEQXSIM1ELVEK6W"}
{"meta_move": "win", "rt": "1386.0", "trial_number": "1", "pre_actions": "1", "move": "r@12", "instance": "prb42959", "distance_to_goal": "1", "progress": "NA", "move_number": "28", "optimal_length": "11", "subject": "A2EPBSY0VPI38S:37WLF8U1WQYZ4AWKEQXSIM1ELVEK6W"}
{"meta_move": "drag_end", "rt": "238.0", "trial_number": "0", "pre_actions": "0", "move": "r@16", "instance": "prb42959", "distance_to_goal": "NA", "progress": "NA", "move_number": "28", "optimal_length": "11", "subject": "A2EPBSY0VPI38S:37WLF8U1WQYZ4AWKEQXSIM1ELVEK6W"}
{"meta_move": "drag_end", "rt": "4226.0", "trial_number": "1", "pre_actions": "1", "move": "3@0", "instance": "prb42959", "distance_to_goal": "NA", "progress": "NA", "move_number": "0", "optimal_length": "11", "subject": "A2IBQA01NR5N76:3X4MXAO0BHWJLTOLVSJTHSM54OHWRG"}
{"meta_move": "drag_end", "rt": "1420.0", "trial_number": "1", "pre_actions": "1", "move": "2@5", "instance": "prb42959", "distance_to_goal": "NA", "progress": "NA", "move_number": "1", "optimal_length": "11", "subject": "A2IBQA01NR5N76:3X4MXAO0BHWJLTOLVSJTHSM54OHWRG"}
{"meta_move": "drag_end", "rt": "1708.0", "trial_number": "1", "pre_actions": "1", "move": "5@22", "instance": "prb42959", "distance_to_goal": "NA", "progress": "NA", "move_number": "2", "optimal_length": "11", "subject": "A2IBQA01NR5N76:3X4MXAO0BHWJLTOLVSJTHSM54OHWRG"}
{"meta_move": "drag_end", "rt": "895.0", "trial_number": "1", "pre_actions": "1", "move": "0@26", "instance": "prb42959", "distance_to_goal": "NA", "progress": "NA", "move_number": "3", "optimal_length": "11", "subject": "A2IBQA01NR5N76:3X4MXAO0BHWJLTOLVSJTHSM54OHWRG"}
{"meta_move": "drag_end", "rt": "2003.0", "trial_number": "1", "pre_actions": "1", "move": "7@20", "instance": "prb42959", "distance_to_goal": "NA", "progress": "NA", "move_number": "4", "optimal_length": "11", "subject": "A2IBQA01NR5N76:3X4MXAO0BHWJLTOLVSJTHSM54OHWRG"}
{"meta_move": "drag_end", "rt": "878.0", "trial_number": "1", "pre_actions": "1", "move": "r@13", "instance": "prb42959", "distance_to_goal": "NA", "progress": "NA", "move_number": "5", "optimal_length": "11", "subject": "A2IBQA01NR5N76:3X4MXAO0BHWJLTOLVSJTHSM54OHWRG"}
{"meta_move": "drag_end", "rt": "917.0", "trial_number": "1", "pre_actions": "1", "move": "r@14", "instance": "prb42959", "distance_to_goal": "NA", "progress": "NA", "move_number": "6", "optimal_length": "11", "subject": "A2IBQA01NR5N76:3X4MXAO0BHWJLTOLVSJTHSM54OHWRG"}
{"meta_move": "drag_end", "rt": "2986.0", "trial_number": "1", "pre_actions": "1", "move": "7@18", "instance": "prb42959", "distance_to_goal": "NA", "progress": "NA", "move_number": "7", "optimal_length": "11", "subject": "A2IBQA01NR5N76:3X4MXAO0BHWJLTOLVSJTHSM54OHWRG"}
{"meta_move": "drag_end", "rt": "937.0", "trial_number": "1", "pre_actions": "1", "move": "5@20", "instance": "prb42959", "distance_to_goal": "NA", "progress": "NA", "move_number": "8", "optimal_length": "11", "subject": "A2IBQA01NR5N76:3X4MXAO0BHWJLTOLVSJTHSM54OHWRG"}
{"meta_move": "drag_end", "rt": "1162.0", "trial_number": "1", "pre_actions": "1", "move": "5@22", "instance": "prb42959", "distance_to_goal": "NA", "progress": "NA", "move_number": "9", "optimal_length": "11", "subject": "A2IBQA01NR5N76:3X4MXAO0BHWJLTOLVSJTHSM54OHWRG"}
{"meta_move": "drag_end", "rt": "946.0", "trial_number": "1", "pre_actions": "1", "move": "0@20", "instance": "prb42959", "distance_to_goal": "NA", "progress": "NA", "move_number": "10", "optimal_length": "11", "subject": "A2IBQA01NR5N76:3X4MXAO0BHWJLTOLVSJTHSM54OHWRG"}
{"meta_move": "drag_end", "rt": "1413.0", "trial_number": "1", "pre_actions": "1", "move": "r@13", "instance": "prb42959", "distance_to_goal": "NA", "progress": "NA", "move_number": "11", "optimal_length": "11", "subject": "A2IBQA01NR5N76:3X4MXAO0BHWJLTOLVSJTHSM54OHWRG"}
{"meta_move": "drag_end", "rt": "1270.0", "trial_number": "1", "pre_actions": "1", "move": "r@14", "instance": "prb42959", "distance_to_goal": "NA", "progress": "NA", "move_number": "12", "optimal_length": "11", "subject": "A2IBQA01NR5N76:3X4MXAO0BHWJLTOLVSJTHSM54OHWRG"}
{"meta_move": "drag_end", "rt": "1217.0", "trial_number": "1", "pre_actions": "1", "move": "0@26", "instance": "prb42959", "distance_to_goal": "NA", "progress": "NA", "move_number": "13", "optimal_length": "11", "subject": "A2IBQA01NR5N76:3X4MXAO0BHWJLTOLVSJTHSM54OHWRG"}
{"meta_move": "drag_end", "rt": "786.0", "trial_number": "1", "pre_actions": "1", "move": "7@20", "instance": "prb42959", "distance_to_goal": "NA", "progress": "NA", "move_number": "14", "optimal_length": "11", "subject": "A2IBQA01NR5N76:3X4MXAO0BHWJLTOLVSJTHSM54OHWRG"}
{"meta_move": "drag_end", "rt": "785.0", "trial_number": "1", "pre_actions": "1", "move": "4@24", "instance": "prb42959", "distance_to_goal": "NA", "progress": "NA", "move_number": "15", "optimal_length": "11", "subject": "A2IBQA01NR5N76:3X4MXAO0BHWJLTOLVSJTHSM54OHWRG"}
{"meta_move": "drag_end", "rt": "756.0", "trial_number": "1", "pre_actions": "1", "move": "r@12", "instance": "prb42959", "distance_to_goal": "NA", "progress": "NA", "move_number": "16", "optimal_length": "11", "subject": "A2IBQA01NR5N76:3X4MXAO0BHWJLTOLVSJTHSM54OHWRG"}
{"meta_move": "drag_end", "rt": "660.0", "trial_number": "1", "pre_actions": "1", "move": "7@18", "instance": "prb42959", "distance_to_goal": "NA", "progress": "NA", "move_number": "17", "optimal_length": "11", "subject": "A2IBQA01NR5N76:3X4MXAO0BHWJLTOLVSJTHSM54OHWRG"}
{"meta_move": "drag_end", "rt": "981.0", "trial_number": "1", "pre_actions": "1", "move": "0@8", "instance": "prb42959", "distance_to_goal": "NA", "progress": "NA", "move_number": "18", "optimal_length": "11", "subject": "A2IBQA01NR5N76:3X4MXAO0BHWJLTOLVSJTHSM54OHWRG"}
{"meta_move": "drag_end", "rt": "1611.0", "trial_number": "1", "pre_actions": "1", "move": "0@14", "instance": "prb42959", "distance_to_goal": "NA", "progress": "NA", "move_number": "19", "optimal_length": "11", "subject": "A2IBQA01NR5N76:3X4MXAO0BHWJLTOLVSJTHSM54OHWRG"}
{"meta_move": "drag_end", "rt": "1271.0", "trial_number": "1", "pre_actions": "1", "move": "0@8", "instance": "prb42959", "distance_to_goal": "NA", "progress": "NA", "move_number": "20", "optimal_length": "11", "subject": "A2IBQA01NR5N76:3X4MXAO0BHWJLTOLVSJTHSM54OHWRG"}
{"meta_move": "drag_end", "rt": "1218.0", "trial_number": "1", "pre_actions": "1", "move": "7@20", "instance": "prb42959", "distance_to_goal": "NA", "progress": "NA", "move_number": "21", "optimal_length": "11", "subject": "A2IBQA01NR5N76:3X4MXAO0BHWJLTOLVSJTHSM54OHWRG"}
{"meta_move": "drag_end", "rt": "966.0", "trial_number": "1", "pre_actions": "1", "move": "4@18", "instance": "prb42959", "distance_to_goal": "NA", "progress": "NA", "move_number": "22", "optimal_length": "11", "subject": "A2IBQA01NR5N76:3X4MXAO0BHWJLTOLVSJTHSM54OHWRG"}
{"meta_move": "drag_end", "rt": "757.0", "trial_number": "1", "pre_actions": "1", "move": "4@24", "instance": "prb42959", "distance_to_goal": "NA", "progress": "NA", "move_number": "23", "optimal_length": "11", "subject": "A2IBQA01NR5N76:3X4MXAO0BHWJLTOLVSJTHSM54OHWRG"}
{"meta_move": "drag_end", "rt": "1385.0", "trial_number": "1", "pre_actions": "1", "move": "7@18", "instance": "prb42959", "distance_to_goal": "NA", "progress": "NA", "move_number": "24", "optimal_length": "11", "subject": "A2IBQA01NR5N76:3X4MXAO0BHWJLTOLVSJTHSM54OHWRG"}
{"meta_move": "drag_end", "rt": "917.0", "trial_number": "1", "pre_actions": "1", "move": "1@25", "instance": "prb42959", "distance_to_goal": "NA", "progress": "NA", "move_number": "25", "optimal_length": "11", "subject": "A2IBQA01NR5N76:3X4MXAO0BHWJLTOLVSJTHSM54OHWRG"}
{"meta_move": "drag_end", "rt": "1273.0", "trial_number": "1", "pre_actions": "1", "move": "5@20", "instance": "prb42959", "distance_to_goal": "NA", "progress": "NA", "move_number": "26", "optimal_length": "11", "subject": "A2IBQA01NR5N76:3X4MXAO0BHWJLTOLVSJTHSM54OHWRG"}
{"meta_move": "drag_end", "rt": "825.0", "trial_number": "1", "pre_actions": "1", "move": "6@22", "instance": "prb42959", "distance_to_goal": "NA", "progress": "NA", "move_number": "27", "optimal_length": "11", "subject": "A2IBQA01NR5N76:3X4MXAO0BHWJLTOLVSJTHSM54OHWRG"}
{"meta_move": "drag_end", "rt": "1918.0", "trial_number": "1", "pre_actions": "1", "move": "3@2", "instance": "prb42959", "distance_to_goal": "NA", "progress": "NA", "move_number": "28", "optimal_length": "11", "subject": "A2IBQA01NR5N76:3X4MXAO0BHWJLTOLVSJTHSM54OHWRG"}
{"meta_move": "drag_end", "rt": "590.0", "trial_number": "1", "pre_actions": "1", "move": "3@0", "instance": "prb42959", "distance_to_goal": "NA", "progress": "NA", "move_number": "29", "optimal_length": "11", "subject": "A2IBQA01NR5N76:3X4MXAO0BHWJLTOLVSJTHSM54OHWRG"}
{"meta_move": "drag_end", "rt": "876.0", "trial_number": "1", "pre_actions": "1", "move": "2@29", "instance": "prb42959", "distance_to_goal": "NA", "progress": "NA", "move_number": "30", "optimal_length": "11", "subject": "A2IBQA01NR5N76:3X4MXAO0BHWJLTOLVSJTHSM54OHWRG"}
{"meta_move": "drag_end", "rt": "834.0", "trial_number": "1", "pre_actions": "1", "move": "3@3", "instance": "prb42959", "distance_to_goal": "NA", "progress": "NA", "move_number": "31", "optimal_length": "11", "subject": "A2IBQA01NR5N76:3X4MXAO0BHWJLTOLVSJTHSM54OHWRG"}
{"meta_move": "drag_end", "rt": "734.0", "trial_number": "1", "pre_actions": "1", "move": "0@2", "instance": "prb42959", "distance_to_goal": "NA", "progress": "NA", "move_number": "32", "optimal_length": "11", "subject": "A2IBQA01NR5N76:3X4MXAO0BHWJLTOLVSJTHSM54OHWRG"}
{"meta_move": "win", "rt": "752.0", "trial_number": "1", "pre_actions": "1", "move": "r@12", "instance": "prb42959", "distance_to_goal": "1", "progress": "NA", "move_number": "33", "optimal_length": "11", "subject": "A2IBQA01NR5N76:3X4MXAO0BHWJLTOLVSJTHSM54OHWRG"}
{"meta_move": "drag_end", "rt": "1031.0", "trial_number": "0", "pre_actions": "0", "move": "r@16", "instance": "prb42959", "distance_to_goal": "NA", "progress": "NA", "move_number": "33", "optimal_length": "11", "subject": "A2IBQA01NR5N76:3X4MXAO0BHWJLTOLVSJTHSM54OHWRG"}
{"meta_move": "drag_end", "rt": "4138.0", "trial_number": "1", "pre_actions": "1", "move": "4@0", "instance": "prb42959", "distance_to_goal": "NA", "progress": "NA", "move_number": "0", "optimal_length": "11", "subject": "A2TQNX64349OZ9:3WSELTNVR4AZUVYAYCSWZIQW0J4ATB"}
{"meta_move": "drag_end", "rt": "1179.0", "trial_number": "1", "pre_actions": "1", "move": "7@18", "instance": "prb42959", "distance_to_goal": "NA", "progress": "NA", "move_number": "1", "optimal_length": "11", "subject": "A2TQNX64349OZ9:3WSELTNVR4AZUVYAYCSWZIQW0J4ATB"}
{"meta_move": "drag_end", "rt": "1049.0", "trial_number": "1", "pre_actions": "1", "move": "r@12", "instance": "prb42959", "distance_to_goal": "NA", "progress": "NA", "move_number": "1", "optimal_length": "11", "subject": "A2TQNX64349OZ9:3WSELTNVR4AZUVYAYCSWZIQW0J4ATB"}
{"meta_move": "drag_end", "rt": "2474.0", "trial_number": "1", "pre_actions": "1", "move": "0@8", "instance": "prb42959", "distance_to_goal": "NA", "progress": "NA", "move_number": "2", "optimal_length": "11", "subject": "A2TQNX64349OZ9:3WSELTNVR4AZUVYAYCSWZIQW0J4ATB"}
{"meta_move": "drag_end", "rt": "1044.0", "trial_number": "1", "pre_actions": "1", "move": "5@20", "instance": "prb42959", "distance_to_goal": "NA", "progress": "NA", "move_number": "3", "optimal_length": "11", "subject": "A2TQNX64349OZ9:3WSELTNVR4AZUVYAYCSWZIQW0J4ATB"}
{"meta_move": "drag_end", "rt": "746.0", "trial_number": "1", "pre_actions": "1", "move": "1@24", "instance": "prb42959", "distance_to_goal": "NA", "progress": "NA", "move_number": "4", "optimal_length": "11", "subject": "A2TQNX64349OZ9:3WSELTNVR4AZUVYAYCSWZIQW0J4ATB"}
{"meta_move": "drag_end", "rt": "1555.0", "trial_number": "1", "pre_actions": "1", "move": "2@29", "instance": "prb42959", "distance_to_goal": "NA", "progress": "NA", "move_number": "5", "optimal_length": "11", "subject": "A2TQNX64349OZ9:3WSELTNVR4AZUVYAYCSWZIQW0J4ATB"}
{"meta_move": "drag_end", "rt": "1470.0", "trial_number": "1", "pre_actions": "1", "move": "5@22", "instance": "prb42959", "distance_to_goal": "NA", "progress": "NA", "move_number": "6", "optimal_length": "11", "subject": "A2TQNX64349OZ9:3WSELTNVR4AZUVYAYCSWZIQW0J4ATB"}
{"meta_move": "drag_end", "rt": "2393.0", "trial_number": "1", "pre_actions": "1", "move": "5@20", "instance": "prb42959", "distance_to_goal": "NA", "progress": "NA", "move_number": "7", "optimal_length": "11", "subject": "A2TQNX64349OZ9:3WSELTNVR4AZUVYAYCSWZIQW0J4ATB"}
{"meta_move": "drag_end", "rt": "1303.0", "trial_number": "1", "pre_actions": "1", "move": "6@22", "instance": "prb42959", "distance_to_goal": "NA", "progress": "NA", "move_number": "8", "optimal_length": "11", "subject": "A2TQNX64349OZ9:3WSELTNVR4AZUVYAYCSWZIQW0J4ATB"}
{"meta_move": "drag_end", "rt": "1332.0", "trial_number": "1", "pre_actions": "1", "move": "3@3", "instance": "prb42959", "distance_to_goal": "NA", "progress": "NA", "move_number": "9", "optimal_length": "11", "subject": "A2TQNX64349OZ9:3WSELTNVR4AZUVYAYCSWZIQW0J4ATB"}
{"meta_move": "drag_end", "rt": "873.0", "trial_number": "1", "pre_actions": "1", "move": "0@2", "instance": "prb42959", "distance_to_goal": "NA", "progress": "NA", "move_number": "10", "optimal_length": "11", "subject": "A2TQNX64349OZ9:3WSELTNVR4AZUVYAYCSWZIQW0J4ATB"}
{"meta_move": "win", "rt": "704.0", "trial_number": "1", "pre_actions": "1", "move": "r@12", "instance": "prb42959", "distance_to_goal": "1", "progress": "NA", "move_number": "11", "optimal_length": "11", "subject": "A2TQNX64349OZ9:3WSELTNVR4AZUVYAYCSWZIQW0J4ATB"}
{"meta_move": "drag_end", "rt": "91.0", "trial_number": "0", "pre_actions": "0", "move": "r@16", "instance": "prb42959", "distance_to_goal": "NA", "progress": "NA", "move_number": "11", "optimal_length": "11", "subject": "A2TQNX64349OZ9:3WSELTNVR4AZUVYAYCSWZIQW0J4ATB"}
{"meta_move": "drag_end", "rt": "2725.0", "trial_number": "1", "pre_actions": "1", "move": "4@0", "instance": "prb42959", "distance_to_goal": "NA", "progress": "NA", "move_number": "0", "optimal_length": "11", "subject": "A3NMQ3019X6YE0:3I2PTA7R3U2SESF4TZBQORI5LSJQKK"}
{"meta_move": "drag_end", "rt": "2167.0", "trial_number": "1", "pre_actions": "1", "move": "0@26", "instance": "prb42959", "distance_to_goal": "NA", "progress": "NA", "move_number": "1", "optimal_length": "11", "subject": "A3NMQ3019X6YE0:3I2PTA7R3U2SESF4TZBQORI5LSJQKK"}
{"meta_move": "drag_end", "rt": "1600.0", "trial_number": "1", "pre_actions": "1", "move": "0@20", "instance": "prb42959", "distance_to_goal": "NA", "progress": "NA", "move_number": "2", "optimal_length": "11", "subject": "A3NMQ3019X6YE0:3I2PTA7R3U2SESF4TZBQORI5LSJQKK"}
{"meta_move": "drag_end", "rt": "2369.0", "trial_number": "1", "pre_actions": "1", "move": "2@5", "instance": "prb42959", "distance_to_goal": "NA", "progress": "NA", "move_number": "3", "optimal_length": "11", "subject": "A3NMQ3019X6YE0:3I2PTA7R3U2SESF4TZBQORI5LSJQKK"}
{"meta_move": "drag_end", "rt": "3551.0", "trial_number": "1", "pre_actions": "1", "move": "0@26", "instance": "prb42959", "distance_to_goal": "NA", "progress": "NA", "move_number": "4", "optimal_length": "11", "subject": "A3NMQ3019X6YE0:3I2PTA7R3U2SESF4TZBQORI5LSJQKK"}
{"meta_move": "drag_end", "rt": "3128.0", "trial_number": "1", "pre_actions": "1", "move": "r@13", "instance": "prb42959", "distance_to_goal": "NA", "progress": "NA", "move_number": "5", "optimal_length": "11", "subject": "A3NMQ3019X6YE0:3I2PTA7R3U2SESF4TZBQORI5LSJQKK"}
{"meta_move": "drag_end", "rt": "1288.0", "trial_number": "1", "pre_actions": "1", "move": "5@22", "instance": "prb42959", "distance_to_goal": "NA", "progress": "NA", "move_number": "6", "optimal_length": "11", "subject": "A3NMQ3019X6YE0:3I2PTA7R3U2SESF4TZBQORI5LSJQKK"}
{"meta_move": "drag_end", "rt": "3665.0", "trial_number": "1", "pre_actions": "1", "move": "7@20", "instance": "prb42959", "distance_to_goal": "NA", "progress": "NA", "move_number": "7", "optimal_length": "11", "subject": "A3NMQ3019X6YE0:3I2PTA7R3U2SESF4TZBQORI5LSJQKK"}
{"meta_move": "drag_end", "rt": "999.0", "trial_number": "1", "pre_actions": "1", "move": "4@24", "instance": "prb42959", "distance_to_goal": "NA", "progress": "NA", "move_number": "8", "optimal_length": "11", "subject": "A3NMQ3019X6YE0:3I2PTA7R3U2SESF4TZBQORI5LSJQKK"}
{"meta_move": "drag_end", "rt": "1159.0", "trial_number": "1", "pre_actions": "1", "move": "3@0", "instance": "prb42959", "distance_to_goal": "NA", "progress": "NA", "move_number": "9", "optimal_length": "11", "subject": "A3NMQ3019X6YE0:3I2PTA7R3U2SESF4TZBQORI5LSJQKK"}
{"meta_move": "drag_end", "rt": "2625.0", "trial_number": "1", "pre_actions": "1", "move": "r@12", "instance": "prb42959", "distance_to_goal": "NA", "progress": "NA", "move_number": "10", "optimal_length": "11", "subject": "A3NMQ3019X6YE0:3I2PTA7R3U2SESF4TZBQORI5LSJQKK"}
{"meta_move": "drag_end", "rt": "1432.0", "trial_number": "1", "pre_actions": "1", "move": "7@18", "instance": "prb42959", "distance_to_goal": "NA", "progress": "NA", "move_number": "11", "optimal_length": "11", "subject": "A3NMQ3019X6YE0:3I2PTA7R3U2SESF4TZBQORI5LSJQKK"}
{"meta_move": "drag_end", "rt": "3887.0", "trial_number": "1", "pre_actions": "1", "move": "0@8", "instance": "prb42959", "distance_to_goal": "NA", "progress": "NA", "move_number": "12", "optimal_length": "11", "subject": "A3NMQ3019X6YE0:3I2PTA7R3U2SESF4TZBQORI5LSJQKK"}
{"meta_move": "drag_end", "rt": "1929.0", "trial_number": "1", "pre_actions": "1", "move": "1@25", "instance": "prb42959", "distance_to_goal": "NA", "progress": "NA", "move_number": "13", "optimal_length": "11", "subject": "A3NMQ3019X6YE0:3I2PTA7R3U2SESF4TZBQORI5LSJQKK"}
{"meta_move": "drag_end", "rt": "2920.0", "trial_number": "1", "pre_actions": "1", "move": "5@20", "instance": "prb42959", "distance_to_goal": "NA", "progress": "NA", "move_number": "14", "optimal_length": "11", "subject": "A3NMQ3019X6YE0:3I2PTA7R3U2SESF4TZBQORI5LSJQKK"}
{"meta_move": "drag_end", "rt": "1185.0", "trial_number": "1", "pre_actions": "1", "move": "6@22", "instance": "prb42959", "distance_to_goal": "NA", "progress": "NA", "move_number": "15", "optimal_length": "11", "subject": "A3NMQ3019X6YE0:3I2PTA7R3U2SESF4TZBQORI5LSJQKK"}
{"meta_move": "drag_end", "rt": "4134.0", "trial_number": "1", "pre_actions": "1", "move": "3@2", "instance": "prb42959", "distance_to_goal": "NA", "progress": "NA", "move_number": "16", "optimal_length": "11", "subject": "A3NMQ3019X6YE0:3I2PTA7R3U2SESF4TZBQORI5LSJQKK"}
{"meta_move": "drag_end", "rt": "704.0", "trial_number": "1", "pre_actions": "1", "move": "2@29", "instance": "prb42959", "distance_to_goal": "NA", "progress": "NA", "move_number": "17", "optimal_length": "11", "subject": "A3NMQ3019X6YE0:3I2PTA7R3U2SESF4TZBQORI5LSJQKK"}
{"meta_move": "drag_end", "rt": "892.0", "trial_number": "1", "pre_actions": "1", "move": "3@3", "instance": "prb42959", "distance_to_goal": "NA", "progress": "NA", "move_number": "18", "optimal_length": "11", "subject": "A3NMQ3019X6YE0:3I2PTA7R3U2SESF4TZBQORI5LSJQKK"}
{"meta_move": "drag_end", "rt": "1025.0", "trial_number": "1", "pre_actions": "1", "move": "0@2", "instance": "prb42959", "distance_to_goal": "NA", "progress": "NA", "move_number": "19", "optimal_length": "11", "subject": "A3NMQ3019X6YE0:3I2PTA7R3U2SESF4TZBQORI5LSJQKK"}
{"meta_move": "win", "rt": "1388.0", "trial_number": "1", "pre_actions": "1", "move": "r@12", "instance": "prb42959", "distance_to_goal": "1", "progress": "NA", "move_number": "20", "optimal_length": "11", "subject": "A3NMQ3019X6YE0:3I2PTA7R3U2SESF4TZBQORI5LSJQKK"}
{"meta_move": "drag_end", "rt": "81.0", "trial_number": "0", "pre_actions": "0", "move": "r@16", "instance": "prb42959", "distance_to_goal": "NA", "progress": "NA", "move_number": "20", "optimal_length": "11", "subject": "A3NMQ3019X6YE0:3I2PTA7R3U2SESF4TZBQORI5LSJQKK"}
{"meta_move": "drag_end", "rt": "4587.0", "trial_number": "1", "pre_actions": "1", "move": "4@0", "instance": "prb42959", "distance_to_goal": "NA", "progress": "NA", "move_number": "0", "optimal_length": "11", "subject": "A3Q0XAGQ7TD7MP:3X87C8JFV7JQ2BSCY8KSFD9F2ILSQK"}
{"meta_move": "drag_end", "rt": "2161.0", "trial_number": "1", "pre_actions": "1", "move": "5@22", "instance": "prb42959", "distance_to_goal": "NA", "progress": "NA", "move_number": "1", "optimal_length": "11", "subject": "A3Q0XAGQ7TD7MP:3X87C8JFV7JQ2BSCY8KSFD9F2ILSQK"}
{"meta_move": "drag_end", "rt": "1129.0", "trial_number": "1", "pre_actions": "1", "move": "0@26", "instance": "prb42959", "distance_to_goal": "NA", "progress": "NA", "move_number": "2", "optimal_length": "11", "subject": "A3Q0XAGQ7TD7MP:3X87C8JFV7JQ2BSCY8KSFD9F2ILSQK"}
{"meta_move": "drag_end", "rt": "1226.0", "trial_number": "1", "pre_actions": "1", "move": "r@12", "instance": "prb42959", "distance_to_goal": "NA", "progress": "NA", "move_number": "3", "optimal_length": "11", "subject": "A3Q0XAGQ7TD7MP:3X87C8JFV7JQ2BSCY8KSFD9F2ILSQK"}
