{"meta_move": "drag_end", "rt": "26034.0", "trial_number": "1", "pre_actions": "1", "move": "2@7", "instance": "prb717", "distance_to_goal": "NA", "progress": "NA", "move_number": "0", "optimal_length": "11", "subject": "A18QU0YQB6Q8DF:3VE8AYVF8N5BS2NU6U3TMN50JMNF8V"}
{"meta_move": "drag_end", "rt": "4301.0", "trial_number": "1", "pre_actions": "1", "move": "3@33", "instance": "prb717", "distance_to_goal": "NA", "progress": "NA", "move_number": "0", "optimal_length": "11", "subject": "A18QU0YQB6Q8DF:3VE8AYVF8N5BS2NU6U3TMN50JMNF8V"}
{"meta_move": "drag_end", "rt": "1168.0", "trial_number": "1", "pre_actions": "1", "move": "5@18", "instance": "prb717", "distance_to_goal": "NA", "progress": "NA", "move_number": "0", "optimal_length": "11", "subject": "A18QU0YQB6Q8DF:3VE8AYVF8N5BS2NU6U3TMN50JMNF8V"}
{"meta_move": "drag_end", "rt": "1741.0", "trial_number": "1", "pre_actions": "1", "move": "3@30", "instance": "prb717", "distance_to_goal": "NA", "progress": "NA", "move_number": "1", "optimal_length": "11", "subject": "A18QU0YQB6Q8DF:3VE8AYVF8N5BS2NU6U3TMN50JMNF8V"}
{"meta_move": "drag_end", "rt": "4543.0", "trial_number": "1", "pre_actions": "1", "move": "1@26", "instance": "prb717", "distance_to_goal": "NA", "progress": "NA", "move_number": "2", "optimal_length": "11", "subject": "A18QU0YQB6Q8DF:3VE8AYVF8N5BS2NU6U3TMN50JMNF8V"}
{"meta_move": "drag_end", "rt": "1689.0", "trial_number": "1", "pre_actions": "1", "move": "0@14", "instance": "prb717", "distance_to_goal": "NA", "progress": "NA", "move_number": "2", "optimal_length": "11", "subject": "A18QU0YQB6Q8DF:3VE8AYVF8N5BS2NU6U3TMN50JMNF8V"}
{"meta_move": "drag_end", "rt": "631.0", "trial_number": "1", "pre_actions": "1", "move": "0@14", "instance": "prb717", "distance_to_goal": "NA", "progress": "NA", "move_number": "2", "optimal_length": "11", "subject": "A18QU0YQB6Q8DF:3VE8AYVF8N5BS2NU6U3TMN50JMNF8V"}
{"meta_move": "drag_end", "rt": "2590.0", "trial_number": "1", "pre_actions": "1", "move": "6@10", "instance": "prb717", "distance_to_goal": "NA", "progress": "NA", "move_number": "2", "optimal_length": "11", "subject": "A18QU0YQB6Q8DF:3VE8AYVF8N5BS2NU6U3TMN50JMNF8V"}
{"meta_move": "drag_end", "rt": "2585.0", "trial_number": "1", "pre_actions": "1", "move": "7@4", "instance": "prb717", "distance_to_goal": "NA", "progress": "NA", "move_number": "2", "optimal_length": "11", "subject": "A18QU0YQB6Q8DF:3VE8AYVF8N5BS2NU6U3TMN50JMNF8V"}
{"meta_move": "drag_end", "rt": "1041.0", "trial_number": "1", "pre_actions": "1", "move": "2@7", "instance": "prb717", "distance_to_goal": "NA", "progress": "NA", "move_number": "3", "optimal_length": "11", "subject": "A18QU0YQB6Q8DF:3VE8AYVF8N5BS2NU6U3TMN50JMNF8V"}
{"meta_move": "drag_end", "rt": "2061.0", "trial_number": "1", "pre_actions": "1", "move": "2@6", "instance": "prb717", "distance_to_goal": "NA", "progress": "NA", "move_number": "3", "optimal_length": "11", "subject": "A18QU0YQB6Q8DF:3VE8AYVF8N5BS2NU6U3TMN50JMNF8V"}
{"meta_move": "drag_end", "rt": "3593.0", "trial_number": "1", "pre_actions": "1", "move": "5@18", "instance": "prb717", "distance_to_goal": "NA", "progress": "NA", "move_number": "4", "optimal_length": "11", "subject": "A18QU0YQB6Q8DF:3VE8AYVF8N5BS2NU6U3TMN50JMNF8V"}
{"meta_move": "drag_end", "rt": "1735.0", "trial_number": "1", "pre_actions": "1", "move": "3@34", "instance": "prb717", "distance_to_goal": "NA", "progress": "NA", "move_number": "4", "optimal_length": "11", "subject": "A18QU0YQB6Q8DF:3VE8AYVF8N5BS2NU6U3TMN50JMNF8V"}
{"meta_move": "drag_end", "rt": "1876.0", "trial_number": "1", "pre_actions": "1", "move": "1@26", "instance": "prb717", "distance_to_goal": "NA", "progress": "NA", "move_number": "5", "optimal_length": "11", "subject": "A18QU0YQB6Q8DF:3VE8AYVF8N5BS2NU6U3TMN50JMNF8V"}
{"meta_move": "drag_end", "rt": "1136.0", "trial_number": "1", "pre_actions": "1", "move": "1@25", "instance": "prb717", "distance_to_goal": "NA", "progress": "NA", "move_number": "5", "optimal_length": "11", "subject": "A18QU0YQB6Q8DF:3VE8AYVF8N5BS2NU6U3TMN50JMNF8V"}
{"meta_move": "drag_end", "rt": "2395.0", "trial_number": "1", "pre_actions": "1", "move": "0@14", "instance": "prb717", "distance_to_goal": "NA", "progress": "NA", "move_number": "6", "optimal_length": "11", "subject": "A18QU0YQB6Q8DF:3VE8AYVF8N5BS2NU6U3TMN50JMNF8V"}
{"meta_move": "drag_end", "rt": "14426.0", "trial_number": "2", "pre_actions": "1", "move": "6@10", "instance": "prb717", "distance_to_goal": "NA", "progress": "NA", "move_number": "0", "optimal_length": "11", "subject": "A18QU0YQB6Q8DF:3VE8AYVF8N5BS2NU6U3TMN50JMNF8V"}
{"meta_move": "drag_end", "rt": "1090.0", "trial_number": "2", "pre_actions": "1", "move": "4@23", "instance": "prb717", "distance_to_goal": "NA", "progress": "NA", "move_number": "0", "optimal_length": "11", "subject": "A18QU0YQB6Q8DF:3VE8AYVF8N5BS2NU6U3TMN50JMNF8V"}
{"meta_move": "drag_end", "rt": "1836.0", "trial_number": "2", "pre_actions": "1", "move": "6@10", "instance": "prb717", "distance_to_goal": "NA", "progress": "NA", "move_number": "1", "optimal_length": "11", "subject": "A18QU0YQB6Q8DF:3VE8AYVF8N5BS2NU6U3TMN50JMNF8V"}
{"meta_move": "drag_end", "rt": "729.0", "trial_number": "2", "pre_actions": "1", "move": "6@10", "instance": "prb717", "distance_to_goal": "NA", "progress": "NA", "move_number": "1", "optimal_length": "11", "subject": "A18QU0YQB6Q8DF:3VE8AYVF8N5BS2NU6U3TMN50JMNF8V"}
{"meta_move": "drag_end", "rt": "2264.0", "trial_number": "2", "pre_actions": "1", "move": "7@4", "instance": "prb717", "distance_to_goal": "NA", "progress": "NA", "move_number": "1", "optimal_length": "11", "subject": "A18QU0YQB6Q8DF:3VE8AYVF8N5BS2NU6U3TMN50JMNF8V"}
{"meta_move": "drag_end", "rt": "2964.0", "trial_number": "2", "pre_actions": "1", "move": "2@7", "instance": "prb717", "distance_to_goal": "NA", "progress": "NA", "move_number": "2", "optimal_length": "11", "subject": "A18QU0YQB6Q8DF:3VE8AYVF8N5BS2NU6U3TMN50JMNF8V"}
{"meta_move": "drag_end", "rt": "3521.0", "trial_number": "2", "pre_actions": "1", "move": "1@26", "instance": "prb717", "distance_to_goal": "NA", "progress": "NA", "move_number": "2", "optimal_length": "11", "subject": "A18QU0YQB6Q8DF:3VE8AYVF8N5BS2NU6U3TMN50JMNF8V"}
{"meta_move": "drag_end", "rt": "5812.0", "trial_number": "2", "pre_actions": "1", "move": "5@18", "instance": "prb717", "distance_to_goal": "NA", "progress": "NA", "move_number": "2", "optimal_length": "11", "subject": "A18QU0YQB6Q8DF:3VE8AYVF8N5BS2NU6U3TMN50JMNF8V"}
{"meta_move": "drag_end", "rt": "1569.0", "trial_number": "2", "pre_actions": "1", "move": "3@30", "instance": "prb717", "distance_to_goal": "NA", "progress": "NA", "move_number": "3", "optimal_length": "11", "subject": "A18QU0YQB6Q8DF:3VE8AYVF8N5BS2NU6U3TMN50JMNF8V"}
{"meta_move": "drag_end", "rt": "941.0", "trial_number": "2", "pre_actions": "1", "move": "1@26", "instance": "prb717", "distance_to_goal": "NA", "progress": "NA", "move_number": "4", "optimal_length": "11", "subject": "A18QU0YQB6Q8DF:3VE8AYVF8N5BS2NU6U3TMN50JMNF8V"}
{"meta_move": "drag_end", "rt": "1105.0", "trial_number": "2", "pre_actions": "1", "move": "1@25", "instance": "prb717", "distance_to_goal": "NA", "progress": "NA", "move_number": "4", "optimal_length": "11", "subject": "A18QU0YQB6Q8DF:3VE8AYVF8N5BS2NU6U3TMN50JMNF8V"}
{"meta_move": "drag_end", "rt": "4153.0", "trial_number": "2", "pre_actions": "1", "move": "6@10", "instance": "prb717", "distance_to_goal": "NA", "progress": "NA", "move_number": "5", "optimal_length": "11", "subject": "A18QU0YQB6Q8DF:3VE8AYVF8N5BS2NU6U3TMN50JMNF8V"}
{"meta_move": "drag_end", "rt": "1090.0", "trial_number": "2", "pre_actions": "1", "move": "2@6", "instance": "prb717", "distance_to_goal": "NA", "progress": "NA", "move_number": "5", "optimal_length": "11", "subject": "A18QU0YQB6Q8DF:3VE8AYVF8N5BS2NU6U3TMN50JMNF8V"}
{"meta_move": "drag_end", "rt": "4169.0", "trial_number": "2", "pre_actions": "1", "move": "1@26", "instance": "prb717", "distance_to_goal": "NA", "progress": "NA", "move_number": "6", "optimal_length": "11", "subject": "A18QU0YQB6Q8DF:3VE8AYVF8N5BS2NU6U3TMN50JMNF8V"}
{"meta_move": "drag_end", "rt": "2109.0", "trial_number": "2", "pre_actions": "1", "move": "3@33", "instance": "prb717", "distance_to_goal": "NA", "progress": "NA", "move_number": "7", "optimal_length": "11", "subject": "A18QU0YQB6Q8DF:3VE8AYVF8N5BS2NU6U3TMN50JMNF8V"}
{"meta_move": "drag_end", "rt": "9929.0", "trial_number": "3", "pre_actions": "1", "move": "1@26", "instance": "prb717", "distance_to_goal": "NA", "progress": "NA", "move_number": "0", "optimal_length": "11", "subject": "A18QU0YQB6Q8DF:3VE8AYVF8N5BS2NU6U3TMN50JMNF8V"}
{"meta_move": "drag_end", "rt": "2504.0", "trial_number": "3", "pre_actions": "1", "move": "0@14", "instance": "prb717", "distance_to_goal": "NA", "progress": "NA", "move_number": "0", "optimal_length": "11", "subject": "A18QU0YQB6Q8DF:3VE8AYVF8N5BS2NU6U3TMN50JMNF8V"}
{"meta_move": "drag_end", "rt": "5750.0", "trial_number": "3", "pre_actions": "1", "move": "4@17", "instance": "prb717", "distance_to_goal": "NA", "progress": "NA", "move_number": "0", "optimal_length": "11", "subject": "A18QU0YQB6Q8DF:3VE8AYVF8N5BS2NU6U3TMN50JMNF8V"}
{"meta_move": "drag_end", "rt": "2170.0", "trial_number": "3", "pre_actions": "1", "move": "6@10", "instance": "prb717", "distance_to_goal": "NA", "progress": "NA", "move_number": "0", "optimal_length": "11", "subject": "A18QU0YQB6Q8DF:3VE8AYVF8N5BS2NU6U3TMN50JMNF8V"}
{"meta_move": "drag_end", "rt": "3344.0", "trial_number": "3", "pre_actions": "1", "move": "1@26", "instance": "prb717", "distance_to_goal": "NA", "progress": "NA", "move_number": "0", "optimal_length": "11", "subject": "A18QU0YQB6Q8DF:3VE8AYVF8N5BS2NU6U3TMN50JMNF8V"}
{"meta_move": "drag_end", "rt": "1780.0", "trial_number": "3", "pre_actions": "1", "move": "5@18", "instance": "prb717", "distance_to_goal": "NA", "progress": "NA", "move_number": "0", "optimal_length": "11", "subject": "A18QU0YQB6Q8DF:3VE8AYVF8N5BS2NU6U3TMN50JMNF8V"}
{"meta_move": "drag_end", "rt": "2951.0", "trial_number": "3", "pre_actions": "1", "move": "5@18", "instance": "prb717", "distance_to_goal": "NA", "progress": "NA", "move_number": "1", "optimal_length": "11", "subject": "A18QU0YQB6Q8DF:3VE8AYVF8N5BS2NU6U3TMN50JMNF8V"}
{"meta_move": "drag_end", "rt": "971.0", "trial_number": "3", "pre_actions": "1", "move": "5@24", "instance": "prb717", "distance_to_goal": "NA", "progress": "NA", "move_number": "1", "optimal_length": "11", "subject": "A18QU0YQB6Q8DF:3VE8AYVF8N5BS2NU6U3TMN50JMNF8V"}
{"meta_move": "drag_end", "rt": "3422.0", "trial_number": "3", "pre_actions": "1", "move": "1@25", "instance": "prb717", "distance_to_goal": "NA", "progress": "NA", "move_number": "2", "optimal_length": "11", "subject": "A18QU0YQB6Q8DF:3VE8AYVF8N5BS2NU6U3TMN50JMNF8V"}
{"meta_move": "drag_end", "rt": "1089.0", "trial_number": "3", "pre_actions": "1", "move": "0@14", "instance": "prb717", "distance_to_goal": "NA", "progress": "NA", "move_number": "3", "optimal_length": "11", "subject": "A18QU0YQB6Q8DF:3VE8AYVF8N5BS2NU6U3TMN50JMNF8V"}
{"meta_move": "drag_end", "rt": "1680.0", "trial_number": "3", "pre_actions": "1", "move": "4@23", "instance": "prb717", "distance_to_goal": "NA", "progress": "NA", "move_number": "3", "optimal_length": "11", "subject": "A18QU0YQB6Q8DF:3VE8AYVF8N5BS2NU6U3TMN50JMNF8V"}
{"meta_move": "drag_end", "rt": "1478.0", "trial_number": "3", "pre_actions": "1", "move": "6@10", "instance": "prb717", "distance_to_goal": "NA", "progress": "NA", "move_number": "4", "optimal_length": "11", "subject": "A18QU0YQB6Q8DF:3VE8AYVF8N5BS2NU6U3TMN50JMNF8V"}
{"meta_move": "drag_end", "rt": "637.0", "trial_number": "3", "pre_actions": "1", "move": "6@10", "instance": "prb717", "distance_to_goal": "NA", "progress": "NA", "move_number": "4", "optimal_length": "11", "subject": "A18QU0YQB6Q8DF:3VE8AYVF8N5BS2NU6U3TMN50JMNF8V"}
{"meta_move": "drag_end", "rt": "1034.0", "trial_number": "3", "pre_actions": "1", "move": "2@6", "instance": "prb717", "distance_to_goal": "NA", "progress": "NA", "move_number": "4", "optimal_length": "11", "subject": "A18QU0YQB6Q8DF:3VE8AYVF8N5BS2NU6U3TMN50JMNF8V"}
{"meta_move": "drag_end", "rt": "1144.0", "trial_number": "3", "pre_actions": "1", "move": "r@12", "instance": "prb717", "distance_to_goal": "NA", "progress": "NA", "move_number": "5", "optimal_length": "11", "subject": "A18QU0YQB6Q8DF:3VE8AYVF8N5BS2NU6U3TMN50JMNF8V"}
{"meta_move": "drag_end", "rt": "3769.0", "trial_number": "1", "pre_actions": "1", "move": "2@6", "instance": "prb717", "distance_to_goal": "NA", "progress": "NA", "move_number": "0", "optimal_length": "11", "subject": "A191V7PT3DQKDP:3PMBY0YE28B43VMUKKJ6EDF85RV9C8"}
{"meta_move": "drag_end", "rt": "521.0", "trial_number": "1", "pre_actions": "1", "move": "6@9", "instance": "prb717", "distance_to_goal": "NA", "progress": "NA", "move_number": "1", "optimal_length": "11", "subject": "A191V7PT3DQKDP:3PMBY0YE28B43VMUKKJ6EDF85RV9C8"}
{"meta_move": "drag_end", "rt": "616.0", "trial_number": "1", "pre_actions": "1", "move": "4@5", "instance": "prb717", "distance_to_goal": "NA", "progress": "NA", "move_number": "2", "optimal_length": "11", "subject": "A191V7PT3DQKDP:3PMBY0YE28B43VMUKKJ6EDF85RV9C8"}
{"meta_move": "drag_end", "rt": "889.0", "trial_number": "1", "pre_actions": "1", "move": "1@27", "instance": "prb717", "distance_to_goal": "NA", "progress": "NA", "move_number": "3", "optimal_length": "11", "subject": "A191V7PT3DQKDP:3PMBY0YE28B43VMUKKJ6EDF85RV9C8"}
{"meta_move": "drag_end", "rt": "664.0", "trial_number": "1", "pre_actions": "1", "move": "0@26", "instance": "prb717", "distance_to_goal": "NA", "progress": "NA", "move_number": "4", "optimal_length": "11", "subject": "A191V7PT3DQKDP:3PMBY0YE28B43VMUKKJ6EDF85RV9C8"}
{"meta_move": "drag_end", "rt": "1364.0", "trial_number": "1", "pre_actions": "1", "move": "r@15", "instance": "prb717", "distance_to_goal": "NA", "progress": "NA", "move_number": "5", "optimal_length": "11", "subject": "A191V7PT3DQKDP:3PMBY0YE28B43VMUKKJ6EDF85RV9C8"}
{"meta_move": "drag_end", "rt": "744.0", "trial_number": "1", "pre_actions": "1", "move": "0@14", "instance": "prb717", "distance_to_goal": "NA", "progress": "NA", "move_number": "6", "optimal_length": "11", "subject": "A191V7PT3DQKDP:3PMBY0YE28B43VMUKKJ6EDF85RV9C8"}
{"meta_move": "drag_end", "rt": "602.0", "trial_number": "1", "pre_actions": "1", "move": "1@25", "instance": "prb717", "distance_to_goal": "NA", "progress": "NA", "move_number": "7", "optimal_length": "11", "subject": "A191V7PT3DQKDP:3PMBY0YE28B43VMUKKJ6EDF85RV9C8"}
{"meta_move": "drag_end", "rt": "808.0", "trial_number": "1", "pre_actions": "1", "move": "4@23", "instance": "prb717", "distance_to_goal": "NA", "progress": "NA", "move_number": "8", "optimal_length": "11", "subject": "A191V7PT3DQKDP:3PMBY0YE28B43VMUKKJ6EDF85RV9C8"}
{"meta_move": "win", "rt": "576.0", "trial_number": "1", "pre_actions": "1", "move": "r@15", "instance": "prb717", "distance_to_goal": "1", "progress": "NA", "move_number": "9", "optimal_length": "11", "subject": "A191V7PT3DQKDP:3PMBY0YE28B43VMUKKJ6EDF85RV9C8"}
{"meta_move": "drag_end", "rt": "182.0", "trial_number": "0", "pre_actions": "0", "move": "r@16", "instance": "prb717", "distance_to_goal": "NA", "progress": "NA", "move_number": "9", "optimal_length": "11", "subject": "A191V7PT3DQKDP:3PMBY0YE28B43VMUKKJ6EDF85RV9C8"}
{"meta_move": "drag_end", "rt": "1622.0", "trial_number": "1", "pre_actions": "1", "move": "2@6", "instance": "prb717", "distance_to_goal": "NA", "progress": "NA", "move_number": "0", "optimal_length": "11", "subject": "A1F4N58CAX8IMK:3TS1AR6UQRM7SOIBWPBN8N9589Y7FV"}
{"meta_move": "drag_end", "rt": "886.0", "trial_number": "1", "pre_actions": "1", "move": "1@25", "instance": "prb717", "distance_to_goal": "NA", "progress": "NA", "move_number": "1", "optimal_length": "11", "subject": "A1F4N58CAX8IMK:3TS1AR6UQRM7SOIBWPBN8N9589Y7FV"}
{"meta_move": "drag_end", "rt": "536.0", "trial_number": "1", "pre_actions": "1", "move": "3@31", "instance": "prb717", "distance_to_goal": "NA", "progress": "NA", "move_number": "2", "optimal_length": "11", "subject": "A1F4N58CAX8IMK:3TS1AR6UQRM7SOIBWPBN8N9589Y7FV"}
{"meta_move": "drag_end", "rt": "839.0", "trial_number": "1", "pre_actions": "1", "move": "4@23", "instance": "prb717", "distance_to_goal": "NA", "progress": "NA", "move_number": "3", "optimal_length": "11", "subject": "A1F4N58CAX8IMK:3TS1AR6UQRM7SOIBWPBN8N9589Y7FV"}
{"meta_move": "drag_end", "rt": "1378.0", "trial_number": "1", "pre_actions": "1", "move": "1@26", "instance": "prb717", "distance_to_goal": "NA", "progress": "NA", "move_number": "4", "optimal_length": "11", "subject": "A1F4N58CAX8IMK:3TS1AR6UQRM7SOIBWPBN8N9589Y7FV"}
{"meta_move": "drag_end", "rt": "936.0", "trial_number": "1", "pre_actions": "1", "move": "5@18", "instance": "prb717", "distance_to_goal": "NA", "progress": "NA", "move_number": "5", "optimal_length": "11", "subject": "A1F4N58CAX8IMK:3TS1AR6UQRM7SOIBWPBN8N9589Y7FV"}
{"meta_move": "drag_end", "rt": "567.0", "trial_number": "1", "pre_actions": "1", "move": "3@30", "instance": "prb717", "distance_to_goal": "NA", "progress": "NA", "move_number": "6", "optimal_length": "11", "subject": "A1F4N58CAX8IMK:3TS1AR6UQRM7SOIBWPBN8N9589Y7FV"}
{"meta_move": "drag_end", "rt": "1935.0", "trial_number": "1", "pre_actions": "1", "move": "1@25", "instance": "prb717", "distance_to_goal": "NA", "progress": "NA", "move_number": "7", "optimal_length": "11", "subject": "A1F4N58CAX8IMK:3TS1AR6UQRM7SOIBWPBN8N9589Y7FV"}
{"meta_move": "drag_end", "rt": "2698.0", "trial_number": "1", "pre_actions": "1", "move": "6@9", "instance": "prb717", "distance_to_goal": "NA", "progress": "NA", "move_number": "8", "optimal_length": "11", "subject": "A1F4N58CAX8IMK:3TS1AR6UQRM7SOIBWPBN8N9589Y7FV"}
{"meta_move": "drag_end", "rt": "774.0", "trial_number": "1", "pre_actions": "1", "move": "4@5", "instance": "prb717", "distance_to_goal": "NA", "progress": "NA", "move_number": "9", "optimal_length": "11", "subject": "A1F4N58CAX8IMK:3TS1AR6UQRM7SOIBWPBN8N9589Y7FV"}
{"meta_move": "drag_end", "rt": "689.0", "trial_number": "1", "pre_actions": "1", "move": "1@27", "instance": "prb717", "distance_to_goal": "NA", "progress": "NA", "move_number": "10", "optimal_length": "11", "subject": "A1F4N58CAX8IMK:3TS1AR6UQRM7SOIBWPBN8N9589Y7FV"}
{"meta_move": "drag_end", "rt": "799.0", "trial_number": "1", "pre_actions": "1", "move": "0@26", "instance": "prb717", "distance_to_goal": "NA", "progress": "NA", "move_number": "11", "optimal_length": "11", "subject": "A1F4N58CAX8IMK:3TS1AR6UQRM7SOIBWPBN8N9589Y7FV"}
{"meta_move": "drag_end", "rt": "1954.0", "trial_number": "1", "pre_actions": "1", "move": "r@15", "instance": "prb717", "distance_to_goal": "NA", "progress": "NA", "move_number": "12", "optimal_length": "11", "subject": "A1F4N58CAX8IMK:3TS1AR6UQRM7SOIBWPBN8N9589Y7FV"}
{"meta_move": "drag_end", "rt": "864.0", "trial_number": "1", "pre_actions": "1", "move": "5@12", "instance": "prb717", "distance_to_goal": "NA", "progress": "NA", "move_number": "13", "optimal_length": "11", "subject": "A1F4N58CAX8IMK:3TS1AR6UQRM7SOIBWPBN8N9589Y7FV"}
{"meta_move": "drag_end", "rt": "871.0", "trial_number": "1", "pre_actions": "1", "move": "0@14", "instance": "prb717", "distance_to_goal": "NA", "progress": "NA", "move_number": "14", "optimal_length": "11", "subject": "A1F4N58CAX8IMK:3TS1AR6UQRM7SOIBWPBN8N9589Y7FV"}
{"meta_move": "drag_end", "rt": "1633.0", "trial_number": "1", "pre_actions": "1", "move": "1@24", "instance": "prb717", "distance_to_goal": "NA", "progress": "NA", "move_number": "15", "optimal_length": "11", "subject": "A1F4N58CAX8IMK:3TS1AR6UQRM7SOIBWPBN8N9589Y7FV"}
{"meta_move": "drag_end", "rt": "911.0", "trial_number": "1", "pre_actions": "1", "move": "4@23", "instance": "prb717", "distance_to_goal": "NA", "progress": "NA", "move_number": "16", "optimal_length": "11", "subject": "A1F4N58CAX8IMK:3TS1AR6UQRM7SOIBWPBN8N9589Y7FV"}
{"meta_move": "win", "rt": "759.0", "trial_number": "1", "pre_actions": "1", "move": "r@15", "instance": "prb717", "distance_to_goal": "1", "progress": "NA", "move_number": "17", "optimal_length": "11", "subject": "A1F4N58CAX8IMK:3TS1AR6UQRM7SOIBWPBN8N9589Y7FV"}
{"meta_move": "drag_end", "rt": "105.0", "trial_number": "0", "pre_actions": "0", "move": "r@16", "instance": "prb717", "distance_to_goal": "NA", "progress": "NA", "move_number": "17", "optimal_length": "11", "subject": "A1F4N58CAX8IMK:3TS1AR6UQRM7SOIBWPBN8N9589Y7FV"}
{"meta_move": "drag_end", "rt": "16967.0", "trial_number": "1", "pre_actions": "1", "move": "2@7", "instance": "prb717", "distance_to_goal": "NA", "progress": "NA", "move_number": "0", "optimal_length": "11", "subject": "A1LR0VQIHQUJAM:3YW4XOSQKRTI0K0Z2YPDTDJVFABU1I"}
{"meta_move": "drag_end", "rt": "9658.0", "trial_number": "1", "pre_actions": "1", "move": "2@6", "instance": "prb717", "distance_to_goal": "NA", "progress": "NA", "move_number": "0", "optimal_length": "11", "subject": "A1LR0VQIHQUJAM:3YW4XOSQKRTI0K0Z2YPDTDJVFABU1I"}
{"meta_move": "drag_end", "rt": "410.0", "trial_number": "1", "pre_actions": "1", "move": "6@9", "instance": "prb717", "distance_to_goal": "NA", "progress": "NA", "move_number": "1", "optimal_length": "11", "subject": "A1LR0VQIHQUJAM:3YW4XOSQKRTI0K0Z2YPDTDJVFABU1I"}
{"meta_move": "drag_end", "rt": "507.0", "trial_number": "1", "pre_actions": "1", "move": "4@5", "instance": "prb717", "distance_to_goal": "NA", "progress": "NA", "move_number": "2", "optimal_length": "11", "subject": "A1LR0VQIHQUJAM:3YW4XOSQKRTI0K0Z2YPDTDJVFABU1I"}
{"meta_move": "drag_end", "rt": "1038.0", "trial_number": "1", "pre_actions": "1", "move": "1@27", "instance": "prb717", "distance_to_goal": "NA", "progress": "NA", "move_number": "3", "optimal_length": "11", "subject": "A1LR0VQIHQUJAM:3YW4XOSQKRTI0K0Z2YPDTDJVFABU1I"}
{"meta_move": "drag_end", "rt": "652.0", "trial_number": "1", "pre_actions": "1", "move": "0@26", "instance": "prb717", "distance_to_goal": "NA", "progress": "NA", "move_number": "4", "optimal_length": "11", "subject": "A1LR0VQIHQUJAM:3YW4XOSQKRTI0K0Z2YPDTDJVFABU1I"}
{"meta_move": "drag_end", "rt": "3058.0", "trial_number": "1", "pre_actions": "1", "move": "r@15", "instance": "prb717", "distance_to_goal": "NA", "progress": "NA", "move_number": "5", "optimal_length": "11", "subject": "A1LR0VQIHQUJAM:3YW4XOSQKRTI0K0Z2YPDTDJVFABU1I"}
{"meta_move": "drag_end", "rt": "1642.0", "trial_number": "1", "pre_actions": "1", "move": "0@14", "instance": "prb717", "distance_to_goal": "NA", "progress": "NA", "move_number": "6", "optimal_length": "11", "subject": "A1LR0VQIHQUJAM:3YW4XOSQKRTI0K0Z2YPDTDJVFABU1I"}
{"meta_move": "drag_end", "rt": "673.0", "trial_number": "1", "pre_actions": "1", "move": "1@25", "instance": "prb717", "distance_to_goal": "NA", "progress": "NA", "move_number": "7", "optimal_length": "11", "subject": "A1LR0VQIHQUJAM:3YW4XOSQKRTI0K0Z2YPDTDJVFABU1I"}
{"meta_move": "drag_end", "rt": "602.0", "trial_number": "1", "pre_actions": "1", "move": "4@23", "instance": "prb717", "distance_to_goal": "NA", "progress": "NA", "move_number": "8", "optimal_length": "11", "subject": "A1LR0VQIHQUJAM:3YW4XOSQKRTI0K0Z2YPDTDJVFABU1I"}
{"meta_move": "win", "rt": "527.0", "trial_number": "1", "pre_actions": "1", "move": "r@15", "instance": "prb717", "distance_to_goal": "1", "progress": "NA", "move_number": "9", "optimal_length": "11", "subject": "A1LR0VQIHQUJAM:3YW4XOSQKRTI0K0Z2YPDTDJVFABU1I"}
{"meta_move": "drag_end", "rt": "80.0", "trial_number": "0", "pre_actions": "0", "move": "r@16", "instance": "prb717", "distance_to_goal": "NA", "progress": "NA", "move_number": "9", "optimal_length": "11", "subject": "A1LR0VQIHQUJAM:3YW4XOSQKRTI0K0Z2YPDTDJVFABU1I"}
{"meta_move": "drag_end", "rt": "2730.0", "trial_number": "1", "pre_actions": "1", "move": "4@23", "instance": "prb717", "distance_to_goal": "NA", "progress": "NA", "move_number": "0", "optimal_length": "11", "subject": "A214HWAW1PYWO8:34BBWHLWHBJ6SUL255PK30LEGY5IWG"}
{"meta_move": "drag_end", "rt": "2085.0", "trial_number": "1", "pre_actions": "1", "move": "4@17", "instance": "prb717", "distance_to_goal": "NA", "progress": "NA", "move_number": "1", "optimal_length": "11", "subject": "A214HWAW1PYWO8:34BBWHLWHBJ6SUL255PK30LEGY5IWG"}
{"meta_move": "drag_end", "rt": "453.0", "trial_number": "1", "pre_actions": "1", "move": "1@26", "instance": "prb717", "distance_to_goal": "NA", "progress": "NA", "move_number": "2", "optimal_length": "11", "subject": "A214HWAW1PYWO8:34BBWHLWHBJ6SUL255PK30LEGY5IWG"}
{"meta_move": "drag_end", "rt": "648.0", "trial_number": "1", "pre_actions": "1", "move": "6@10", "instance": "prb717", "distance_to_goal": "NA", "progress": "NA", "move_number": "2", "optimal_length": "11", "subject": "A214HWAW1PYWO8:34BBWHLWHBJ6SUL255PK30LEGY5IWG"}
{"meta_move": "drag_end", "rt": "673.0", "trial_number": "1", "pre_actions": "1", "move": "2@6", "instance": "prb717", "distance_to_goal": "NA", "progress": "NA", "move_number": "2", "optimal_length": "11", "subject": "A214HWAW1PYWO8:34BBWHLWHBJ6SUL255PK30LEGY5IWG"}
{"meta_move": "drag_end", "rt": "397.0", "trial_number": "1", "pre_actions": "1", "move": "6@9", "instance": "prb717", "distance_to_goal": "NA", "progress": "NA", "move_number": "3", "optimal_length": "11", "subject": "A214HWAW1PYWO8:34BBWHLWHBJ6SUL255PK30LEGY5IWG"}
{"meta_move": "drag_end", "rt": "503.0", "trial_number": "1", "pre_actions": "1", "move": "4@11", "instance": "prb717", "distance_to_goal": "NA", "progress": "NA", "move_number": "4", "optimal_length": "11", "subject": "A214HWAW1PYWO8:34BBWHLWHBJ6SUL255PK30LEGY5IWG"}
{"meta_move": "drag_end", "rt": "793.0", "trial_number": "1", "pre_actions": "1", "move": "4@5", "instance": "prb717", "distance_to_goal": "NA", "progress": "NA", "move_number": "5", "optimal_length": "11", "subject": "A214HWAW1PYWO8:34BBWHLWHBJ6SUL255PK30LEGY5IWG"}
{"meta_move": "drag_end", "rt": "657.0", "trial_number": "1", "pre_actions": "1", "move": "1@27", "instance": "prb717", "distance_to_goal": "NA", "progress": "NA", "move_number": "6", "optimal_length": "11", "subject": "A214HWAW1PYWO8:34BBWHLWHBJ6SUL255PK30LEGY5IWG"}
{"meta_move": "drag_end", "rt": "453.0", "trial_number": "1", "pre_actions": "1", "move": "0@26", "instance": "prb717", "distance_to_goal": "NA", "progress": "NA", "move_number": "7", "optimal_length": "11", "subject": "A214HWAW1PYWO8:34BBWHLWHBJ6SUL255PK30LEGY5IWG"}
{"meta_move": "drag_end", "rt": "951.0", "trial_number": "1", "pre_actions": "1", "move": "r@15", "instance": "prb717", "distance_to_goal": "NA", "progress": "NA", "move_number": "8", "optimal_length": "11", "subject": "A214HWAW1PYWO8:34BBWHLWHBJ6SUL255PK30LEGY5IWG"}
{"meta_move": "drag_end", "rt": "533.0", "trial_number": "1", "pre_actions": "1", "move": "0@14", "instance": "prb717", "distance_to_goal": "NA", "progress": "NA", "move_number": "9", "optimal_length": "11", "subject": "A214HWAW1PYWO8:34BBWHLWHBJ6SUL255PK30LEGY5IWG"}
{"meta_move": "drag_end", "rt": "487.0", "trial_number": "1", "pre_actions": "1", "move": "1@25", "instance": "prb717", "distance_to_goal": "NA", "progress": "NA", "move_number": "10", "optimal_length": "11", "subject": "A214HWAW1PYWO8:34BBWHLWHBJ6SUL255PK30LEGY5IWG"}
{"meta_move": "drag_end", "rt": "524.0", "trial_number": "1", "pre_actions": "1", "move": "4@23", "instance": "prb717", "distance_to_goal": "NA", "progress": "NA", "move_number": "11", "optimal_length": "11", "subject": "A214HWAW1PYWO8:34BBWHLWHBJ6SUL255PK30LEGY5IWG"}
{"meta_move": "win", "rt": "354.0", "trial_number": "1", "pre_actions": "1", "move": "r@15", "instance": "prb717", "distance_to_goal": "1", "progress": "NA", "move_number": "12", "optimal_length": "11", "subject": "A214HWAW1PYWO8:34BBWHLWHBJ6SUL255PK30LEGY5IWG"}
{"meta_move": "drag_end", "rt": "61.0", "trial_number": "0", "pre_actions": "0", "move": "r@16", "instance": "prb717", "distance_to_goal": "NA", "progress": "NA", "move_number": "12", "optimal_length": "11", "subject": "A214HWAW1PYWO8:34BBWHLWHBJ6SUL255PK30LEGY5IWG"}
{"meta_move": "drag_end", "rt": "2663.0", "trial_number": "1", "pre_actions": "1", "move": "4@23", "instance": "prb717", "distance_to_goal": "NA", "progress": "NA", "move_number": "0", "optimal_length": "11", "subject": "A23437BMZ5T1FH:3IHR8NYAM89M0EPM8U9LH53ZJDTP4U"}
{"meta_move": "drag_end", "rt": "3792.0", "trial_number": "1", "pre_actions": "1", "move": "7@4", "instance": "prb717", "distance_to_goal": "NA", "progress": "NA", "move_number": "1", "optimal_length": "11", "subject": "A23437BMZ5T1FH:3IHR8NYAM89M0EPM8U9LH53ZJDTP4U"}
{"meta_move": "drag_end", "rt": "2062.0", "trial_number": "1", "pre_actions": "1", "move": "1@26", "instance": "prb717", "distance_to_goal": "NA", "progress": "NA", "move_number": "2", "optimal_length": "11", "subject": "A23437BMZ5T1FH:3IHR8NYAM89M0EPM8U9LH53ZJDTP4U"}
{"meta_move": "drag_end", "rt": "546.0", "trial_number": "1", "pre_actions": "1", "move": "3@31", "instance": "prb717", "distance_to_goal": "NA", "progress": "NA", "move_number": "2", "optimal_length": "11", "subject": "A23437BMZ5T1FH:3IHR8NYAM89M0EPM8U9LH53ZJDTP4U"}
{"meta_move": "drag_end", "rt": "641.0", "trial_number": "1", "pre_actions": "1", "move": "4@17", "instance": "prb717", "distance_to_goal": "NA", "progress": "NA", "move_number": "3", "optimal_length": "11", "subject": "A23437BMZ5T1FH:3IHR8NYAM89M0EPM8U9LH53ZJDTP4U"}
{"meta_move": "drag_end", "rt": "2567.0", "trial_number": "1", "pre_actions": "1", "move": "5@18", "instance": "prb717", "distance_to_goal": "NA", "progress": "NA", "move_number": "4", "optimal_length": "11", "subject": "A23437BMZ5T1FH:3IHR8NYAM89M0EPM8U9LH53ZJDTP4U"}
{"meta_move": "drag_end", "rt": "695.0", "trial_number": "1", "pre_actions": "1", "move": "3@30", "instance": "prb717", "distance_to_goal": "NA", "progress": "NA", "move_number": "5", "optimal_length": "11", "subject": "A23437BMZ5T1FH:3IHR8NYAM89M0EPM8U9LH53ZJDTP4U"}
{"meta_move": "drag_end", "rt": "1521.0", "trial_number": "1", "pre_actions": "1", "move": "1@25", "instance": "prb717", "distance_to_goal": "NA", "progress": "NA", "move_number": "6", "optimal_length": "11", "subject": "A23437BMZ5T1FH:3IHR8NYAM89M0EPM8U9LH53ZJDTP4U"}
{"meta_move": "drag_end", "rt": "734.0", "trial_number": "1", "pre_actions": "1", "move": "4@23", "instance": "prb717", "distance_to_goal": "NA", "progress": "NA", "move_number": "7", "optimal_length": "11", "subject": "A23437BMZ5T1FH:3IHR8NYAM89M0EPM8U9LH53ZJDTP4U"}
{"meta_move": "drag_end", "rt": "1576.0", "trial_number": "1", "pre_actions": "1", "move": "7@0", "instance": "prb717", "distance_to_goal": "NA", "progress": "NA", "move_number": "8", "optimal_length": "11", "subject": "A23437BMZ5T1FH:3IHR8NYAM89M0EPM8U9LH53ZJDTP4U"}
{"meta_move": "drag_end", "rt": "1665.0", "trial_number": "1", "pre_actions": "1", "move": "2@6", "instance": "prb717", "distance_to_goal": "NA", "progress": "NA", "move_number": "9", "optimal_length": "11", "subject": "A23437BMZ5T1FH:3IHR8NYAM89M0EPM8U9LH53ZJDTP4U"}
{"meta_move": "drag_end", "rt": "1263.0", "trial_number": "1", "pre_actions": "1", "move": "1@26", "instance": "prb717", "distance_to_goal": "NA", "progress": "NA", "move_number": "10", "optimal_length": "11", "subject": "A23437BMZ5T1FH:3IHR8NYAM89M0EPM8U9LH53ZJDTP4U"}
{"meta_move": "drag_end", "rt": "1889.0", "trial_number": "1", "pre_actions": "1", "move": "4@17", "instance": "prb717", "distance_to_goal": "NA", "progress": "NA", "move_number": "11", "optimal_length": "11", "subject": "A23437BMZ5T1FH:3IHR8NYAM89M0EPM8U9LH53ZJDTP4U"}
{"meta_move": "drag_end", "rt": "464.0", "trial_number": "1", "pre_actions": "1", "move": "6@9", "instance": "prb717", "distance_to_goal": "NA", "progress": "NA", "move_number": "12", "optimal_length": "11", "subject": "A23437BMZ5T1FH:3IHR8NYAM89M0EPM8U9LH53ZJDTP4U"}
{"meta_move": "drag_end", "rt": "528.0", "trial_number": "1", "pre_actions": "1", "move": "4@5", "instance": "prb717", "distance_to_goal": "NA", "progress": "NA", "move_number": "13", "optimal_length": "11", "subject": "A23437BMZ5T1FH:3IHR8NYAM89M0EPM8U9LH53ZJDTP4U"}
{"meta_move": "drag_end", "rt": "697.0", "trial_number": "1", "pre_actions": "1", "move": "1@27", "instance": "prb717", "distance_to_goal": "NA", "progress": "NA", "move_number": "14", "optimal_length": "11", "subject": "A23437BMZ5T1FH:3IHR8NYAM89M0EPM8U9LH53ZJDTP4U"}
{"meta_move": "drag_end", "rt": "622.0", "trial_number": "1", "pre_actions": "1", "move": "0@26", "instance": "prb717", "distance_to_goal": "NA", "progress": "NA", "move_number": "15", "optimal_length": "11", "subject": "A23437BMZ5T1FH:3IHR8NYAM89M0EPM8U9LH53ZJDTP4U"}
{"meta_move": "drag_end", "rt": "865.0", "trial_number": "1", "pre_actions": "1", "move": "r@15", "instance": "prb717", "distance_to_goal": "NA", "progress": "NA", "move_number": "16", "optimal_length": "11", "subject": "A23437BMZ5T1FH:3IHR8NYAM89M0EPM8U9LH53ZJDTP4U"}
{"meta_move": "drag_end", "rt": "2193.0", "trial_number": "1", "pre_actions": "1", "move": "0@14", "instance": "prb717", "distance_to_goal": "NA", "progress": "NA", "move_number": "17", "optimal_length": "11", "subject": "A23437BMZ5T1FH:3IHR8NYAM89M0EPM8U9LH53ZJDTP4U"}
{"meta_move": "drag_end", "rt": "694.0", "trial_number": "1", "pre_actions": "1", "move": "1@25", "instance": "prb717", "distance_to_goal": "NA", "progress": "NA", "move_number": "18", "optimal_length": "11", "subject": "A23437BMZ5T1FH:3IHR8NYAM89M0EPM8U9LH53ZJDTP4U"}
{"meta_move": "drag_end", "rt": "681.0", "trial_number": "1", "pre_actions": "1", "move": "4@23", "instance": "prb717", "distance_to_goal": "NA", "progress": "NA", "move_number": "19", "optimal_length": "11", "subject": "A23437BMZ5T1FH:3IHR8NYAM89M0EPM8U9LH53ZJDTP4U"}
{"meta_move": "win", "rt": "441.0", "trial_number": "1", "pre_actions": "1", "move": "r@15", "instance": "prb717", "distance_to_goal": "1", "progress": "NA", "move_number": "20", "optimal_length": "11", "subject": "A23437BMZ5T1FH:3IHR8NYAM89M0EPM8U9LH53ZJDTP4U"}
{"meta_move": "drag_end", "rt": "54.0", "trial_number": "0", "pre_actions": "0", "move": "r@16", "instance": "prb717", "distance_to_goal": "NA", "progress": "NA", "move_number": "20", "optimal_length": "11", "subject": "A23437BMZ5T1FH:3IHR8NYAM89M0EPM8U9LH53ZJDTP4U"}
{"meta_move": "drag_end", "rt": "14121.0", "trial_number": "1", "pre_actions": "1", "move": "2@6", "instance": "prb717", "distance_to_goal": "NA", "progress": "NA", "move_number": "0", "optimal_length": "11", "subject": "A26RO8GGTQAXGG:3CFVK00FWMTAOGE2ZQ9TXMETAPZ6LP"}
{"meta_move": "drag_end", "rt": "1080.0", "trial_number": "1", "pre_actions": "1", "move": "6@9", "instance": "prb717", "distance_to_goal": "NA", "progress": "NA", "move_number": "1", "optimal_length": "11", "subject": "A26RO8GGTQAXGG:3CFVK00FWMTAOGE2ZQ9TXMETAPZ6LP"}
{"meta_move": "drag_end", "rt": "1263.0", "trial_number": "1", "pre_actions": "1", "move": "4@5", "instance": "prb717", "distance_to_goal": "NA", "progress": "NA", "move_number": "2", "optimal_length": "11", "subject": "A26RO8GGTQAXGG:3CFVK00FWMTAOGE2ZQ9TXMETAPZ6LP"}
{"meta_move": "drag_end", "rt": "1757.0", "trial_number": "1", "pre_actions": "1", "move": "1@27", "instance": "prb717", "distance_to_goal": "NA", "progress": "NA", "move_number": "3", "optimal_length": "11", "subject": "A26RO8GGTQAXGG:3CFVK00FWMTAOGE2ZQ9TXMETAPZ6LP"}
{"meta_move": "drag_end", "rt": "1482.0", "trial_number": "1", "pre_actions": "1", "move": "0@26", "instance": "prb717", "distance_to_goal": "NA", "progress": "NA", "move_number": "4", "optimal_length": "11", "subject": "A26RO8GGTQAXGG:3CFVK00FWMTAOGE2ZQ9TXMETAPZ6LP"}
{"meta_move": "drag_end", "rt": "2008.0", "trial_number": "1", "pre_actions": "1", "move": "r@15", "instance": "prb717", "distance_to_goal": "NA", "progress": "NA", "move_number": "5", "optimal_length": "11", "subject": "A26RO8GGTQAXGG:3CFVK00FWMTAOGE2ZQ9TXMETAPZ6LP"}
{"meta_move": "drag_end", "rt": "1127.0", "trial_number": "1", "pre_actions": "1", "move": "0@14", "instance": "prb717", "distance_to_goal": "NA", "progress": "NA", "move_number": "6", "optimal_length": "11", "subject": "A26RO8GGTQAXGG:3CFVK00FWMTAOGE2ZQ9TXMETAPZ6LP"}
{"meta_move": "drag_end", "rt": "1051.0", "trial_number": "1", "pre_actions": "1", "move": "1@26", "instance": "prb717", "distance_to_goal": "NA", "progress": "NA", "move_number": "7", "optimal_length": "11", "subject": "A26RO8GGTQAXGG:3CFVK00FWMTAOGE2ZQ9TXMETAPZ6LP"}
{"meta_move": "drag_end", "rt": "1271.0", "trial_number": "1", "pre_actions": "1", "move": "4@23", "instance": "prb717", "distance_to_goal": "NA", "progress": "NA", "move_number": "8", "optimal_length": "11", "subject": "A26RO8GGTQAXGG:3CFVK00FWMTAOGE2ZQ9TXMETAPZ6LP"}
{"meta_move": "win", "rt": "684.0", "trial_number": "1", "pre_actions": "1", "move": "r@15", "instance": "prb717", "distance_to_goal": "1", "progress": "NA", "move_number": "9", "optimal_length": "11", "subject": "A26RO8GGTQAXGG:3CFVK00FWMTAOGE2ZQ9TXMETAPZ6LP"}
{"meta_move": "drag_end", "rt": "428.0", "trial_number": "0", "pre_actions": "0", "move": "r@16", "instance": "prb717", "distance_to_goal": "NA", "progress": "NA", "move_number": "9", "optimal_length": "11", "subject": "A26RO8GGTQAXGG:3CFVK00FWMTAOGE2ZQ9TXMETAPZ6LP"}
{"meta_move": "drag_end", "rt": "16327.0", "trial_number": "1", "pre_actions": "1", "move": "2@6", "instance": "prb717", "distance_to_goal": "NA", "progress": "NA", "move_number": "0", "optimal_length": "11", "subject": "A289D98Z4GAZ28:3ZV9H2YQQEFR2R3JK2IXZUJPXAF3WW"}
{"meta_move": "drag_end", "rt": "2211.0", "trial_number": "1", "pre_actions": "1", "move": "5@18", "instance": "prb717", "distance_to_goal": "NA", "progress": "NA", "move_number": "1", "optimal_length": "11", "subject": "A289D98Z4GAZ28:3ZV9H2YQQEFR2R3JK2IXZUJPXAF3WW"}
{"meta_move": "drag_end", "rt": "1215.0", "trial_number": "1", "pre_actions": "1", "move": "3@30", "instance": "prb717", "distance_to_goal": "NA", "progress": "NA", "move_number": "2", "optimal_length": "11", "subject": "A289D98Z4GAZ28:3ZV9H2YQQEFR2R3JK2IXZUJPXAF3WW"}
{"meta_move": "drag_end", "rt": "1518.0", "trial_number": "1", "pre_actions": "1", "move": "1@25", "instance": "prb717", "distance_to_goal": "NA", "progress": "NA", "move_number": "3", "optimal_length": "11", "subject": "A289D98Z4GAZ28:3ZV9H2YQQEFR2R3JK2IXZUJPXAF3WW"}
{"meta_move": "drag_end", "rt": "2135.0", "trial_number": "1", "pre_actions": "1", "move": "4@23", "instance": "prb717", "distance_to_goal": "NA", "progress": "NA", "move_number": "4", "optimal_length": "11", "subject": "A289D98Z4GAZ28:3ZV9H2YQQEFR2R3JK2IXZUJPXAF3WW"}
{"meta_move": "drag_end", "rt": "1041.0", "trial_number": "1", "pre_actions": "1", "move": "1@26", "instance": "prb717", "distance_to_goal": "NA", "progress": "NA", "move_number": "5", "optimal_length": "11", "subject": "A289D98Z4GAZ28:3ZV9H2YQQEFR2R3JK2IXZUJPXAF3WW"}
{"meta_move": "drag_end", "rt": "4597.0", "trial_number": "1", "pre_actions": "1", "move": "6@9", "instance": "prb717", "distance_to_goal": "NA", "progress": "NA", "move_number": "6", "optimal_length": "11", "subject": "A289D98Z4GAZ28:3ZV9H2YQQEFR2R3JK2IXZUJPXAF3WW"}
{"meta_move": "drag_end", "rt": "890.0", "trial_number": "1", "pre_actions": "1", "move": "4@5", "instance": "prb717", "distance_to_goal": "NA", "progress": "NA", "move_number": "7", "optimal_length": "11", "subject": "A289D98Z4GAZ28:3ZV9H2YQQEFR2R3JK2IXZUJPXAF3WW"}
{"meta_move": "drag_end", "rt": "2719.0", "trial_number": "1", "pre_actions": "1", "move": "4@23", "instance": "prb717", "distance_to_goal": "NA", "progress": "NA", "move_number": "8", "optimal_length": "11", "subject": "A289D98Z4GAZ28:3ZV9H2YQQEFR2R3JK2IXZUJPXAF3WW"}
{"meta_move": "drag_end", "rt": "6145.0", "trial_number": "1", "pre_actions": "1", "move": "4@11", "instance": "prb717", "distance_to_goal": "NA", "progress": "NA", "move_number": "9", "optimal_length": "11", "subject": "A289D98Z4GAZ28:3ZV9H2YQQEFR2R3JK2IXZUJPXAF3WW"}
{"meta_move": "drag_end", "rt": "801.0", "trial_number": "1", "pre_actions": "1", "move": "1@27", "instance": "prb717", "distance_to_goal": "NA", "progress": "NA", "move_number": "10", "optimal_length": "11", "subject": "A289D98Z4GAZ28:3ZV9H2YQQEFR2R3JK2IXZUJPXAF3WW"}
{"meta_move": "drag_end", "rt": "2274.0", "trial_number": "1", "pre_actions": "1", "move": "0@26", "instance": "prb717", "distance_to_goal": "NA", "progress": "NA", "move_number": "11", "optimal_length": "11", "subject": "A289D98Z4GAZ28:3ZV9H2YQQEFR2R3JK2IXZUJPXAF3WW"}
{"meta_move": "drag_end", "rt": "4503.0", "trial_number": "1", "pre_actions": "1", "move": "0@14", "instance": "prb717", "distance_to_goal": "NA", "progress": "NA", "move_number": "12", "optimal_length": "11", "subject": "A289D98Z4GAZ28:3ZV9H2YQQEFR2R3JK2IXZUJPXAF3WW"}
{"meta_move": "drag_end", "rt": "898.0", "trial_number": "1", "pre_actions": "1", "move": "1@25", "instance": "prb717", "distance_to_goal": "NA", "progress": "NA", "move_number": "13", "optimal_length": "11", "subject": "A289D98Z4GAZ28:3ZV9H2YQQEFR2R3JK2IXZUJPXAF3WW"}
{"meta_move": "drag_end", "rt": "910.0", "trial_number": "1", "pre_actions": "1", "move": "4@23", "instance": "prb717", "distance_to_goal": "NA", "progress": "NA", "move_number": "14", "optimal_length": "11", "subject": "A289D98Z4GAZ28:3ZV9H2YQQEFR2R3JK2IXZUJPXAF3WW"}
{"meta_move": "drag_end", "rt": "3608.0", "trial_number": "1", "pre_actions": "1", "move": "3@33", "instance": "prb717", "distance_to_goal": "NA", "progress": "NA", "move_number": "15", "optimal_length": "11", "subject": "A289D98Z4GAZ28:3ZV9H2YQQEFR2R3JK2IXZUJPXAF3WW"}
{"meta_move": "drag_end", "rt": "881.0", "trial_number": "1", "pre_actions": "1", "move": "5@24", "instance": "prb717", "distance_to_goal": "NA", "progress": "NA", "move_number": "16", "optimal_length": "11", "subject": "A289D98Z4GAZ28:3ZV9H2YQQEFR2R3JK2IXZUJPXAF3WW"}
{"meta_move": "drag_end", "rt": "5127.0", "trial_number": "1", "pre_actions": "1", "move": "1@26", "instance": "prb717", "distance_to_goal": "NA", "progress": "NA", "move_number": "17", "optimal_length": "11", "subject": "A289D98Z4GAZ28:3ZV9H2YQQEFR2R3JK2IXZUJPXAF3WW"}
{"meta_move": "drag_end", "rt": "1554.0", "trial_number": "1", "pre_actions": "1", "move": "6@10", "instance": "prb717", "distance_to_goal": "NA", "progress": "NA", "move_number": "18", "optimal_length": "11", "subject": "A289D98Z4GAZ28:3ZV9H2YQQEFR2R3JK2IXZUJPXAF3WW"}
{"meta_move": "drag_end", "rt": "2186.0", "trial_number": "1", "pre_actions": "1", "move": "2@6", "instance": "prb717", "distance_to_goal": "NA", "progress": "NA", "move_number": "19", "optimal_length": "11", "subject": "A289D98Z4GAZ28:3ZV9H2YQQEFR2R3JK2IXZUJPXAF3WW"}
{"meta_move": "drag_end", "rt": "1201.0", "trial_number": "1", "pre_actions": "1", "move": "5@18", "instance": "prb717", "distance_to_goal": "NA", "progress": "NA", "move_number": "19", "optimal_length": "11", "subject": "A289D98Z4GAZ28:3ZV9H2YQQEFR2R3JK2IXZUJPXAF3WW"}
{"meta_move": "drag_end", "rt": "851.0", "trial_number": "1", "pre_actions": "1", "move": "1@25", "instance": "prb717", "distance_to_goal": "NA", "progress": "NA", "move_number": "20", "optimal_length": "11", "subject": "A289D98Z4GAZ28:3ZV9H2YQQEFR2R3JK2IXZUJPXAF3WW"}
{"meta_move": "drag_end", "rt": "3611.0", "trial_number": "1", "pre_actions": "1", "move": "1@26", "instance": "prb717", "distance_to_goal": "NA", "progress": "NA", "move_number": "21", "optimal_length": "11", "subject": "A289D98Z4GAZ28:3ZV9H2YQQEFR2R3JK2IXZUJPXAF3WW"}
{"meta_move": "drag_end", "rt": "996.0", "trial_number": "1", "pre_actions": "1", "move": "4@17", "instance": "prb717", "distance_to_goal": "NA", "progress": "NA", "move_number": "22", "optimal_length": "11", "subject": "A289D98Z4GAZ28:3ZV9H2YQQEFR2R3JK2IXZUJPXAF3WW"}
{"meta_move": "drag_end", "rt": "1465.0", "trial_number": "1", "pre_actions": "1", "move": "3@30", "instance": "prb717", "distance_to_goal": "NA", "progress": "NA", "move_number": "23", "optimal_length": "11", "subject": "A289D98Z4GAZ28:3ZV9H2YQQEFR2R3JK2IXZUJPXAF3WW"}
{"meta_move": "drag_end", "rt": "1125.0", "trial_number": "1", "pre_actions": "1", "move": "6@9", "instance": "prb717", "distance_to_goal": "NA", "progress": "NA", "move_number": "24", "optimal_length": "11", "subject": "A289D98Z4GAZ28:3ZV9H2YQQEFR2R3JK2IXZUJPXAF3WW"}
{"meta_move": "drag_end", "rt": "841.0", "trial_number": "1", "pre_actions": "1", "move": "4@5", "instance": "prb717", "distance_to_goal": "NA", "progress": "NA", "move_number": "25", "optimal_length": "11", "subject": "A289D98Z4GAZ28:3ZV9H2YQQEFR2R3JK2IXZUJPXAF3WW"}
{"meta_move": "drag_end", "rt": "823.0", "trial_number": "1", "pre_actions": "1", "move": "1@27", "instance": "prb717", "distance_to_goal": "NA", "progress": "NA", "move_number": "26", "optimal_length": "11", "subject": "A289D98Z4GAZ28:3ZV9H2YQQEFR2R3JK2IXZUJPXAF3WW"}
{"meta_move": "drag_end", "rt": "966.0", "trial_number": "1", "pre_actions": "1", "move": "0@26", "instance": "prb717", "distance_to_goal": "NA", "progress": "NA", "move_number": "27", "optimal_length": "11", "subject": "A289D98Z4GAZ28:3ZV9H2YQQEFR2R3JK2IXZUJPXAF3WW"}
{"meta_move": "drag_end", "rt": "1018.0", "trial_number": "1", "pre_actions": "1", "move": "r@15", "instance": "prb717", "distance_to_goal": "NA", "progress": "NA", "move_number": "28", "optimal_length": "11", "subject": "A289D98Z4GAZ28:3ZV9H2YQQEFR2R3JK2IXZUJPXAF3WW"}
{"meta_move": "drag_end", "rt": "3579.0", "trial_number": "1", "pre_actions": "1", "move": "0@14", "instance": "prb717", "distance_to_goal": "NA", "progress": "NA", "move_number": "29", "optimal_length": "11", "subject": "A289D98Z4GAZ28:3ZV9H2YQQEFR2R3JK2IXZUJPXAF3WW"}
{"meta_move": "drag_end", "rt": "984.0", "trial_number": "1", "pre_actions": "1", "move": "1@25", "instance": "prb717", "distance_to_goal": "NA", "progress": "NA", "move_number": "30", "optimal_length": "11", "subject": "A289D98Z4GAZ28:3ZV9H2YQQEFR2R3JK2IXZUJPXAF3WW"}
{"meta_move": "drag_end", "rt": "1226.0", "trial_number": "1", "pre_actions": "1", "move": "4@23", "instance": "prb717", "distance_to_goal": "NA", "progress": "NA", "move_number": "31", "optimal_length": "11", "subject": "A289D98Z4GAZ28:3ZV9H2YQQEFR2R3JK2IXZUJPXAF3WW"}
{"meta_move": "win", "rt": "900.0", "trial_number": "1", "pre_actions": "1", "move": "r@15", "instance": "prb717", "distance_to_goal": "1", "progress": "NA", "move_number": "32", "optimal_length": "11", "subject": "A289D98Z4GAZ28:3ZV9H2YQQEFR2R3JK2IXZUJPXAF3WW"}
{"meta_move": "drag_end", "rt": "173.0", "trial_number": "0", "pre_actions": "0", "move": "r@16", "instance": "prb717", "distance_to_goal": "NA", "progress": "NA", "move_number": "32", "optimal_length": "11", "subject": "A289D98Z4GAZ28:3ZV9H2YQQEFR2R3JK2IXZUJPXAF3WW"}
{"meta_move": "drag_end", "rt": "3431.0", "trial_number": "1", "pre_actions": "1", "move": "2@6", "instance": "prb717", "distance_to_goal": "NA", "progress": "NA", "move_number": "0", "optimal_length": "11", "subject": "A2EPBSY0VPI38S:37WLF8U1WQYZ4AWKEQXSIM1ELVEK6W"}
{"meta_move": "drag_end", "rt": "1184.0", "trial_number": "1", "pre_actions": "1", "move": "6@9", "instance": "prb717", "distance_to_goal": "NA", "progress": "NA", "move_number": "1", "optimal_length": "11", "subject": "A2EPBSY0VPI38S:37WLF8U1WQYZ4AWKEQXSIM1ELVEK6W"}
{"meta_move": "drag_end", "rt": "1030.0", "trial_number": "1", "pre_actions": "1", "move": "4@5", "instance": "prb717", "distance_to_goal": "NA", "progress": "NA", "move_number": "2", "optimal_length": "11", "subject": "A2EPBSY0VPI38S:37WLF8U1WQYZ4AWKEQXSIM1ELVEK6W"}
{"meta_move": "drag_end", "rt": "1543.0", "trial_number": "1", "pre_actions": "1", "move": "4@23", "instance": "prb717", "distance_to_goal": "NA", "progress": "NA", "move_number": "3", "optimal_length": "11", "subject": "A2EPBSY0VPI38S:37WLF8U1WQYZ4AWKEQXSIM1ELVEK6W"}
{"meta_move": "drag_end", "rt": "1346.0", "trial_number": "1", "pre_actions": "1", "move": "6@10", "instance": "prb717", "distance_to_goal": "NA", "progress": "NA", "move_number": "4", "optimal_length": "11", "subject": "A2EPBSY0VPI38S:37WLF8U1WQYZ4AWKEQXSIM1ELVEK6W"}
{"meta_move": "drag_end", "rt": "4111.0", "trial_number": "1", "pre_actions": "1", "move": "0@14", "instance": "prb717", "distance_to_goal": "NA", "progress": "NA", "move_number": "5", "optimal_length": "11", "subject": "A2EPBSY0VPI38S:37WLF8U1WQYZ4AWKEQXSIM1ELVEK6W"}
{"meta_move": "drag_end", "rt": "821.0", "trial_number": "1", "pre_actions": "1", "move": "2@7", "instance": "prb717", "distance_to_goal": "NA", "progress": "NA", "move_number": "5", "optimal_length": "11", "subject": "A2EPBSY0VPI38S:37WLF8U1WQYZ4AWKEQXSIM1ELVEK6W"}
{"meta_move": "drag_end", "rt": "933.0", "trial_number": "1", "pre_actions": "1", "move": "1@25", "instance": "prb717", "distance_to_goal": "NA", "progress": "NA", "move_number": "6", "optimal_length": "11", "subject": "A2EPBSY0VPI38S:37WLF8U1WQYZ4AWKEQXSIM1ELVEK6W"}
{"meta_move": "drag_end", "rt": "2226.0", "trial_number": "1", "pre_actions": "1", "move": "7@4", "instance": "prb717", "distance_to_goal": "NA", "progress": "NA", "move_number": "7", "optimal_length": "11", "subject": "A2EPBSY0VPI38S:37WLF8U1WQYZ4AWKEQXSIM1ELVEK6W"}
{"meta_move": "drag_end", "rt": "1201.0", "trial_number": "1", "pre_actions": "1", "move": "2@6", "instance": "prb717", "distance_to_goal": "NA", "progress": "NA", "move_number": "8", "optimal_length": "11", "subject": "A2EPBSY0VPI38S:37WLF8U1WQYZ4AWKEQXSIM1ELVEK6W"}
{"meta_move": "drag_end", "rt": "1282.0", "trial_number": "1", "pre_actions": "1", "move": "6@9", "instance": "prb717", "distance_to_goal": "NA", "progress": "NA", "move_number": "9", "optimal_length": "11", "subject": "A2EPBSY0VPI38S:37WLF8U1WQYZ4AWKEQXSIM1ELVEK6W"}
{"meta_move": "drag_end", "rt": "3607.0", "trial_number": "1", "pre_actions": "1", "move": "6@10", "instance": "prb717", "distance_to_goal": "NA", "progress": "NA", "move_number": "10", "optimal_length": "11", "subject": "A2EPBSY0VPI38S:37WLF8U1WQYZ4AWKEQXSIM1ELVEK6W"}
{"meta_move": "drag_end", "rt": "2006.0", "trial_number": "1", "pre_actions": "1", "move": "2@7", "instance": "prb717", "distance_to_goal": "NA", "progress": "NA", "move_number": "11", "optimal_length": "11", "subject": "A2EPBSY0VPI38S:37WLF8U1WQYZ4AWKEQXSIM1ELVEK6W"}
{"meta_move": "drag_end", "rt": "1642.0", "trial_number": "1", "pre_actions": "1", "move": "5@18", "instance": "prb717", "distance_to_goal": "NA", "progress": "NA", "move_number": "12", "optimal_length": "11", "subject": "A2EPBSY0VPI38S:37WLF8U1WQYZ4AWKEQXSIM1ELVEK6W"}
{"meta_move": "drag_end", "rt": "2086.0", "trial_number": "1", "pre_actions": "1", "move": "3@30", "instance": "prb717", "distance_to_goal": "NA", "progress": "NA", "move_number": "13", "optimal_length": "11", "subject": "A2EPBSY0VPI38S:37WLF8U1WQYZ4AWKEQXSIM1ELVEK6W"}
{"meta_move": "drag_end", "rt": "1818.0", "trial_number": "1", "pre_actions": "1", "move": "1@26", "instance": "prb717", "distance_to_goal": "NA", "progress": "NA", "move_number": "14", "optimal_length": "11", "subject": "A2EPBSY0VPI38S:37WLF8U1WQYZ4AWKEQXSIM1ELVEK6W"}
{"meta_move": "drag_end", "rt": "2203.0", "trial_number": "1", "pre_actions": "1", "move": "2@6", "instance": "prb717", "distance_to_goal": "NA", "progress": "NA", "move_number": "15", "optimal_length": "11", "subject": "A2EPBSY0VPI38S:37WLF8U1WQYZ4AWKEQXSIM1ELVEK6W"}
{"meta_move": "drag_end", "rt": "1200.0", "trial_number": "1", "pre_actions": "1", "move": "6@9", "instance": "prb717", "distance_to_goal": "NA", "progress": "NA", "move_number": "16", "optimal_length": "11", "subject": "A2EPBSY0VPI38S:37WLF8U1WQYZ4AWKEQXSIM1ELVEK6W"}
{"meta_move": "drag_end", "rt": "1257.0", "trial_number": "1", "pre_actions": "1", "move": "7@0", "instance": "prb717", "distance_to_goal": "NA", "progress": "NA", "move_number": "17", "optimal_length": "11", "subject": "A2EPBSY0VPI38S:37WLF8U1WQYZ4AWKEQXSIM1ELVEK6W"}
{"meta_move": "drag_end", "rt": "1083.0", "trial_number": "1", "pre_actions": "1", "move": "6@10", "instance": "prb717", "distance_to_goal": "NA", "progress": "NA", "move_number": "18", "optimal_length": "11", "subject": "A2EPBSY0VPI38S:37WLF8U1WQYZ4AWKEQXSIM1ELVEK6W"}
{"meta_move": "drag_end", "rt": "1016.0", "trial_number": "1", "pre_actions": "1", "move": "2@7", "instance": "prb717", "distance_to_goal": "NA", "progress": "NA", "move_number": "19", "optimal_length": "11", "subject": "A2EPBSY0VPI38S:37WLF8U1WQYZ4AWKEQXSIM1ELVEK6W"}
{"meta_move": "drag_end", "rt": "4300.0", "trial_number": "1", "pre_actions": "1", "move": "1@25", "instance": "prb717", "distance_to_goal": "NA", "progress": "NA", "move_number": "20", "optimal_length": "11", "subject": "A2EPBSY0VPI38S:37WLF8U1WQYZ4AWKEQXSIM1ELVEK6W"}
{"meta_move": "drag_end", "rt": "1833.0", "trial_number": "1", "pre_actions": "1", "move": "2@7", "instance": "prb717", "distance_to_goal": "NA", "progress": "NA", "move_number": "21", "optimal_length": "11", "subject": "A2EPBSY0VPI38S:37WLF8U1WQYZ4AWKEQXSIM1ELVEK6W"}
{"meta_move": "drag_end", "rt": "1253.0", "trial_number": "1", "pre_actions": "1", "move": "2@6", "instance": "prb717", "distance_to_goal": "NA", "progress": "NA", "move_number": "21", "optimal_length": "11", "subject": "A2EPBSY0VPI38S:37WLF8U1WQYZ4AWKEQXSIM1ELVEK6W"}
{"meta_move": "drag_end", "rt": "1106.0", "trial_number": "1", "pre_actions": "1", "move": "6@9", "instance": "prb717", "distance_to_goal": "NA", "progress": "NA", "move_number": "22", "optimal_length": "11", "subject": "A2EPBSY0VPI38S:37WLF8U1WQYZ4AWKEQXSIM1ELVEK6W"}
{"meta_move": "drag_end", "rt": "1022.0", "trial_number": "1", "pre_actions": "1", "move": "7@4", "instance": "prb717", "distance_to_goal": "NA", "progress": "NA", "move_number": "23", "optimal_length": "11", "subject": "A2EPBSY0VPI38S:37WLF8U1WQYZ4AWKEQXSIM1ELVEK6W"}
{"meta_move": "drag_end", "rt": "1191.0", "trial_number": "1", "pre_actions": "1", "move": "6@10", "instance": "prb717", "distance_to_goal": "NA", "progress": "NA", "move_number": "24", "optimal_length": "11", "subject": "A2EPBSY0VPI38S:37WLF8U1WQYZ4AWKEQXSIM1ELVEK6W"}
{"meta_move": "drag_end", "rt": "2874.0", "trial_number": "1", "pre_actions": "1", "move": "2@7", "instance": "prb717", "distance_to_goal": "NA", "progress": "NA", "move_number": "25", "optimal_length": "11", "subject": "A2EPBSY0VPI38S:37WLF8U1WQYZ4AWKEQXSIM1ELVEK6W"}
{"meta_move": "drag_end", "rt": "4462.0", "trial_number": "1", "pre_actions": "1", "move": "1@26", "instance": "prb717", "distance_to_goal": "NA", "progress": "NA", "move_number": "26", "optimal_length": "11", "subject": "A2EPBSY0VPI38S:37WLF8U1WQYZ4AWKEQXSIM1ELVEK6W"}
{"meta_move": "drag_end", "rt": "2113.0", "trial_number": "1", "pre_actions": "1", "move": "3@33", "instance": "prb717", "distance_to_goal": "NA", "progress": "NA", "move_number": "27", "optimal_length": "11", "subject": "A2EPBSY0VPI38S:37WLF8U1WQYZ4AWKEQXSIM1ELVEK6W"}
{"meta_move": "drag_end", "rt": "1140.0", "trial_number": "1", "pre_actions": "1", "move": "1@25", "instance": "prb717", "distance_to_goal": "NA", "progress": "NA", "move_number": "28", "optimal_length": "11", "subject": "A2EPBSY0VPI38S:37WLF8U1WQYZ4AWKEQXSIM1ELVEK6W"}
{"meta_move": "drag_end", "rt": "2239.0", "trial_number": "1", "pre_actions": "1", "move": "4@17", "instance": "prb717", "distance_to_goal": "NA", "progress": "NA", "move_number": "29", "optimal_length": "11", "subject": "A2EPBSY0VPI38S:37WLF8U1WQYZ4AWKEQXSIM1ELVEK6W"}
{"meta_move": "drag_end", "rt": "1133.0", "trial_number": "1", "pre_actions": "1", "move": "3@34", "instance": "prb717", "distance_to_goal": "NA", "progress": "NA", "move_number": "30", "optimal_length": "11", "subject": "A2EPBSY0VPI38S:37WLF8U1WQYZ4AWKEQXSIM1ELVEK6W"}
{"meta_move": "drag_end", "rt": "1947.0", "trial_number": "1", "pre_actions": "1", "move": "3@30", "instance": "prb717", "distance_to_goal": "NA", "progress": "NA", "move_number": "31", "optimal_length": "11", "subject": "A2EPBSY0VPI38S:37WLF8U1WQYZ4AWKEQXSIM1ELVEK6W"}
{"meta_move": "drag_end", "rt": "1606.0", "trial_number": "1", "pre_actions": "1", "move": "4@23", "instance": "prb717", "distance_to_goal": "NA", "progress": "NA", "move_number": "32", "optimal_length": "11", "subject": "A2EPBSY0VPI38S:37WLF8U1WQYZ4AWKEQXSIM1ELVEK6W"}
{"meta_move": "drag_end", "rt": "1317.0", "trial_number": "1", "pre_actions": "1", "move": "7@0", "instance": "prb717", "distance_to_goal": "NA", "progress": "NA", "move_number": "33", "optimal_length": "11", "subject": "A2EPBSY0VPI38S:37WLF8U1WQYZ4AWKEQXSIM1ELVEK6W"}
{"meta_move": "drag_end", "rt": "1087.0", "trial_number": "1", "pre_actions": "1", "move": "2@6", "instance": "prb717", "distance_to_goal": "NA", "progress": "NA", "move_number": "34", "optimal_length": "11", "subject": "A2EPBSY0VPI38S:37WLF8U1WQYZ4AWKEQXSIM1ELVEK6W"}
{"meta_move": "drag_end", "rt": "1629.0", "trial_number": "1", "pre_actions": "1", "move": "6@9", "instance": "prb717", "distance_to_goal": "NA", "progress": "NA", "move_number": "35", "optimal_length": "11", "subject": "A2EPBSY0VPI38S:37WLF8U1WQYZ4AWKEQXSIM1ELVEK6W"}
{"meta_move": "drag_end", "rt": "1211.0", "trial_number": "1", "pre_actions": "1", "move": "1@26", "instance": "prb717", "distance_to_goal": "NA", "progress": "NA", "move_number": "36", "optimal_length": "11", "subject": "A2EPBSY0VPI38S:37WLF8U1WQYZ4AWKEQXSIM1ELVEK6W"}
{"meta_move": "drag_end", "rt": "950.0", "trial_number": "1", "pre_actions": "1", "move": "4@5", "instance": "prb717", "distance_to_goal": "NA", "progress": "NA", "move_number": "37", "optimal_length": "11", "subject": "A2EPBSY0VPI38S:37WLF8U1WQYZ4AWKEQXSIM1ELVEK6W"}
{"meta_move": "drag_end", "rt": "1219.0", "trial_number": "1", "pre_actions": "1", "move": "1@27", "instance": "prb717", "distance_to_goal": "NA", "progress": "NA", "move_number": "38", "optimal_length": "11", "subject": "A2EPBSY0VPI38S:37WLF8U1WQYZ4AWKEQXSIM1ELVEK6W"}
{"meta_move": "drag_end", "rt": "1069.0", "trial_number": "1", "pre_actions": "1", "move": "0@26", "instance": "prb717", "distance_to_goal": "NA", "progress": "NA", "move_number": "39", "optimal_length": "11", "subject": "A2EPBSY0VPI38S:37WLF8U1WQYZ4AWKEQXSIM1ELVEK6W"}
{"meta_move": "drag_end", "rt": "1744.0", "trial_number": "1", "pre_actions": "1", "move": "r@15", "instance": "prb717", "distance_to_goal": "NA", "progress": "NA", "move_number": "40", "optimal_length": "11", "subject": "A2EPBSY0VPI38S:37WLF8U1WQYZ4AWKEQXSIM1ELVEK6W"}
{"meta_move": "drag_end", "rt": "998.0", "trial_number": "1", "pre_actions": "1", "move": "0@14", "instance": "prb717", "distance_to_goal": "NA", "progress": "NA", "move_number": "41", "optimal_length": "11", "subject": "A2EPBSY0VPI38S:37WLF8U1WQYZ4AWKEQXSIM1ELVEK6W"}
{"meta_move": "drag_end", "rt": "1290.0", "trial_number": "1", "pre_actions": "1", "move": "1@25", "instance": "prb717", "distance_to_goal": "NA", "progress": "NA", "move_number": "42", "optimal_length": "11", "subject": "A2EPBSY0VPI38S:37WLF8U1WQYZ4AWKEQXSIM1ELVEK6W"}
{"meta_move": "drag_end", "rt": "1972.0", "trial_number": "1", "pre_actions": "1", "move": "4@23", "instance": "prb717", "distance_to_goal": "NA", "progress": "NA", "move_number": "43", "optimal_length": "11", "subject": "A2EPBSY0VPI38S:37WLF8U1WQYZ4AWKEQXSIM1ELVEK6W"}
{"meta_move": "win", "rt": "797.0", "trial_number": "1", "pre_actions": "1", "move": "r@15", "instance": "prb717", "distance_to_goal": "1", "progress": "NA", "move_number": "44", "optimal_length": "11", "subject": "A2EPBSY0VPI38S:37WLF8U1WQYZ4AWKEQXSIM1ELVEK6W"}
{"meta_move": "drag_end", "rt": "302.0", "trial_number": "0", "pre_actions": "0", "move": "r@16", "instance": "prb717", "distance_to_goal": "NA", "progress": "NA", "move_number": "44", "optimal_length": "11", "subject": "A2EPBSY0VPI38S:37WLF8U1WQYZ4AWKEQXSIM1ELVEK6W"}
{"meta_move": "drag_end", "rt": "2209.0", "trial_number": "1", "pre_actions": "1", "move": "2@6", "instance": "prb717", "distance_to_goal": "NA", "progress": "NA", "move_number": "0", "optimal_length": "11", "subject": "A2IBQA01NR5N76:3X4MXAO0BHWJLTOLVSJTHSM54OHWRG"}
{"meta_move": "drag_end", "rt": "780.0", "trial_number": "1", "pre_actions": "1", "move": "6@9", "instance": "prb717", "distance_to_goal": "NA", "progress": "NA", "move_number": "1", "optimal_length": "11", "subject": "A2IBQA01NR5N76:3X4MXAO0BHWJLTOLVSJTHSM54OHWRG"}
{"meta_move": "drag_end", "rt": "983.0", "trial_number": "1", "pre_actions": "1", "move": "4@5", "instance": "prb717", "distance_to_goal": "NA", "progress": "NA", "move_number": "2", "optimal_length": "11", "subject": "A2IBQA01NR5N76:3X4MXAO0BHWJLTOLVSJTHSM54OHWRG"}
{"meta_move": "drag_end", "rt": "1766.0", "trial_number": "1", "pre_actions": "1", "move": "1@27", "instance": "prb717", "distance_to_goal": "NA", "progress": "NA", "move_number": "3", "optimal_length": "11", "subject": "A2IBQA01NR5N76:3X4MXAO0BHWJLTOLVSJTHSM54OHWRG"}
{"meta_move": "drag_end", "rt": "786.0", "trial_number": "1", "pre_actions": "1", "move": "0@26", "instance": "prb717", "distance_to_goal": "NA", "progress": "NA", "move_number": "4", "optimal_length": "11", "subject": "A2IBQA01NR5N76:3X4MXAO0BHWJLTOLVSJTHSM54OHWRG"}
{"meta_move": "drag_end", "rt": "1640.0", "trial_number": "1", "pre_actions": "1", "move": "r@15", "instance": "prb717", "distance_to_goal": "NA", "progress": "NA", "move_number": "5", "optimal_length": "11", "subject": "A2IBQA01NR5N76:3X4MXAO0BHWJLTOLVSJTHSM54OHWRG"}
{"meta_move": "drag_end", "rt": "1192.0", "trial_number": "1", "pre_actions": "1", "move": "0@14", "instance": "prb717", "distance_to_goal": "NA", "progress": "NA", "move_number": "6", "optimal_length": "11", "subject": "A2IBQA01NR5N76:3X4MXAO0BHWJLTOLVSJTHSM54OHWRG"}
{"meta_move": "drag_end", "rt": "728.0", "trial_number": "1", "pre_actions": "1", "move": "1@25", "instance": "prb717", "distance_to_goal": "NA", "progress": "NA", "move_number": "7", "optimal_length": "11", "subject": "A2IBQA01NR5N76:3X4MXAO0BHWJLTOLVSJTHSM54OHWRG"}
{"meta_move": "drag_end", "rt": "927.0", "trial_number": "1", "pre_actions": "1", "move": "4@23", "instance": "prb717", "distance_to_goal": "NA", "progress": "NA", "move_number": "8", "optimal_length": "11", "subject": "A2IBQA01NR5N76:3X4MXAO0BHWJLTOLVSJTHSM54OHWRG"}
{"meta_move": "win", "rt": "490.0", "trial_number": "1", "pre_actions": "1", "move": "r@15", "instance": "prb717", "distance_to_goal": "1", "progress": "NA", "move_number": "9", "optimal_length": "11", "subject": "A2IBQA01NR5N76:3X4MXAO0BHWJLTOLVSJTHSM54OHWRG"}
{"meta_move": "drag_end", "rt": "629.0", "trial_number": "0", "pre_actions": "0", "move": "r@16", "instance": "prb717", "distance_to_goal": "NA", "progress": "NA", "move_number": "9", "optimal_length": "11", "subject": "A2IBQA01NR5N76:3X4MXAO0BHWJLTOLVSJTHSM54OHWRG"}
{"meta_move": "drag_end", "rt": "2372.0", "trial_number": "1", "pre_actions": "1", "move": "3@32", "instance": "prb717", "distance_to_goal": "NA", "progress": "NA", "move_number": "0", "optimal_length": "11", "subject": "A2TQNX64349OZ9:3WSELTNVR4AZUVYAYCSWZIQW0J4ATB"}
{"meta_move": "drag_end", "rt": "734.0", "trial_number": "1", "pre_actions": "1", "move": "5@18", "instance": "prb717", "distance_to_goal": "NA", "progress": "NA", "move_number": "1", "optimal_length": "11", "subject": "A2TQNX64349OZ9:3WSELTNVR4AZUVYAYCSWZIQW0J4ATB"}
{"meta_move": "drag_end", "rt": "630.0", "trial_number": "1", "pre_actions": "1", "move": "3@30", "instance": "prb717", "distance_to_goal": "NA", "progress": "NA", "move_number": "2", "optimal_length": "11", "subject": "A2TQNX64349OZ9:3WSELTNVR4AZUVYAYCSWZIQW0J4ATB"}
{"meta_move": "drag_end", "rt": "1117.0", "trial_number": "1", "pre_actions": "1", "move": "1@25", "instance": "prb717", "distance_to_goal": "NA", "progress": "NA", "move_number": "3", "optimal_length": "11", "subject": "A2TQNX64349OZ9:3WSELTNVR4AZUVYAYCSWZIQW0J4ATB"}
{"meta_move": "drag_end", "rt": "927.0", "trial_number": "1", "pre_actions": "1", "move": "4@23", "instance": "prb717", "distance_to_goal": "NA", "progress": "NA", "move_number": "4", "optimal_length": "11", "subject": "A2TQNX64349OZ9:3WSELTNVR4AZUVYAYCSWZIQW0J4ATB"}
{"meta_move": "drag_end", "rt": "2561.0", "trial_number": "1", "pre_actions": "1", "move": "1@26", "instance": "prb717", "distance_to_goal": "NA", "progress": "NA", "move_number": "5", "optimal_length": "11", "subject": "A2TQNX64349OZ9:3WSELTNVR4AZUVYAYCSWZIQW0J4ATB"}
{"meta_move": "drag_end", "rt": "723.0", "trial_number": "1", "pre_actions": "1", "move": "4@17", "instance": "prb717", "distance_to_goal": "NA", "progress": "NA", "move_number": "6", "optimal_length": "11", "subject": "A2TQNX64349OZ9:3WSELTNVR4AZUVYAYCSWZIQW0J4ATB"}
{"meta_move": "drag_end", "rt": "2976.0", "trial_number": "1", "pre_actions": "1", "move": "2@6", "instance": "prb717", "distance_to_goal": "NA", "progress": "NA", "move_number": "7", "optimal_length": "11", "subject": "A2TQNX64349OZ9:3WSELTNVR4AZUVYAYCSWZIQW0J4ATB"}
{"meta_move": "drag_end", "rt": "673.0", "trial_number": "1", "pre_actions": "1", "move": "6@9", "instance": "prb717", "distance_to_goal": "NA", "progress": "NA", "move_number": "8", "optimal_length": "11", "subject": "A2TQNX64349OZ9:3WSELTNVR4AZUVYAYCSWZIQW0J4ATB"}
{"meta_move": "drag_end", "rt": "910.0", "trial_number": "1", "pre_actions": "1", "move": "4@5", "instance": "prb717", "distance_to_goal": "NA", "progress": "NA", "move_number": "9", "optimal_length": "11", "subject": "A2TQNX64349OZ9:3WSELTNVR4AZUVYAYCSWZIQW0J4ATB"}
{"meta_move": "drag_end", "rt": "1927.0", "trial_number": "1", "pre_actions": "1", "move": "1@25", "instance": "prb717", "distance_to_goal": "NA", "progress": "NA", "move_number": "10", "optimal_length": "11", "subject": "A2TQNX64349OZ9:3WSELTNVR4AZUVYAYCSWZIQW0J4ATB"}
{"meta_move": "drag_end", "rt": "959.0", "trial_number": "1", "pre_actions": "1", "move": "1@27", "instance": "prb717", "distance_to_goal": "NA", "progress": "NA", "move_number": "11", "optimal_length": "11", "subject": "A2TQNX64349OZ9:3WSELTNVR4AZUVYAYCSWZIQW0J4ATB"}
{"meta_move": "drag_end", "rt": "1186.0", "trial_number": "1", "pre_actions": "1", "move": "0@26", "instance": "prb717", "distance_to_goal": "NA", "progress": "NA", "move_number": "12", "optimal_length": "11", "subject": "A2TQNX64349OZ9:3WSELTNVR4AZUVYAYCSWZIQW0J4ATB"}
{"meta_move": "drag_end", "rt": "1361.0", "trial_number": "1", "pre_actions": "1", "move": "6@9", "instance": "prb717", "distance_to_goal": "NA", "progress": "NA", "move_number": "13", "optimal_length": "11", "subject": "A2TQNX64349OZ9:3WSELTNVR4AZUVYAYCSWZIQW0J4ATB"}
{"meta_move": "drag_end", "rt": "599.0", "trial_number": "1", "pre_actions": "1", "move": "7@3", "instance": "prb717", "distance_to_goal": "NA", "progress": "NA", "move_number": "13", "optimal_length": "11", "subject": "A2TQNX64349OZ9:3WSELTNVR4AZUVYAYCSWZIQW0J4ATB"}
{"meta_move": "drag_end", "rt": "1324.0", "trial_number": "1", "pre_actions": "1", "move": "2@6", "instance": "prb717", "distance_to_goal": "NA", "progress": "NA", "move_number": "14", "optimal_length": "11", "subject": "A2TQNX64349OZ9:3WSELTNVR4AZUVYAYCSWZIQW0J4ATB"}
{"meta_move": "drag_end", "rt": "659.0", "trial_number": "1", "pre_actions": "1", "move": "r@15", "instance": "prb717", "distance_to_goal": "NA", "progress": "NA", "move_number": "14", "optimal_length": "11", "subject": "A2TQNX64349OZ9:3WSELTNVR4AZUVYAYCSWZIQW0J4ATB"}
{"meta_move": "drag_end", "rt": "636.0", "trial_number": "1", "pre_actions": "1", "move": "4@11", "instance": "prb717", "distance_to_goal": "NA", "progress": "NA", "move_number": "15", "optimal_length": "11", "subject": "A2TQNX64349OZ9:3WSELTNVR4AZUVYAYCSWZIQW0J4ATB"}
{"meta_move": "drag_end", "rt": "596.0", "trial_number": "1", "pre_actions": "1", "move": "1@27", "instance": "prb717", "distance_to_goal": "NA", "progress": "NA", "move_number": "16", "optimal_length": "11", "subject": "A2TQNX64349OZ9:3WSELTNVR4AZUVYAYCSWZIQW0J4ATB"}
{"meta_move": "drag_end", "rt": "716.0", "trial_number": "1", "pre_actions": "1", "move": "5@12", "instance": "prb717", "distance_to_goal": "NA", "progress": "NA", "move_number": "16", "optimal_length": "11", "subject": "A2TQNX64349OZ9:3WSELTNVR4AZUVYAYCSWZIQW0J4ATB"}
{"meta_move": "drag_end", "rt": "794.0", "trial_number": "1", "pre_actions": "1", "move": "3@30", "instance": "prb717", "distance_to_goal": "NA", "progress": "NA", "move_number": "17", "optimal_length": "11", "subject": "A2TQNX64349OZ9:3WSELTNVR4AZUVYAYCSWZIQW0J4ATB"}
{"meta_move": "drag_end", "rt": "515.0", "trial_number": "1", "pre_actions": "1", "move": "0@14", "instance": "prb717", "distance_to_goal": "NA", "progress": "NA", "move_number": "17", "optimal_length": "11", "subject": "A2TQNX64349OZ9:3WSELTNVR4AZUVYAYCSWZIQW0J4ATB"}
{"meta_move": "drag_end", "rt": "898.0", "trial_number": "1", "pre_actions": "1", "move": "1@24", "instance": "prb717", "distance_to_goal": "NA", "progress": "NA", "move_number": "18", "optimal_length": "11", "subject": "A2TQNX64349OZ9:3WSELTNVR4AZUVYAYCSWZIQW0J4ATB"}
{"meta_move": "drag_end", "rt": "909.0", "trial_number": "1", "pre_actions": "1", "move": "4@23", "instance": "prb717", "distance_to_goal": "NA", "progress": "NA", "move_number": "19", "optimal_length": "11", "subject": "A2TQNX64349OZ9:3WSELTNVR4AZUVYAYCSWZIQW0J4ATB"}
{"meta_move": "win", "rt": "737.0", "trial_number": "1", "pre_actions": "1", "move": "r@15", "instance": "prb717", "distance_to_goal": "1", "progress": "NA", "move_number": "20", "optimal_length": "11", "subject": "A2TQNX64349OZ9:3WSELTNVR4AZUVYAYCSWZIQW0J4ATB"}
{"meta_move": "drag_end", "rt": "42.0", "trial_number": "0", "pre_actions": "0", "move": "r@16", "instance": "prb717", "distance_to_goal": "NA", "progress": "NA", "move_number": "20", "optimal_length": "11", "subject": "A2TQNX64349OZ9:3WSELTNVR4AZUVYAYCSWZIQW0J4ATB"}
{"meta_move": "drag_end", "rt": "5699.0", "trial_number": "1", "pre_actions": "1", "move": "2@6", "instance": "prb717", "distance_to_goal": "NA", "progress": "NA", "move_number": "0", "optimal_length": "11", "subject": "A3Q0XAGQ7TD7MP:3X87C8JFV7JQ2BSCY8KSFD9F2ILSQK"}
{"meta_move": "drag_end", "rt": "1122.0", "trial_number": "1", "pre_actions": "1", "move": "6@9", "instance": "prb717", "distance_to_goal": "NA", "progress": "NA", "move_number": "1", "optimal_length": "11", "subject": "A3Q0XAGQ7TD7MP:3X87C8JFV7JQ2BSCY8KSFD9F2ILSQK"}
{"meta_move": "drag_end", "rt": "1019.0", "trial_number": "1", "pre_actions": "1", "move": "4@11", "instance": "prb717", "distance_to_goal": "NA", "progress": "NA", "move_number": "2", "optimal_length": "11", "subject": "A3Q0XAGQ7TD7MP:3X87C8JFV7JQ2BSCY8KSFD9F2ILSQK"}
{"meta_move": "drag_end", "rt": "1672.0", "trial_number": "1", "pre_actions": "1", "move": "1@26", "instance": "prb717", "distance_to_goal": "NA", "progress": "NA", "move_number": "3", "optimal_length": "11", "subject": "A3Q0XAGQ7TD7MP:3X87C8JFV7JQ2BSCY8KSFD9F2ILSQK"}
{"meta_move": "drag_end", "rt": "99.0", "trial_number": "1", "pre_actions": "1", "move": "1@26", "instance": "prb717", "distance_to_goal": "NA", "progress": "NA", "move_number": "3", "optimal_length": "11", "subject": "A3Q0XAGQ7TD7MP:3X87C8JFV7JQ2BSCY8KSFD9F2ILSQK"}
{"meta_move": "drag_end", "rt": "3365.0", "trial_number": "1", "pre_actions": "1", "move": "1@27", "instance": "prb717", "distance_to_goal": "NA", "progress": "NA", "move_number": "3", "optimal_length": "11", "subject": "A3Q0XAGQ7TD7MP:3X87C8JFV7JQ2BSCY8KSFD9F2ILSQK"}
{"meta_move": "drag_end", "rt": "1132.0", "trial_number": "1", "pre_actions": "1", "move": "0@26", "instance": "prb717", "distance_to_goal": "NA", "progress": "NA", "move_number": "4", "optimal_length": "11", "subject": "A3Q0XAGQ7TD7MP:3X87C8JFV7JQ2BSCY8KSFD9F2ILSQK"}
{"meta_move": "drag_end", "rt": "1268.0", "trial_number": "1", "pre_actions": "1", "move": "4@5", "instance": "prb717", "distance_to_goal": "NA", "progress": "NA", "move_number": "5", "optimal_length": "11", "subject": "A3Q0XAGQ7TD7MP:3X87C8JFV7JQ2BSCY8KSFD9F2ILSQK"}
{"meta_move": "drag_end", "rt": "4384.0", "trial_number": "1", "pre_actions": "1", "move": "r@15", "instance": "prb717", "distance_to_goal": "NA", "progress": "NA", "move_number": "6", "optimal_length": "11", "subject": "A3Q0XAGQ7TD7MP:3X87C8JFV7JQ2BSCY8KSFD9F2ILSQK"}
{"meta_move": "drag_end", "rt": "1092.0", "trial_number": "1", "pre_actions": "1", "move": "0@14", "instance": "prb717", "distance_to_goal": "NA", "progress": "NA", "move_number": "7", "optimal_length": "11", "subject": "A3Q0XAGQ7TD7MP:3X87C8JFV7JQ2BSCY8KSFD9F2ILSQK"}
{"meta_move": "drag_end", "rt": "1121.0", "trial_number": "1", "pre_actions": "1", "move": "1@25", "instance": "prb717", "distance_to_goal": "NA", "progress": "NA", "move_number": "8", "optimal_length": "11", "subject": "A3Q0XAGQ7TD7MP:3X87C8JFV7JQ2BSCY8KSFD9F2ILSQK"}
{"meta_move": "drag_end", "rt": "1041.0", "trial_number": "1", "pre_actions": "1", "move": "3@31", "instance": "prb717", "distance_to_goal": "NA", "progress": "NA", "move_number": "9", "optimal_length": "11", "subject": "A3Q0XAGQ7TD7MP:3X87C8JFV7JQ2BSCY8KSFD9F2ILSQK"}
{"meta_move": "drag_end", "rt": "1226.0", "trial_number": "1", "pre_actions": "1", "move": "4@23", "instance": "prb717", "distance_to_goal": "NA", "progress": "NA", "move_number": "10", "optimal_length": "11", "subject": "A3Q0XAGQ7TD7MP:3X87C8JFV7JQ2BSCY8KSFD9F2ILSQK"}
{"meta_move": "win", "rt": "1210.0", "trial_number": "1", "pre_actions": "1", "move": "r@15", "instance": "prb717", "distance_to_goal": "1", "progress": "NA", "move_number": "11", "optimal_length": "11", "subject": "A3Q0XAGQ7TD7MP:3X87C8JFV7JQ2BSCY8KSFD9F2ILSQK"}
{"meta_move": "drag_end", "rt": "102.0", "trial_number": "0", "pre_actions": "0", "move": "r@16", "instance": "prb717", "distance_to_goal": "NA", "progress": "NA", "move_number": "11", "optimal_length": "11", "subject": "A3Q0XAGQ7TD7MP:3X87C8JFV7JQ2BSCY8KSFD9F2ILSQK"}
{"meta_move": "drag_end", "rt": "3339.0", "trial_number": "2", "pre_actions": "1", "move": "4@23", "instance": "prb717", "distance_to_goal": "NA", "progress": "NA", "move_number": "0", "optimal_length": "11", "subject": "A58QOLDFC179Q:3ON104KXQL4CKNMNKGNG9ZBVBAB4WI"}
{"meta_move": "drag_end", "rt": "1553.0", "trial_number": "2", "pre_actions": "1", "move": "3@31", "instance": "prb717", "distance_to_goal": "NA", "progress": "NA", "move_number": "1", "optimal_length": "11", "subject": "A58QOLDFC179Q:3ON104KXQL4CKNMNKGNG9ZBVBAB4WI"}
{"meta_move": "drag_end", "rt": "783.0", "trial_number": "2", "pre_actions": "1", "move": "1@25", "instance": "prb717", "distance_to_goal": "NA", "progress": "NA", "move_number": "2", "optimal_length": "11", "subject": "A58QOLDFC179Q:3ON104KXQL4CKNMNKGNG9ZBVBAB4WI"}
{"meta_move": "drag_end", "rt": "1664.0", "trial_number": "2", "pre_actions": "1", "move": "2@6", "instance": "prb717", "distance_to_goal": "NA", "progress": "NA", "move_number": "3", "optimal_length": "11", "subject": "A58QOLDFC179Q:3ON104KXQL4CKNMNKGNG9ZBVBAB4WI"}
{"meta_move": "drag_end", "rt": "2008.0", "trial_number": "2", "pre_actions": "1", "move": "7@4", "instance": "prb717", "distance_to_goal": "NA", "progress": "NA", "move_number": "4", "optimal_length": "11", "subject": "A58QOLDFC179Q:3ON104KXQL4CKNMNKGNG9ZBVBAB4WI"}
{"meta_move": "drag_end", "rt": "4728.0", "trial_number": "2", "pre_actions": "1", "move": "4@23", "instance": "prb717", "distance_to_goal": "NA", "progress": "NA", "move_number": "5", "optimal_length": "11", "subject": "A58QOLDFC179Q:3ON104KXQL4CKNMNKGNG9ZBVBAB4WI"}
{"meta_move": "drag_end", "rt": "775.0", "trial_number": "2", "pre_actions": "1", "move": "4@17", "instance": "prb717", "distance_to_goal": "NA", "progress": "NA", "move_number": "5", "optimal_length": "11", "subject": "A58QOLDFC179Q:3ON104KXQL4CKNMNKGNG9ZBVBAB4WI"}
{"meta_move": "drag_end", "rt": "14354.0", "trial_number": "2", "pre_actions": "1", "move": "3@34", "instance": "prb717", "distance_to_goal": "NA", "progress": "NA", "move_number": "6", "optimal_length": "11", "subject": "A58QOLDFC179Q:3ON104KXQL4CKNMNKGNG9ZBVBAB4WI"}
{"meta_move": "drag_end", "rt": "1057.0", "trial_number": "2", "pre_actions": "1", "move": "1@26", "instance": "prb717", "distance_to_goal": "NA", "progress": "NA", "move_number": "7", "optimal_length": "11", "subject": "A58QOLDFC179Q:3ON104KXQL4CKNMNKGNG9ZBVBAB4WI"}
{"meta_move": "drag_end", "rt": "1230.0", "trial_number": "2", "pre_actions": "1", "move": "1@25", "instance": "prb717", "distance_to_goal": "NA", "progress": "NA", "move_number": "8", "optimal_length": "11", "subject": "A58QOLDFC179Q:3ON104KXQL4CKNMNKGNG9ZBVBAB4WI"}
{"meta_move": "drag_end", "rt": "977.0", "trial_number": "2", "pre_actions": "1", "move": "5@18", "instance": "prb717", "distance_to_goal": "NA", "progress": "NA", "move_number": "9", "optimal_length": "11", "subject": "A58QOLDFC179Q:3ON104KXQL4CKNMNKGNG9ZBVBAB4WI"}
{"meta_move": "drag_end", "rt": "943.0", "trial_number": "2", "pre_actions": "1", "move": "1@26", "instance": "prb717", "distance_to_goal": "NA", "progress": "NA", "move_number": "10", "optimal_length": "11", "subject": "A58QOLDFC179Q:3ON104KXQL4CKNMNKGNG9ZBVBAB4WI"}
{"meta_move": "drag_end", "rt": "993.0", "trial_number": "2", "pre_actions": "1", "move": "2@7", "instance": "prb717", "distance_to_goal": "NA", "progress": "NA", "move_number": "11", "optimal_length": "11", "subject": "A58QOLDFC179Q:3ON104KXQL4CKNMNKGNG9ZBVBAB4WI"}
{"meta_move": "drag_end", "rt": "7056.0", "trial_number": "3", "pre_actions": "1", "move": "6@10", "instance": "prb717", "distance_to_goal": "NA", "progress": "NA", "move_number": "0", "optimal_length": "11", "subject": "A58QOLDFC179Q:3ON104KXQL4CKNMNKGNG9ZBVBAB4WI"}
{"meta_move": "drag_end", "rt": "4032.0", "trial_number": "3", "pre_actions": "1", "move": "3@34", "instance": "prb717", "distance_to_goal": "NA", "progress": "NA", "move_number": "0", "optimal_length": "11", "subject": "A58QOLDFC179Q:3ON104KXQL4CKNMNKGNG9ZBVBAB4WI"}
{"meta_move": "drag_end", "rt": "2344.0", "trial_number": "3", "pre_actions": "1", "move": "1@26", "instance": "prb717", "distance_to_goal": "NA", "progress": "NA", "move_number": "1", "optimal_length": "11", "subject": "A58QOLDFC179Q:3ON104KXQL4CKNMNKGNG9ZBVBAB4WI"}
{"meta_move": "drag_end", "rt": "1952.0", "trial_number": "3", "pre_actions": "1", "move": "2@6", "instance": "prb717", "distance_to_goal": "NA", "progress": "NA", "move_number": "1", "optimal_length": "11", "subject": "A58QOLDFC179Q:3ON104KXQL4CKNMNKGNG9ZBVBAB4WI"}
{"meta_move": "drag_end", "rt": "752.0", "trial_number": "3", "pre_actions": "1", "move": "6@9", "instance": "prb717", "distance_to_goal": "NA", "progress": "NA", "move_number": "2", "optimal_length": "11", "subject": "A58QOLDFC179Q:3ON104KXQL4CKNMNKGNG9ZBVBAB4WI"}
{"meta_move": "drag_end", "rt": "872.0", "trial_number": "3", "pre_actions": "1", "move": "4@11", "instance": "prb717", "distance_to_goal": "NA", "progress": "NA", "move_number": "3", "optimal_length": "11", "subject": "A58QOLDFC179Q:3ON104KXQL4CKNMNKGNG9ZBVBAB4WI"}
{"meta_move": "drag_end", "rt": "1367.0", "trial_number": "3", "pre_actions": "1", "move": "4@5", "instance": "prb717", "distance_to_goal": "NA", "progress": "NA", "move_number": "4", "optimal_length": "11", "subject": "A58QOLDFC179Q:3ON104KXQL4CKNMNKGNG9ZBVBAB4WI"}
{"meta_move": "drag_end", "rt": "1233.0", "trial_number": "3", "pre_actions": "1", "move": "1@27", "instance": "prb717", "distance_to_goal": "NA", "progress": "NA", "move_number": "5", "optimal_length": "11", "subject": "A58QOLDFC179Q:3ON104KXQL4CKNMNKGNG9ZBVBAB4WI"}
{"meta_move": "drag_end", "rt": "2039.0", "trial_number": "3", "pre_actions": "1", "move": "0@26", "instance": "prb717", "distance_to_goal": "NA", "progress": "NA", "move_number": "6", "optimal_length": "11", "subject": "A58QOLDFC179Q:3ON104KXQL4CKNMNKGNG9ZBVBAB4WI"}
{"meta_move": "drag_end", "rt": "2321.0", "trial_number": "3", "pre_actions": "1", "move": "r@13", "instance": "prb717", "distance_to_goal": "NA", "progress": "NA", "move_number": "7", "optimal_length": "11", "subject": "A58QOLDFC179Q:3ON104KXQL4CKNMNKGNG9ZBVBAB4WI"}
{"meta_move": "drag_end", "rt": "888.0", "trial_number": "3", "pre_actions": "1", "move": "5@12", "instance": "prb717", "distance_to_goal": "NA", "progress": "NA", "move_number": "8", "optimal_length": "11", "subject": "A58QOLDFC179Q:3ON104KXQL4CKNMNKGNG9ZBVBAB4WI"}
{"meta_move": "drag_end", "rt": "1247.0", "trial_number": "3", "pre_actions": "1", "move": "0@20", "instance": "prb717", "distance_to_goal": "NA", "progress": "NA", "move_number": "9", "optimal_length": "11", "subject": "A58QOLDFC179Q:3ON104KXQL4CKNMNKGNG9ZBVBAB4WI"}
{"meta_move": "drag_end", "rt": "1425.0", "trial_number": "3", "pre_actions": "1", "move": "3@30", "instance": "prb717", "distance_to_goal": "NA", "progress": "NA", "move_number": "10", "optimal_length": "11", "subject": "A58QOLDFC179Q:3ON104KXQL4CKNMNKGNG9ZBVBAB4WI"}
{"meta_move": "drag_end", "rt": "1047.0", "trial_number": "3", "pre_actions": "1", "move": "0@26", "instance": "prb717", "distance_to_goal": "NA", "progress": "NA", "move_number": "11", "optimal_length": "11", "subject": "A58QOLDFC179Q:3ON104KXQL4CKNMNKGNG9ZBVBAB4WI"}
{"meta_move": "drag_end", "rt": "848.0", "trial_number": "3", "pre_actions": "1", "move": "1@27", "instance": "prb717", "distance_to_goal": "NA", "progress": "NA", "move_number": "12", "optimal_length": "11", "subject": "A58QOLDFC179Q:3ON104KXQL4CKNMNKGNG9ZBVBAB4WI"}
{"meta_move": "drag_end", "rt": "1232.0", "trial_number": "3", "pre_actions": "1", "move": "4@5", "instance": "prb717", "distance_to_goal": "NA", "progress": "NA", "move_number": "12", "optimal_length": "11", "subject": "A58QOLDFC179Q:3ON104KXQL4CKNMNKGNG9ZBVBAB4WI"}
{"meta_move": "drag_end", "rt": "2849.0", "trial_number": "3", "pre_actions": "1", "move": "r@15", "instance": "prb717", "distance_to_goal": "NA", "progress": "NA", "move_number": "12", "optimal_length": "11", "subject": "A58QOLDFC179Q:3ON104KXQL4CKNMNKGNG9ZBVBAB4WI"}
{"meta_move": "drag_end", "rt": "1039.0", "trial_number": "3", "pre_actions": "1", "move": "0@14", "instance": "prb717", "distance_to_goal": "NA", "progress": "NA", "move_number": "13", "optimal_length": "11", "subject": "A58QOLDFC179Q:3ON104KXQL4CKNMNKGNG9ZBVBAB4WI"}
{"meta_move": "drag_end", "rt": "1081.0", "trial_number": "3", "pre_actions": "1", "move": "1@24", "instance": "prb717", "distance_to_goal": "NA", "progress": "NA", "move_number": "14", "optimal_length": "11", "subject": "A58QOLDFC179Q:3ON104KXQL4CKNMNKGNG9ZBVBAB4WI"}
{"meta_move": "drag_end", "rt": "791.0", "trial_number": "3", "pre_actions": "1", "move": "4@23", "instance": "prb717", "distance_to_goal": "NA", "progress": "NA", "move_number": "15", "optimal_length": "11", "subject": "A58QOLDFC179Q:3ON104KXQL4CKNMNKGNG9ZBVBAB4WI"}
{"meta_move": "win", "rt": "520.0", "trial_number": "3", "pre_actions": "1", "move": "r@15", "instance": "prb717", "distance_to_goal": "1", "progress": "NA", "move_number": "16", "optimal_length": "11", "subject": "A58QOLDFC179Q:3ON104KXQL4CKNMNKGNG9ZBVBAB4WI"}
{"meta_move": "drag_end", "rt": "120.0", "trial_number": "0", "pre_actions": "0", "move": "r@16", "instance": "prb717", "distance_to_goal": "NA", "progress": "NA", "move_number": "16", "optimal_length": "11", "subject": "A58QOLDFC179Q:3ON104KXQL4CKNMNKGNG9ZBVBAB4WI"}
{"meta_move": "drag_end", "rt": "3317.0", "trial_number": "1", "pre_actions": "1", "move": "4@23", "instance": "prb717", "distance_to_goal": "NA", "progress": "NA", "move_number": "0", "optimal_length": "11", "subject": "ARWF605I7RWM7:3AZHRG4CU5SYU12YRVPCSZALW5003R"}
{"meta_move": "drag_end", "rt": "808.0", "trial_number": "1", "pre_actions": "1", "move": "3@31", "instance": "prb717", "distance_to_goal": "NA", "progress": "NA", "move_number": "1", "optimal_length": "11", "subject": "ARWF605I7RWM7:3AZHRG4CU5SYU12YRVPCSZALW5003R"}
{"meta_move": "drag_end", "rt": "1577.0", "trial_number": "1", "pre_actions": "1", "move": "2@6", "instance": "prb717", "distance_to_goal": "NA", "progress": "NA", "move_number": "2", "optimal_length": "11", "subject": "ARWF605I7RWM7:3AZHRG4CU5SYU12YRVPCSZALW5003R"}
{"meta_move": "drag_end", "rt": "905.0", "trial_number": "1", "pre_actions": "1", "move": "6@9", "instance": "prb717", "distance_to_goal": "NA", "progress": "NA", "move_number": "3", "optimal_length": "11", "subject": "ARWF605I7RWM7:3AZHRG4CU5SYU12YRVPCSZALW5003R"}
{"meta_move": "drag_end", "rt": "823.0", "trial_number": "1", "pre_actions": "1", "move": "1@25", "instance": "prb717", "distance_to_goal": "NA", "progress": "NA", "move_number": "4", "optimal_length": "11", "subject": "ARWF605I7RWM7:3AZHRG4CU5SYU12YRVPCSZALW5003R"}
{"meta_move": "drag_end", "rt": "855.0", "trial_number": "1", "pre_actions": "1", "move": "4@5", "instance": "prb717", "distance_to_goal": "NA", "progress": "NA", "move_number": "5", "optimal_length": "11", "subject": "ARWF605I7RWM7:3AZHRG4CU5SYU12YRVPCSZALW5003R"}
{"meta_move": "drag_end", "rt": "848.0", "trial_number": "1", "pre_actions": "1", "move": "1@27", "instance": "prb717", "distance_to_goal": "NA", "progress": "NA", "move_number": "6", "optimal_length": "11", "subject": "ARWF605I7RWM7:3AZHRG4CU5SYU12YRVPCSZALW5003R"}
{"meta_move": "drag_end", "rt": "721.0", "trial_number": "1", "pre_actions": "1", "move": "3@34", "instance": "prb717", "distance_to_goal": "NA", "progress": "NA", "move_number": "7", "optimal_length": "11", "subject": "ARWF605I7RWM7:3AZHRG4CU5SYU12YRVPCSZALW5003R"}
{"meta_move": "drag_end", "rt": "847.0", "trial_number": "1", "pre_actions": "1", "move": "0@26", "instance": "prb717", "distance_to_goal": "NA", "progress": "NA", "move_number": "8", "optimal_length": "11", "subject": "ARWF605I7RWM7:3AZHRG4CU5SYU12YRVPCSZALW5003R"}
{"meta_move": "drag_end", "rt": "840.0", "trial_number": "1", "pre_actions": "1", "move": "r@15", "instance": "prb717", "distance_to_goal": "NA", "progress": "NA", "move_number": "9", "optimal_length": "11", "subject": "ARWF605I7RWM7:3AZHRG4CU5SYU12YRVPCSZALW5003R"}
{"meta_move": "drag_end", "rt": "658.0", "trial_number": "1", "pre_actions": "1", "move": "5@12", "instance": "prb717", "distance_to_goal": "NA", "progress": "NA", "move_number": "10", "optimal_length": "11", "subject": "ARWF605I7RWM7:3AZHRG4CU5SYU12YRVPCSZALW5003R"}
{"meta_move": "drag_end", "rt": "551.0", "trial_number": "1", "pre_actions": "1", "move": "0@14", "instance": "prb717", "distance_to_goal": "NA", "progress": "NA", "move_number": "11", "optimal_length": "11", "subject": "ARWF605I7RWM7:3AZHRG4CU5SYU12YRVPCSZALW5003R"}
{"meta_move": "drag_end", "rt": "623.0", "trial_number": "1", "pre_actions": "1", "move": "1@24", "instance": "prb717", "distance_to_goal": "NA", "progress": "NA", "move_number": "12", "optimal_length": "11", "subject": "ARWF605I7RWM7:3AZHRG4CU5SYU12YRVPCSZALW5003R"}
{"meta_move": "drag_end", "rt": "681.0", "trial_number": "1", "pre_actions": "1", "move": "3@30", "instance": "prb717", "distance_to_goal": "NA", "progress": "NA", "move_number": "13", "optimal_length": "11", "subject": "ARWF605I7RWM7:3AZHRG4CU5SYU12YRVPCSZALW5003R"}
{"meta_move": "drag_end", "rt": "736.0", "trial_number": "1", "pre_actions": "1", "move": "4@23", "instance": "prb717", "distance_to_goal": "NA", "progress": "NA", "move_number": "14", "optimal_length": "11", "subject": "ARWF605I7RWM7:3AZHRG4CU5SYU12YRVPCSZALW5003R"}
{"meta_move": "win", "rt": "404.0", "trial_number": "1", "pre_actions": "1", "move": "r@15", "instance": "prb717", "distance_to_goal": "1", "progress": "NA", "move_number": "15", "optimal_length": "11", "subject": "ARWF605I7RWM7:3AZHRG4CU5SYU12YRVPCSZALW5003R"}
{"meta_move": "drag_end", "rt": "147.0", "trial_number": "0", "pre_actions": "0", "move": "r@16", "instance": "prb717", "distance_to_goal": "NA", "progress": "NA", "move_number": "15", "optimal_length": "11", "subject": "ARWF605I7RWM7:3AZHRG4CU5SYU12YRVPCSZALW5003R"}
{"meta_move": "drag_end", "rt": "2772.0", "trial_number": "1", "pre_actions": "1", "move": "1@25", "instance": "prb717", "distance_to_goal": "NA", "progress": "NA", "move_number": "0", "optimal_length": "11", "subject": "AWCO7MG0BHSTQ:3U8YCDAGXQOQ1280P618573W7RSQ0N"}
{"meta_move": "drag_end", "rt": "1630.0", "trial_number": "1", "pre_actions": "1", "move": "3@31", "instance": "prb717", "distance_to_goal": "NA", "progress": "NA", "move_number": "1", "optimal_length": "11", "subject": "AWCO7MG0BHSTQ:3U8YCDAGXQOQ1280P618573W7RSQ0N"}
{"meta_move": "drag_end", "rt": "795.0", "trial_number": "1", "pre_actions": "1", "move": "5@18", "instance": "prb717", "distance_to_goal": "NA", "progress": "NA", "move_number": "2", "optimal_length": "11", "subject": "AWCO7MG0BHSTQ:3U8YCDAGXQOQ1280P618573W7RSQ0N"}
{"meta_move": "drag_end", "rt": "1469.0", "trial_number": "1", "pre_actions": "1", "move": "3@30", "instance": "prb717", "distance_to_goal": "NA", "progress": "NA", "move_number": "3", "optimal_length": "11", "subject": "AWCO7MG0BHSTQ:3U8YCDAGXQOQ1280P618573W7RSQ0N"}
{"meta_move": "drag_end", "rt": "2063.0", "trial_number": "1", "pre_actions": "1", "move": "2@6", "instance": "prb717", "distance_to_goal": "NA", "progress": "NA", "move_number": "4", "optimal_length": "11", "subject": "AWCO7MG0BHSTQ:3U8YCDAGXQOQ1280P618573W7RSQ0N"}
{"meta_move": "drag_end", "rt": "3058.0", "trial_number": "1", "pre_actions": "1", "move": "3@33", "instance": "prb717", "distance_to_goal": "NA", "progress": "NA", "move_number": "5", "optimal_length": "11", "subject": "AWCO7MG0BHSTQ:3U8YCDAGXQOQ1280P618573W7RSQ0N"}
{"meta_move": "drag_end", "rt": "1740.0", "trial_number": "1", "pre_actions": "1", "move": "5@24", "instance": "prb717", "distance_to_goal": "NA", "progress": "NA", "move_number": "6", "optimal_length": "11", "subject": "AWCO7MG0BHSTQ:3U8YCDAGXQOQ1280P618573W7RSQ0N"}
{"meta_move": "drag_end", "rt": "3483.0", "trial_number": "1", "pre_actions": "1", "move": "2@7", "instance": "prb717", "distance_to_goal": "NA", "progress": "NA", "move_number": "7", "optimal_length": "11", "subject": "AWCO7MG0BHSTQ:3U8YCDAGXQOQ1280P618573W7RSQ0N"}
{"meta_move": "drag_end", "rt": "942.0", "trial_number": "1", "pre_actions": "1", "move": "2@6", "instance": "prb717", "distance_to_goal": "NA", "progress": "NA", "move_number": "8", "optimal_length": "11", "subject": "AWCO7MG0BHSTQ:3U8YCDAGXQOQ1280P618573W7RSQ0N"}
{"meta_move": "drag_end", "rt": "1602.0", "trial_number": "1", "pre_actions": "1", "move": "1@26", "instance": "prb717", "distance_to_goal": "NA", "progress": "NA", "move_number": "9", "optimal_length": "11", "subject": "AWCO7MG0BHSTQ:3U8YCDAGXQOQ1280P618573W7RSQ0N"}
{"meta_move": "drag_end", "rt": "1770.0", "trial_number": "1", "pre_actions": "1", "move": "6@9", "instance": "prb717", "distance_to_goal": "NA", "progress": "NA", "move_number": "10", "optimal_length": "11", "subject": "AWCO7MG0BHSTQ:3U8YCDAGXQOQ1280P618573W7RSQ0N"}
{"meta_move": "drag_end", "rt": "986.0", "trial_number": "1", "pre_actions": "1", "move": "4@5", "instance": "prb717", "distance_to_goal": "NA", "progress": "NA", "move_number": "11", "optimal_length": "11", "subject": "AWCO7MG0BHSTQ:3U8YCDAGXQOQ1280P618573W7RSQ0N"}
{"meta_move": "drag_end", "rt": "1669.0", "trial_number": "1", "pre_actions": "1", "move": "1@27", "instance": "prb717", "distance_to_goal": "NA", "progress": "NA", "move_number": "12", "optimal_length": "11", "subject": "AWCO7MG0BHSTQ:3U8YCDAGXQOQ1280P618573W7RSQ0N"}
{"meta_move": "drag_end", "rt": "1147.0", "trial_number": "1", "pre_actions": "1", "move": "0@26", "instance": "prb717", "distance_to_goal": "NA", "progress": "NA", "move_number": "13", "optimal_length": "11", "subject": "AWCO7MG0BHSTQ:3U8YCDAGXQOQ1280P618573W7RSQ0N"}
{"meta_move": "drag_end", "rt": "5020.0", "trial_number": "1", "pre_actions": "1", "move": "r@14", "instance": "prb717", "distance_to_goal": "NA", "progress": "NA", "move_number": "14", "optimal_length": "11", "subject": "AWCO7MG0BHSTQ:3U8YCDAGXQOQ1280P618573W7RSQ0N"}
{"meta_move": "drag_end", "rt": "1830.0", "trial_number": "1", "pre_actions": "1", "move": "4@11", "instance": "prb717", "distance_to_goal": "NA", "progress": "NA", "move_number": "15", "optimal_length": "11", "subject": "AWCO7MG0BHSTQ:3U8YCDAGXQOQ1280P618573W7RSQ0N"}
{"meta_move": "drag_end", "rt": "895.0", "trial_number": "1", "pre_actions": "1", "move": "4@5", "instance": "prb717", "distance_to_goal": "NA", "progress": "NA", "move_number": "16", "optimal_length": "11", "subject": "AWCO7MG0BHSTQ:3U8YCDAGXQOQ1280P618573W7RSQ0N"}
{"meta_move": "drag_end", "rt": "1166.0", "trial_number": "1", "pre_actions": "1", "move": "0@20", "instance": "prb717", "distance_to_goal": "NA", "progress": "NA", "move_number": "17", "optimal_length": "11", "subject": "AWCO7MG0BHSTQ:3U8YCDAGXQOQ1280P618573W7RSQ0N"}
{"meta_move": "drag_end", "rt": "1126.0", "trial_number": "1", "pre_actions": "1", "move": "0@26", "instance": "prb717", "distance_to_goal": "NA", "progress": "NA", "move_number": "18", "optimal_length": "11", "subject": "AWCO7MG0BHSTQ:3U8YCDAGXQOQ1280P618573W7RSQ0N"}
{"meta_move": "drag_end", "rt": "1106.0", "trial_number": "1", "pre_actions": "1", "move": "r@15", "instance": "prb717", "distance_to_goal": "NA", "progress": "NA", "move_number": "19", "optimal_length": "11", "subject": "AWCO7MG0BHSTQ:3U8YCDAGXQOQ1280P618573W7RSQ0N"}
{"meta_move": "drag_end", "rt": "1197.0", "trial_number": "1", "pre_actions": "1", "move": "0@14", "instance": "prb717", "distance_to_goal": "NA", "progress": "NA", "move_number": "20", "optimal_length": "11", "subject": "AWCO7MG0BHSTQ:3U8YCDAGXQOQ1280P618573W7RSQ0N"}
{"meta_move": "drag_end", "rt": "956.0", "trial_number": "1", "pre_actions": "1", "move": "1@25", "instance": "prb717", "distance_to_goal": "NA", "progress": "NA", "move_number": "21", "optimal_length": "11", "subject": "AWCO7MG0BHSTQ:3U8YCDAGXQOQ1280P618573W7RSQ0N"}
{"meta_move": "drag_end", "rt": "1298.0", "trial_number": "1", "pre_actions": "1", "move": "4@23", "instance": "prb717", "distance_to_goal": "NA", "progress": "NA", "move_number": "22", "optimal_length": "11", "subject": "AWCO7MG0BHSTQ:3U8YCDAGXQOQ1280P618573W7RSQ0N"}
{"meta_move": "win", "rt": "1052.0", "trial_number": "1", "pre_actions": "1", "move": "r@15", "instance": "prb717", "distance_to_goal": "1", "progress": "NA", "move_number": "23", "optimal_length": "11", "subject": "AWCO7MG0BHSTQ:3U8YCDAGXQOQ1280P618573W7RSQ0N"}
{"meta_move": "drag_end", "rt": "86.0", "trial_number": "0", "pre_actions": "0", "move": "r@16", "instance": "prb717", "distance_to_goal": "NA", "progress": "NA", "move_number": "23", "optimal_length": "11", "subject": "AWCO7MG0BHSTQ:3U8YCDAGXQOQ1280P618573W7RSQ0N"}
{"meta_move": "drag_end", "rt": "2291.0", "trial_number": "1", "pre_actions": "1", "move": "r@12", "instance": "prb717", "distance_to_goal": "NA", "progress": "NA", "move_number": "0", "optimal_length": "11", "subject": "AYPOAY43REHC8:3ON104KXQL4CKNMNKGNG9ZBVBAB4WI"}
{"meta_move": "drag_end", "rt": "1005.0", "trial_number": "1", "pre_actions": "1", "move": "r@12", "instance": "prb717", "distance_to_goal": "NA", "progress": "NA", "move_number": "0", "optimal_length": "11", "subject": "AYPOAY43REHC8:3ON104KXQL4CKNMNKGNG9ZBVBAB4WI"}
{"meta_move": "drag_end", "rt": "2295.0", "trial_number": "1", "pre_actions": "1", "move": "r@12", "instance": "prb717", "distance_to_goal": "NA", "progress": "NA", "move_number": "0", "optimal_length": "11", "subject": "AYPOAY43REHC8:3ON104KXQL4CKNMNKGNG9ZBVBAB4WI"}
{"meta_move": "drag_end", "rt": "997.0", "trial_number": "1", "pre_actions": "1", "move": "r@12", "instance": "prb717", "distance_to_goal": "NA", "progress": "NA", "move_number": "0", "optimal_length": "11", "subject": "AYPOAY43REHC8:3ON104KXQL4CKNMNKGNG9ZBVBAB4WI"}
{"meta_move": "drag_end", "rt": "624.0", "trial_number": "1", "pre_actions": "1", "move": "r@12", "instance": "prb717", "distance_to_goal": "NA", "progress": "NA", "move_number": "0", "optimal_length": "11", "subject": "AYPOAY43REHC8:3ON104KXQL4CKNMNKGNG9ZBVBAB4WI"}
{"meta_move": "drag_end", "rt": "625.0", "trial_number": "1", "pre_actions": "1", "move": "5@24", "instance": "prb717", "distance_to_goal": "NA", "progress": "NA", "move_number": "0", "optimal_length": "11", "subject": "AYPOAY43REHC8:3ON104KXQL4CKNMNKGNG9ZBVBAB4WI"}
{"meta_move": "drag_end", "rt": "1171.0", "trial_number": "1", "pre_actions": "1", "move": "1@25", "instance": "prb717", "distance_to_goal": "NA", "progress": "NA", "move_number": "0", "optimal_length": "11", "subject": "AYPOAY43REHC8:3ON104KXQL4CKNMNKGNG9ZBVBAB4WI"}
{"meta_move": "drag_end", "rt": "921.0", "trial_number": "1", "pre_actions": "1", "move": "0@14", "instance": "prb717", "distance_to_goal": "NA", "progress": "NA", "move_number": "1", "optimal_length": "11", "subject": "AYPOAY43REHC8:3ON104KXQL4CKNMNKGNG9ZBVBAB4WI"}
{"meta_move": "drag_end", "rt": "723.0", "trial_number": "1", "pre_actions": "1", "move": "0@14", "instance": "prb717", "distance_to_goal": "NA", "progress": "NA", "move_number": "1", "optimal_length": "11", "subject": "AYPOAY43REHC8:3ON104KXQL4CKNMNKGNG9ZBVBAB4WI"}
{"meta_move": "drag_end", "rt": "948.0", "trial_number": "1", "pre_actions": "1", "move": "0@14", "instance": "prb717", "distance_to_goal": "NA", "progress": "NA", "move_number": "1", "optimal_length": "11", "subject": "AYPOAY43REHC8:3ON104KXQL4CKNMNKGNG9ZBVBAB4WI"}
{"meta_move": "drag_end", "rt": "1494.0", "trial_number": "1", "pre_actions": "1", "move": "0@14", "instance": "prb717", "distance_to_goal": "NA", "progress": "NA", "move_number": "1", "optimal_length": "11", "subject": "AYPOAY43REHC8:3ON104KXQL4CKNMNKGNG9ZBVBAB4WI"}
{"meta_move": "drag_end", "rt": "1032.0", "trial_number": "1", "pre_actions": "1", "move": "1@26", "instance": "prb717", "distance_to_goal": "NA", "progress": "NA", "move_number": "1", "optimal_length": "11", "subject": "AYPOAY43REHC8:3ON104KXQL4CKNMNKGNG9ZBVBAB4WI"}
{"meta_move": "drag_end", "rt": "906.0", "trial_number": "1", "pre_actions": "1", "move": "5@24", "instance": "prb717", "distance_to_goal": "NA", "progress": "NA", "move_number": "2", "optimal_length": "11", "subject": "AYPOAY43REHC8:3ON104KXQL4CKNMNKGNG9ZBVBAB4WI"}
{"meta_move": "drag_end", "rt": "1214.0", "trial_number": "1", "pre_actions": "1", "move": "5@18", "instance": "prb717", "distance_to_goal": "NA", "progress": "NA", "move_number": "2", "optimal_length": "11", "subject": "AYPOAY43REHC8:3ON104KXQL4CKNMNKGNG9ZBVBAB4WI"}
{"meta_move": "drag_end", "rt": "1054.0", "trial_number": "1", "pre_actions": "1", "move": "3@30", "instance": "prb717", "distance_to_goal": "NA", "progress": "NA", "move_number": "3", "optimal_length": "11", "subject": "AYPOAY43REHC8:3ON104KXQL4CKNMNKGNG9ZBVBAB4WI"}
{"meta_move": "drag_end", "rt": "1034.0", "trial_number": "1", "pre_actions": "1", "move": "1@26", "instance": "prb717", "distance_to_goal": "NA", "progress": "NA", "move_number": "4", "optimal_length": "11", "subject": "AYPOAY43REHC8:3ON104KXQL4CKNMNKGNG9ZBVBAB4WI"}
{"meta_move": "drag_end", "rt": "1142.0", "trial_number": "1", "pre_actions": "1", "move": "1@25", "instance": "prb717", "distance_to_goal": "NA", "progress": "NA", "move_number": "4", "optimal_length": "11", "subject": "AYPOAY43REHC8:3ON104KXQL4CKNMNKGNG9ZBVBAB4WI"}
{"meta_move": "drag_end", "rt": "1139.0", "trial_number": "1", "pre_actions": "1", "move": "0@14", "instance": "prb717", "distance_to_goal": "NA", "progress": "NA", "move_number": "5", "optimal_length": "11", "subject": "AYPOAY43REHC8:3ON104KXQL4CKNMNKGNG9ZBVBAB4WI"}
{"meta_move": "drag_end", "rt": "1018.0", "trial_number": "1", "pre_actions": "1", "move": "2@6", "instance": "prb717", "distance_to_goal": "NA", "progress": "NA", "move_number": "5", "optimal_length": "11", "subject": "AYPOAY43REHC8:3ON104KXQL4CKNMNKGNG9ZBVBAB4WI"}
{"meta_move": "drag_end", "rt": "1984.0", "trial_number": "1", "pre_actions": "1", "move": "0@14", "instance": "prb717", "distance_to_goal": "NA", "progress": "NA", "move_number": "6", "optimal_length": "11", "subject": "AYPOAY43REHC8:3ON104KXQL4CKNMNKGNG9ZBVBAB4WI"}
{"meta_move": "drag_end", "rt": "2588.0", "trial_number": "1", "pre_actions": "1", "move": "4@23", "instance": "prb717", "distance_to_goal": "NA", "progress": "NA", "move_number": "6", "optimal_length": "11", "subject": "AYPOAY43REHC8:3ON104KXQL4CKNMNKGNG9ZBVBAB4WI"}
{"meta_move": "drag_end", "rt": "1410.0", "trial_number": "1", "pre_actions": "1", "move": "0@14", "instance": "prb717", "distance_to_goal": "NA", "progress": "NA", "move_number": "7", "optimal_length": "11", "subject": "AYPOAY43REHC8:3ON104KXQL4CKNMNKGNG9ZBVBAB4WI"}
