{"rt": "18378.0", "trial_number": "0", "skipped": "False", "complete": "False", "assignment": "30IQTZXKALEAAZ9CBKW0ZFZP6O5X07", "start_time": "1.51793926884e+12", "human_length": "5", "nodes_expanded": "999", "instance": "prb79230", "end_time": "1.51793928722e+12", "optimal_length": "11", "subject": "A10YS8AVLQWUZZ"}
{"rt": "20965.0", "trial_number": "1", "skipped": "False", "complete": "True", "assignment": "30IQTZXKALEAAZ9CBKW0ZFZP6O5X07", "start_time": "1.51793928981e+12", "human_length": "11", "nodes_expanded": "999", "instance": "prb79230", "end_time": "1.51793931078e+12", "optimal_length": "11", "subject": "A10YS8AVLQWUZZ"}
{"rt": "73994.0", "trial_number": "0", "skipped": "False", "complete": "True", "assignment": "3TYCR1GOTDRCCQYD1V64UK7OHTBZLQ", "start_time": "1.51753547851e+12", "human_length": "59", "nodes_expanded": "999", "instance": "prb79230", "end_time": "1.5175355525e+12", "optimal_length": "11", "subject": "A13BZCNJ0WR1T7"}
{"rt": "0.0", "trial_number": "0", "skipped": "False", "complete": "False", "assignment": "3YW4XOSQKRTI0K0Z2YPDTDJVFABU1I", "start_time": "1.51682193639e+12", "human_length": "1", "nodes_expanded": "999", "instance": "prb79230", "end_time": "1.51682193639e+12", "optimal_length": "11", "subject": "A15781PHGW377Y"}
{"rt": "59586.0", "trial_number": "1", "skipped": "False", "complete": "True", "assignment": "3YW4XOSQKRTI0K0Z2YPDTDJVFABU1I", "start_time": "1.51682193639e+12", "human_length": "40", "nodes_expanded": "999", "instance": "prb79230", "end_time": "1.51682199598e+12", "optimal_length": "11", "subject": "A15781PHGW377Y"}
{"rt": "59586.0", "trial_number": "0", "skipped": "False", "complete": "True", "assignment": "3YW4XOSQKRTI0K0Z2YPDTDJVFABU1I", "start_time": "1.51682193639e+12", "human_length": "40", "nodes_expanded": "999", "instance": "prb79230", "end_time": "1.51682199598e+12", "optimal_length": "11", "subject": "A15781PHGW377Y"}
{"rt": "10096.0", "trial_number": "0", "skipped": "False", "complete": "True", "assignment": "3TYCR1GOTDRCCQYD1V64UK7OE48LZS", "start_time": "1.51639629253e+12", "human_length": "11", "nodes_expanded": "999", "instance": "prb79230", "end_time": "1.51639630263e+12", "optimal_length": "11", "subject": "A16SJ5D3DKUEXJ"}
{"rt": "15444.0", "trial_number": "0", "skipped": "False", "complete": "True", "assignment": "3IJXV6UZ1YR1KY4G6BFEG1DXR47RIC", "start_time": "1.5179715534e+12", "human_length": "17", "nodes_expanded": "999", "instance": "prb79230", "end_time": "1.51797156884e+12", "optimal_length": "11", "subject": "A18T3WK7J16C1B"}
{"rt": "10440.0", "trial_number": "0", "skipped": "False", "complete": "True", "assignment": "3PMBY0YE28B43VMUKKJ6EDF85RV9C8", "start_time": "1.5163878608e+12", "human_length": "11", "nodes_expanded": "999", "instance": "prb79230", "end_time": "1.51638787124e+12", "optimal_length": "11", "subject": "A191V7PT3DQKDP"}
{"rt": "0.0", "trial_number": "0", "skipped": "False", "complete": "False", "assignment": "3H0W84IWBLAP4T2UASPNVMF5ZH7ER9", "start_time": "1.51755350399e+12", "human_length": "1", "nodes_expanded": "999", "instance": "prb79230", "end_time": "1.51755350399e+12", "optimal_length": "11", "subject": "A1AKX1C8GCVCTP"}
{"rt": "0.0", "trial_number": "1", "skipped": "False", "complete": "False", "assignment": "3H0W84IWBLAP4T2UASPNVMF5ZH7ER9", "start_time": "1.517553504e+12", "human_length": "1", "nodes_expanded": "999", "instance": "prb79230", "end_time": "1.517553504e+12", "optimal_length": "11", "subject": "A1AKX1C8GCVCTP"}
{"rt": "0.0", "trial_number": "2", "skipped": "False", "complete": "False", "assignment": "3H0W84IWBLAP4T2UASPNVMF5ZH7ER9", "start_time": "1.51755350402e+12", "human_length": "1", "nodes_expanded": "999", "instance": "prb79230", "end_time": "1.51755350402e+12", "optimal_length": "11", "subject": "A1AKX1C8GCVCTP"}
{"rt": "17790.0", "trial_number": "3", "skipped": "False", "complete": "False", "assignment": "3H0W84IWBLAP4T2UASPNVMF5ZH7ER9", "start_time": "1.51755350404e+12", "human_length": "2", "nodes_expanded": "999", "instance": "prb79230", "end_time": "1.51755352183e+12", "optimal_length": "11", "subject": "A1AKX1C8GCVCTP"}
{"rt": "23180.0", "trial_number": "4", "skipped": "False", "complete": "True", "assignment": "3H0W84IWBLAP4T2UASPNVMF5ZH7ER9", "start_time": "1.51755353285e+12", "human_length": "24", "nodes_expanded": "999", "instance": "prb79230", "end_time": "1.51755355603e+12", "optimal_length": "11", "subject": "A1AKX1C8GCVCTP"}
{"rt": "17936.0", "trial_number": "0", "skipped": "False", "complete": "True", "assignment": "3ZSANO2JCGFTBM23KS9Y3E51YP4FSQ", "start_time": "1.5181430598e+12", "human_length": "14", "nodes_expanded": "999", "instance": "prb79230", "end_time": "1.51814307773e+12", "optimal_length": "11", "subject": "A1F42D4L22K5ND"}
{"rt": "120383.0", "trial_number": "0", "skipped": "False", "complete": "False", "assignment": "3TS1AR6UQRM7SOIBWPBN8N9589Y7FV", "start_time": "1.51683983254e+12", "human_length": "98", "nodes_expanded": "999", "instance": "prb79230", "end_time": "1.51683995293e+12", "optimal_length": "11", "subject": "A1F4N58CAX8IMK"}
{"rt": "12881.0", "trial_number": "1", "skipped": "False", "complete": "True", "assignment": "35DR22AR5ES6RR89U7EJ1DXW91AX3P", "start_time": "1.51795267352e+12", "human_length": "15", "nodes_expanded": "999", "instance": "prb79230", "end_time": "1.5179526864e+12", "optimal_length": "11", "subject": "A1F4N58CAX8IMK"}
{"rt": "8187.0", "trial_number": "0", "skipped": "False", "complete": "True", "assignment": "33F859I567LE8WC74WB3GA7E94XBHW", "start_time": "1.51796987405e+12", "human_length": "11", "nodes_expanded": "999", "instance": "prb79230", "end_time": "1.51796988223e+12", "optimal_length": "11", "subject": "A1GQS6USF2JEYG"}
{"rt": "30886.0", "trial_number": "0", "skipped": "False", "complete": "True", "assignment": "3XLBSAQ9Z5KDX59BX15UBFPNNHYZ7Q", "start_time": "1.51814743601e+12", "human_length": "32", "nodes_expanded": "999", "instance": "prb79230", "end_time": "1.5181474669e+12", "optimal_length": "11", "subject": "A1HFNOKU591WCY"}
{"rt": "12718.0", "trial_number": "0", "skipped": "False", "complete": "True", "assignment": "3FTF2T8WLSQDHTSZ1BJ7Q7MB14SW9H", "start_time": "1.51813581033e+12", "human_length": "11", "nodes_expanded": "999", "instance": "prb79230", "end_time": "1.51813582305e+12", "optimal_length": "11", "subject": "A1IUH9D7N69VS"}
{"rt": "0.0", "trial_number": "0", "skipped": "False", "complete": "False", "assignment": "3YW4XOSQKRTI0K0Z2YPDTDJVFABU1I", "start_time": "1.51683015946e+12", "human_length": "1", "nodes_expanded": "999", "instance": "prb79230", "end_time": "1.51683015946e+12", "optimal_length": "11", "subject": "A1LR0VQIHQUJAM"}
{"rt": "42537.0", "trial_number": "1", "skipped": "False", "complete": "True", "assignment": "3YW4XOSQKRTI0K0Z2YPDTDJVFABU1I", "start_time": "1.51683015946e+12", "human_length": "37", "nodes_expanded": "999", "instance": "prb79230", "end_time": "1.51683020199e+12", "optimal_length": "11", "subject": "A1LR0VQIHQUJAM"}
{"rt": "51888.0", "trial_number": "0", "skipped": "True", "complete": "False", "assignment": "31LM9EDVOM0C0BWUVMJXJINN3QPJNI", "start_time": "1.51752551417e+12", "human_length": "10", "nodes_expanded": "999", "instance": "prb79230", "end_time": "1.51752556606e+12", "optimal_length": "11", "subject": "A1NT8BT94ME6F5"}
{"rt": "25895.0", "trial_number": "0", "skipped": "False", "complete": "True", "assignment": "3SB5N7Y3O4CZODEMMAWWBTZU4C90GB", "start_time": "1.51813891797e+12", "human_length": "16", "nodes_expanded": "999", "instance": "prb79230", "end_time": "1.51813894386e+12", "optimal_length": "11", "subject": "A1RVMADIZE3BXK"}
{"rt": "81070.0", "trial_number": "0", "skipped": "False", "complete": "True", "assignment": "3RUIQRXJBCWS71H9MUFVM5WQ3SCLLJ", "start_time": "1.51815608819e+12", "human_length": "41", "nodes_expanded": "999", "instance": "prb79230", "end_time": "1.51815616926e+12", "optimal_length": "11", "subject": "A1SJRFJWFXSDH4"}
{"rt": "26703.0", "trial_number": "0", "skipped": "False", "complete": "True", "assignment": "3M0BCWMB8W4W5M7WZVX3HDH1M3FBWL", "start_time": "1.51683914936e+12", "human_length": "11", "nodes_expanded": "999", "instance": "prb79230", "end_time": "1.51683917607e+12", "optimal_length": "11", "subject": "A1XDMS0KFSF5JW"}
{"rt": "51587.0", "trial_number": "0", "skipped": "True", "complete": "False", "assignment": "3XC1O3LBOTUGQEPEV3HM8W67X4RTLL", "start_time": "1.51813906731e+12", "human_length": "21", "nodes_expanded": "999", "instance": "prb79230", "end_time": "1.5181391189e+12", "optimal_length": "11", "subject": "A1ZTSCPETU3UJW"}
{"rt": "77123.0", "trial_number": "0", "skipped": "False", "complete": "True", "assignment": "34BBWHLWHBJ6SUL255PK30LEGY5IWG", "start_time": "1.51639158947e+12", "human_length": "22", "nodes_expanded": "999", "instance": "prb79230", "end_time": "1.51639166659e+12", "optimal_length": "11", "subject": "A214HWAW1PYWO8"}
{"rt": "0.0", "trial_number": "0", "skipped": "False", "complete": "False", "assignment": "3IHR8NYAM89M0EPM8U9LH53ZJDTP4U", "start_time": "1.51682595822e+12", "human_length": "1", "nodes_expanded": "999", "instance": "prb79230", "end_time": "1.51682595822e+12", "optimal_length": "11", "subject": "A23437BMZ5T1FH"}
{"rt": "11732.0", "trial_number": "1", "skipped": "True", "complete": "False", "assignment": "3IHR8NYAM89M0EPM8U9LH53ZJDTP4U", "start_time": "1.51682595822e+12", "human_length": "12", "nodes_expanded": "999", "instance": "prb79230", "end_time": "1.51682596995e+12", "optimal_length": "11", "subject": "A23437BMZ5T1FH"}
{"rt": "119994.0", "trial_number": "0", "skipped": "False", "complete": "False", "assignment": "30IQTZXKALEAAZ9CBKW0ZFZP6O5X07", "start_time": "1.51794376455e+12", "human_length": "45", "nodes_expanded": "999", "instance": "prb79230", "end_time": "1.51794388454e+12", "optimal_length": "11", "subject": "A23XJ8I86R0O3B"}
{"rt": "31852.0", "trial_number": "1", "skipped": "False", "complete": "False", "assignment": "30IQTZXKALEAAZ9CBKW0ZFZP6O5X07", "start_time": "1.51794389238e+12", "human_length": "12", "nodes_expanded": "999", "instance": "prb79230", "end_time": "1.51794392424e+12", "optimal_length": "11", "subject": "A23XJ8I86R0O3B"}
{"rt": "56940.0", "trial_number": "2", "skipped": "False", "complete": "False", "assignment": "30IQTZXKALEAAZ9CBKW0ZFZP6O5X07", "start_time": "1.51794393838e+12", "human_length": "15", "nodes_expanded": "999", "instance": "prb79230", "end_time": "1.51794399532e+12", "optimal_length": "11", "subject": "A23XJ8I86R0O3B"}
{"rt": "34055.0", "trial_number": "3", "skipped": "True", "complete": "False", "assignment": "30IQTZXKALEAAZ9CBKW0ZFZP6O5X07", "start_time": "1.51794400674e+12", "human_length": "11", "nodes_expanded": "999", "instance": "prb79230", "end_time": "1.51794404079e+12", "optimal_length": "11", "subject": "A23XJ8I86R0O3B"}
{"rt": "54772.0", "trial_number": "0", "skipped": "False", "complete": "True", "assignment": "3SITXWYCNWHBUMCM90TPJWV8Y7AXBW", "start_time": "1.51816592176e+12", "human_length": "15", "nodes_expanded": "999", "instance": "prb79230", "end_time": "1.51816597653e+12", "optimal_length": "11", "subject": "A28RX7L0QZ993M"}
{"rt": "61605.0", "trial_number": "0", "skipped": "False", "complete": "True", "assignment": "3IAS3U3I0GOAT69PLB8WT61CKJ22BO", "start_time": "1.51793977097e+12", "human_length": "36", "nodes_expanded": "999", "instance": "prb79230", "end_time": "1.51793983258e+12", "optimal_length": "11", "subject": "A2C84POENS2UNY"}
{"rt": "95408.0", "trial_number": "0", "skipped": "True", "complete": "False", "assignment": "37WLF8U1WQYZ4AWKEQXSIM1ELVEK6W", "start_time": "1.51683207634e+12", "human_length": "47", "nodes_expanded": "999", "instance": "prb79230", "end_time": "1.51683217175e+12", "optimal_length": "11", "subject": "A2EPBSY0VPI38S"}
{"rt": "59591.0", "trial_number": "0", "skipped": "False", "complete": "False", "assignment": "3X4MXAO0BHWJLTOLVSJTHSM54OHWRG", "start_time": "1.51682223368e+12", "human_length": "34", "nodes_expanded": "999", "instance": "prb79230", "end_time": "1.51682229328e+12", "optimal_length": "11", "subject": "A2IBQA01NR5N76"}
{"rt": "0.0", "trial_number": "1", "skipped": "False", "complete": "False", "assignment": "3X4MXAO0BHWJLTOLVSJTHSM54OHWRG", "start_time": "1.51682229767e+12", "human_length": "1", "nodes_expanded": "999", "instance": "prb79230", "end_time": "1.51682229767e+12", "optimal_length": "11", "subject": "A2IBQA01NR5N76"}
{"rt": "0.0", "trial_number": "2", "skipped": "False", "complete": "False", "assignment": "3X4MXAO0BHWJLTOLVSJTHSM54OHWRG", "start_time": "1.51682223368e+12", "human_length": "1", "nodes_expanded": "999", "instance": "prb79230", "end_time": "1.51682223368e+12", "optimal_length": "11", "subject": "A2IBQA01NR5N76"}
{"rt": "34114.0", "trial_number": "3", "skipped": "False", "complete": "True", "assignment": "3X4MXAO0BHWJLTOLVSJTHSM54OHWRG", "start_time": "1.51682229767e+12", "human_length": "22", "nodes_expanded": "999", "instance": "prb79230", "end_time": "1.51682233179e+12", "optimal_length": "11", "subject": "A2IBQA01NR5N76"}
{"rt": "59591.0", "trial_number": "0", "skipped": "False", "complete": "False", "assignment": "3X4MXAO0BHWJLTOLVSJTHSM54OHWRG", "start_time": "1.51682223368e+12", "human_length": "34", "nodes_expanded": "999", "instance": "prb79230", "end_time": "1.51682229328e+12", "optimal_length": "11", "subject": "A2IBQA01NR5N76"}
{"rt": "34114.0", "trial_number": "1", "skipped": "False", "complete": "True", "assignment": "3X4MXAO0BHWJLTOLVSJTHSM54OHWRG", "start_time": "1.51682229767e+12", "human_length": "22", "nodes_expanded": "999", "instance": "prb79230", "end_time": "1.51682233179e+12", "optimal_length": "11", "subject": "A2IBQA01NR5N76"}
{"rt": "21843.0", "trial_number": "0", "skipped": "False", "complete": "True", "assignment": "3TYCR1GOTDRCCQYD1V64UK7OE48LZS", "start_time": "1.51639159552e+12", "human_length": "15", "nodes_expanded": "999", "instance": "prb79230", "end_time": "1.51639161736e+12", "optimal_length": "11", "subject": "A2MYB6MLQW0IGN"}
{"rt": "116429.0", "trial_number": "0", "skipped": "False", "complete": "True", "assignment": "3FUI0JHJPY6UBT1VAI7VUX8S3KH33W", "start_time": "1.5181503235e+12", "human_length": "56", "nodes_expanded": "999", "instance": "prb79230", "end_time": "1.51815043993e+12", "optimal_length": "11", "subject": "A2QIZ31TMHU0GD"}
{"rt": "20151.0", "trial_number": "0", "skipped": "False", "complete": "True", "assignment": "3TAYZSBPLMG9ASQRWXURJVBCPLN2SH", "start_time": "1.51813648666e+12", "human_length": "16", "nodes_expanded": "999", "instance": "prb79230", "end_time": "1.51813650681e+12", "optimal_length": "11", "subject": "A2RCYLKY072XXO"}
{"rt": "0.0", "trial_number": "0", "skipped": "False", "complete": "False", "assignment": "3IJXV6UZ1YR1KY4G6BFEG1DXP7SRI1", "start_time": "1.51674987766e+12", "human_length": "1", "nodes_expanded": "999", "instance": "prb79230", "end_time": "1.51674987766e+12", "optimal_length": "11", "subject": "A2RTJ6BDY0DZVZ"}
{"rt": "0.0", "trial_number": "1", "skipped": "False", "complete": "False", "assignment": "3IJXV6UZ1YR1KY4G6BFEG1DXP7SRI1", "start_time": "1.51674987766e+12", "human_length": "1", "nodes_expanded": "999", "instance": "prb79230", "end_time": "1.51674987766e+12", "optimal_length": "11", "subject": "A2RTJ6BDY0DZVZ"}
{"rt": "22698.0", "trial_number": "2", "skipped": "False", "complete": "True", "assignment": "3IJXV6UZ1YR1KY4G6BFEG1DXP7SRI1", "start_time": "1.51674987766e+12", "human_length": "14", "nodes_expanded": "999", "instance": "prb79230", "end_time": "1.51674990036e+12", "optimal_length": "11", "subject": "A2RTJ6BDY0DZVZ"}
{"rt": "22698.0", "trial_number": "0", "skipped": "False", "complete": "True", "assignment": "3IJXV6UZ1YR1KY4G6BFEG1DXP7SRI1", "start_time": "1.51674987766e+12", "human_length": "14", "nodes_expanded": "999", "instance": "prb79230", "end_time": "1.51674990036e+12", "optimal_length": "11", "subject": "A2RTJ6BDY0DZVZ"}
{"rt": "0.0", "trial_number": "0", "skipped": "False", "complete": "False", "assignment": "3WSELTNVR4AZUVYAYCSWZIQW0J4ATB", "start_time": "1.51674029629e+12", "human_length": "1", "nodes_expanded": "999", "instance": "prb79230", "end_time": "1.51674029629e+12", "optimal_length": "11", "subject": "A2TQNX64349OZ9"}
{"rt": "0.0", "trial_number": "1", "skipped": "False", "complete": "False", "assignment": "3WSELTNVR4AZUVYAYCSWZIQW0J4ATB", "start_time": "1.51674029629e+12", "human_length": "1", "nodes_expanded": "999", "instance": "prb79230", "end_time": "1.51674029629e+12", "optimal_length": "11", "subject": "A2TQNX64349OZ9"}
{"rt": "22577.0", "trial_number": "2", "skipped": "True", "complete": "False", "assignment": "3WSELTNVR4AZUVYAYCSWZIQW0J4ATB", "start_time": "1.51674029629e+12", "human_length": "59", "nodes_expanded": "999", "instance": "prb79230", "end_time": "1.51674031886e+12", "optimal_length": "11", "subject": "A2TQNX64349OZ9"}
{"rt": "22577.0", "trial_number": "0", "skipped": "True", "complete": "False", "assignment": "3WSELTNVR4AZUVYAYCSWZIQW0J4ATB", "start_time": "1.51674029629e+12", "human_length": "21", "nodes_expanded": "999", "instance": "prb79230", "end_time": "1.51674031886e+12", "optimal_length": "11", "subject": "A2TQNX64349OZ9"}
{"rt": "21909.0", "trial_number": "0", "skipped": "False", "complete": "True", "assignment": "37TD41K0AIHM8AITTQJXV8KY05QCSB", "start_time": "1.51752654881e+12", "human_length": "12", "nodes_expanded": "999", "instance": "prb79230", "end_time": "1.51752657072e+12", "optimal_length": "11", "subject": "A30KYQGABO7JER"}
{"rt": "16694.0", "trial_number": "0", "skipped": "False", "complete": "True", "assignment": "34HJIJKLP64Z5YMIU6IKNXSH7PDV4I", "start_time": "1.51794355166e+12", "human_length": "12", "nodes_expanded": "999", "instance": "prb79230", "end_time": "1.51794356836e+12", "optimal_length": "11", "subject": "A3CTXNQ2GXIQSP"}
{"rt": "36835.0", "trial_number": "0", "skipped": "False", "complete": "False", "assignment": "3TMFV4NEP9MD3O9PWJDTQBR0HZYW8I", "start_time": "1.518146952e+12", "human_length": "17", "nodes_expanded": "999", "instance": "prb79230", "end_time": "1.51814698884e+12", "optimal_length": "11", "subject": "A3GOOI75XOF24V"}
{"rt": "16821.0", "trial_number": "1", "skipped": "False", "complete": "True", "assignment": "3TMFV4NEP9MD3O9PWJDTQBR0HZYW8I", "start_time": "1.51814699556e+12", "human_length": "14", "nodes_expanded": "999", "instance": "prb79230", "end_time": "1.51814701238e+12", "optimal_length": "11", "subject": "A3GOOI75XOF24V"}
{"rt": "16790.0", "trial_number": "0", "skipped": "False", "complete": "True", "assignment": "3TPWUS5F8A9FFRZ2DVTYSXNJ6BWWC6", "start_time": "1.51794189072e+12", "human_length": "13", "nodes_expanded": "999", "instance": "prb79230", "end_time": "1.51794190751e+12", "optimal_length": "11", "subject": "A3GXC3VG37CQ3G"}
{"rt": "0.0", "trial_number": "0", "skipped": "False", "complete": "False", "assignment": "3X87C8JFV7JQ2BSCY8KSFD9F2ILSQK", "start_time": "1.51673876552e+12", "human_length": "1", "nodes_expanded": "999", "instance": "prb79230", "end_time": "1.51673876552e+12", "optimal_length": "11", "subject": "A3Q0XAGQ7TD7MP"}
{"rt": "0.0", "trial_number": "1", "skipped": "False", "complete": "False", "assignment": "3X87C8JFV7JQ2BSCY8KSFD9F2ILSQK", "start_time": "1.51673876552e+12", "human_length": "1", "nodes_expanded": "999", "instance": "prb79230", "end_time": "1.51673876552e+12", "optimal_length": "11", "subject": "A3Q0XAGQ7TD7MP"}
{"rt": "31710.0", "trial_number": "2", "skipped": "False", "complete": "True", "assignment": "3X87C8JFV7JQ2BSCY8KSFD9F2ILSQK", "start_time": "1.51673876552e+12", "human_length": "16", "nodes_expanded": "999", "instance": "prb79230", "end_time": "1.51673879723e+12", "optimal_length": "11", "subject": "A3Q0XAGQ7TD7MP"}
{"rt": "30182.0", "trial_number": "3", "skipped": "False", "complete": "True", "assignment": "3GLB5JMZFY3TNXFGYMKRQ0JDXNTDGZ", "start_time": "1.51794816671e+12", "human_length": "14", "nodes_expanded": "999", "instance": "prb79230", "end_time": "1.51794819689e+12", "optimal_length": "11", "subject": "A3Q0XAGQ7TD7MP"}
{"rt": "31710.0", "trial_number": "0", "skipped": "False", "complete": "True", "assignment": "3X87C8JFV7JQ2BSCY8KSFD9F2ILSQK", "start_time": "1.51673876552e+12", "human_length": "16", "nodes_expanded": "999", "instance": "prb79230", "end_time": "1.51673879723e+12", "optimal_length": "11", "subject": "A3Q0XAGQ7TD7MP"}
{"rt": "30182.0", "trial_number": "1", "skipped": "False", "complete": "True", "assignment": "3GLB5JMZFY3TNXFGYMKRQ0JDXNTDGZ", "start_time": "1.51794816671e+12", "human_length": "14", "nodes_expanded": "999", "instance": "prb79230", "end_time": "1.51794819689e+12", "optimal_length": "11", "subject": "A3Q0XAGQ7TD7MP"}
{"rt": "33883.0", "trial_number": "0", "skipped": "True", "complete": "False", "assignment": "3VBEN272ML7ZPMYYVCFGLZ5DV7CGS0", "start_time": "1.51639095451e+12", "human_length": "10", "nodes_expanded": "999", "instance": "prb79230", "end_time": "1.51639098839e+12", "optimal_length": "11", "subject": "A3VZJ2T28HAQ2A"}
{"rt": "22181.0", "trial_number": "0", "skipped": "False", "complete": "True", "assignment": "3M0BCWMB8W4W5M7WZVX3HDH1P53WB1", "start_time": "1.51816093483e+12", "human_length": "16", "nodes_expanded": "999", "instance": "prb79230", "end_time": "1.51816095701e+12", "optimal_length": "11", "subject": "A53S7J4JGWG38"}
{"rt": "77770.0", "trial_number": "0", "skipped": "False", "complete": "False", "assignment": "3IJXV6UZ1YR1KY4G6BFEG1DXP7SRI1", "start_time": "1.51673914051e+12", "human_length": "35", "nodes_expanded": "999", "instance": "prb79230", "end_time": "1.51673921828e+12", "optimal_length": "11", "subject": "AEXF5EUX32U0M"}
{"rt": "39035.0", "trial_number": "1", "skipped": "False", "complete": "False", "assignment": "3IJXV6UZ1YR1KY4G6BFEG1DXP7SRI1", "start_time": "1.51673923255e+12", "human_length": "7", "nodes_expanded": "999", "instance": "prb79230", "end_time": "1.51673927158e+12", "optimal_length": "11", "subject": "AEXF5EUX32U0M"}
{"rt": "100612.0", "trial_number": "2", "skipped": "False", "complete": "False", "assignment": "3IJXV6UZ1YR1KY4G6BFEG1DXP7SRI1", "start_time": "1.51673927559e+12", "human_length": "23", "nodes_expanded": "999", "instance": "prb79230", "end_time": "1.5167393762e+12", "optimal_length": "11", "subject": "AEXF5EUX32U0M"}
{"rt": "0.0", "trial_number": "3", "skipped": "False", "complete": "False", "assignment": "3IJXV6UZ1YR1KY4G6BFEG1DXP7SRI1", "start_time": "1.51673937982e+12", "human_length": "1", "nodes_expanded": "999", "instance": "prb79230", "end_time": "1.51673937982e+12", "optimal_length": "11", "subject": "AEXF5EUX32U0M"}
{"rt": "0.0", "trial_number": "4", "skipped": "False", "complete": "False", "assignment": "3IJXV6UZ1YR1KY4G6BFEG1DXP7SRI1", "start_time": "1.51673914051e+12", "human_length": "1", "nodes_expanded": "999", "instance": "prb79230", "end_time": "1.51673914051e+12", "optimal_length": "11", "subject": "AEXF5EUX32U0M"}
{"rt": "0.0", "trial_number": "5", "skipped": "False", "complete": "False", "assignment": "3IJXV6UZ1YR1KY4G6BFEG1DXP7SRI1", "start_time": "1.51673923255e+12", "human_length": "1", "nodes_expanded": "999", "instance": "prb79230", "end_time": "1.51673923255e+12", "optimal_length": "11", "subject": "AEXF5EUX32U0M"}
{"rt": "0.0", "trial_number": "6", "skipped": "False", "complete": "False", "assignment": "3IJXV6UZ1YR1KY4G6BFEG1DXP7SRI1", "start_time": "1.51673927559e+12", "human_length": "1", "nodes_expanded": "999", "instance": "prb79230", "end_time": "1.51673927559e+12", "optimal_length": "11", "subject": "AEXF5EUX32U0M"}
{"rt": "0.0", "trial_number": "7", "skipped": "False", "complete": "False", "assignment": "3IJXV6UZ1YR1KY4G6BFEG1DXP7SRI1", "start_time": "1.51673937982e+12", "human_length": "1", "nodes_expanded": "999", "instance": "prb79230", "end_time": "1.51673937982e+12", "optimal_length": "11", "subject": "AEXF5EUX32U0M"}
{"rt": "0.0", "trial_number": "8", "skipped": "False", "complete": "False", "assignment": "3IJXV6UZ1YR1KY4G6BFEG1DXP7SRI1", "start_time": "1.51673914051e+12", "human_length": "1", "nodes_expanded": "999", "instance": "prb79230", "end_time": "1.51673914051e+12", "optimal_length": "11", "subject": "AEXF5EUX32U0M"}
{"rt": "0.0", "trial_number": "9", "skipped": "False", "complete": "False", "assignment": "3IJXV6UZ1YR1KY4G6BFEG1DXP7SRI1", "start_time": "1.51673923255e+12", "human_length": "1", "nodes_expanded": "999", "instance": "prb79230", "end_time": "1.51673923255e+12", "optimal_length": "11", "subject": "AEXF5EUX32U0M"}
{"rt": "0.0", "trial_number": "10", "skipped": "False", "complete": "False", "assignment": "3IJXV6UZ1YR1KY4G6BFEG1DXP7SRI1", "start_time": "1.51673927559e+12", "human_length": "1", "nodes_expanded": "999", "instance": "prb79230", "end_time": "1.51673927559e+12", "optimal_length": "11", "subject": "AEXF5EUX32U0M"}
{"rt": "27456.0", "trial_number": "11", "skipped": "False", "complete": "True", "assignment": "3IJXV6UZ1YR1KY4G6BFEG1DXP7SRI1", "start_time": "1.51673937982e+12", "human_length": "15", "nodes_expanded": "999", "instance": "prb79230", "end_time": "1.51673940727e+12", "optimal_length": "11", "subject": "AEXF5EUX32U0M"}
{"rt": "77770.0", "trial_number": "0", "skipped": "False", "complete": "False", "assignment": "3IJXV6UZ1YR1KY4G6BFEG1DXP7SRI1", "start_time": "1.51673914051e+12", "human_length": "35", "nodes_expanded": "999", "instance": "prb79230", "end_time": "1.51673921828e+12", "optimal_length": "11", "subject": "AEXF5EUX32U0M"}
{"rt": "39035.0", "trial_number": "1", "skipped": "False", "complete": "False", "assignment": "3IJXV6UZ1YR1KY4G6BFEG1DXP7SRI1", "start_time": "1.51673923255e+12", "human_length": "7", "nodes_expanded": "999", "instance": "prb79230", "end_time": "1.51673927158e+12", "optimal_length": "11", "subject": "AEXF5EUX32U0M"}
{"rt": "100612.0", "trial_number": "2", "skipped": "False", "complete": "False", "assignment": "3IJXV6UZ1YR1KY4G6BFEG1DXP7SRI1", "start_time": "1.51673927559e+12", "human_length": "23", "nodes_expanded": "999", "instance": "prb79230", "end_time": "1.5167393762e+12", "optimal_length": "11", "subject": "AEXF5EUX32U0M"}
{"rt": "27456.0", "trial_number": "3", "skipped": "False", "complete": "True", "assignment": "3IJXV6UZ1YR1KY4G6BFEG1DXP7SRI1", "start_time": "1.51673937982e+12", "human_length": "15", "nodes_expanded": "999", "instance": "prb79230", "end_time": "1.51673940727e+12", "optimal_length": "11", "subject": "AEXF5EUX32U0M"}
{"rt": "11461.0", "trial_number": "0", "skipped": "False", "complete": "True", "assignment": "3IXEICO793RY7TM78ZBKJDOA7ADT6Q", "start_time": "1.51816731605e+12", "human_length": "11", "nodes_expanded": "999", "instance": "prb79230", "end_time": "1.51816732751e+12", "optimal_length": "11", "subject": "ALH1K6ZAQQMN7"}
{"rt": "20224.0", "trial_number": "0", "skipped": "False", "complete": "True", "assignment": "36H9ULYP6320CJJDXY0KBDEE1Z3JFB", "start_time": "1.51753208925e+12", "human_length": "11", "nodes_expanded": "999", "instance": "prb79230", "end_time": "1.51753210947e+12", "optimal_length": "11", "subject": "AN098C29EGJ6"}
{"rt": "14369.0", "trial_number": "0", "skipped": "False", "complete": "True", "assignment": "3AZHRG4CU5SYU12YRVPCSZALW5003R", "start_time": "1.51630745824e+12", "human_length": "17", "nodes_expanded": "999", "instance": "prb79230", "end_time": "1.51630747261e+12", "optimal_length": "11", "subject": "ARWF605I7RWM7"}
{"rt": "0.0", "trial_number": "0", "skipped": "False", "complete": "False", "assignment": "3U8YCDAGXQOQ1280P618573W7RSQ0N", "start_time": "1.51674361394e+12", "human_length": "1", "nodes_expanded": "999", "instance": "prb79230", "end_time": "1.51674361394e+12", "optimal_length": "11", "subject": "AWCO7MG0BHSTQ"}
{"rt": "0.0", "trial_number": "1", "skipped": "False", "complete": "False", "assignment": "3U8YCDAGXQOQ1280P618573W7RSQ0N", "start_time": "1.51674361394e+12", "human_length": "1", "nodes_expanded": "999", "instance": "prb79230", "end_time": "1.51674361394e+12", "optimal_length": "11", "subject": "AWCO7MG0BHSTQ"}
{"rt": "21201.0", "trial_number": "2", "skipped": "False", "complete": "True", "assignment": "3U8YCDAGXQOQ1280P618573W7RSQ0N", "start_time": "1.51674361394e+12", "human_length": "14", "nodes_expanded": "999", "instance": "prb79230", "end_time": "1.51674363514e+12", "optimal_length": "11", "subject": "AWCO7MG0BHSTQ"}
{"rt": "21201.0", "trial_number": "0", "skipped": "False", "complete": "True", "assignment": "3U8YCDAGXQOQ1280P618573W7RSQ0N", "start_time": "1.51674361394e+12", "human_length": "14", "nodes_expanded": "999", "instance": "prb79230", "end_time": "1.51674363514e+12", "optimal_length": "11", "subject": "AWCO7MG0BHSTQ"}
{"rt": "25900.0", "trial_number": "0", "skipped": "False", "complete": "True", "assignment": "33PPO7FECWN7JOLBOAKUBCWTC0AIDL", "start_time": "1.51795089378e+12", "human_length": "16", "nodes_expanded": "999", "instance": "prb79230", "end_time": "1.51795091968e+12", "optimal_length": "11", "subject": "AXKM02NVXNGOM"}
{"rt": "107477.0", "trial_number": "0", "skipped": "False", "complete": "True", "assignment": "3ON104KXQL4CKNMNKGNG9ZBVBAB4WI", "start_time": "1.51631256915e+12", "human_length": "78", "nodes_expanded": "999", "instance": "prb79230", "end_time": "1.51631267662e+12", "optimal_length": "11", "subject": "AYPOAY43REHC8"}
