{"rt": "41865.0", "trial_number": "0", "skipped": "False", "complete": "True", "assignment": "30IQTZXKALEAAZ9CBKW0ZFZP6O5X07", "start_time": "1.51793915623e+12", "human_length": "8", "nodes_expanded": "999", "instance": "prb8786", "end_time": "1.51793919809e+12", "optimal_length": "7", "subject": "A10YS8AVLQWUZZ"}
{"rt": "9334.0", "trial_number": "0", "skipped": "False", "complete": "True", "assignment": "3TYCR1GOTDRCCQYD1V64UK7OHTBZLQ", "start_time": "1.51753761273e+12", "human_length": "10", "nodes_expanded": "999", "instance": "prb8786", "end_time": "1.51753762206e+12", "optimal_length": "7", "subject": "A13BZCNJ0WR1T7"}
{"rt": "21860.0", "trial_number": "0", "skipped": "False", "complete": "True", "assignment": "3TS1AR6UQRM7SOIBWPBN8N9589Y7FV", "start_time": "1.51684493329e+12", "human_length": "10", "nodes_expanded": "999", "instance": "prb8786", "end_time": "1.51684495515e+12", "optimal_length": "7", "subject": "A15FXHC1CVNW31"}
{"rt": "0.0", "trial_number": "0", "skipped": "False", "complete": "False", "assignment": "3VE8AYVF8N5BS2NU6U3TMN50JMNF8V", "start_time": "1.51673607321e+12", "human_length": "1", "nodes_expanded": "999", "instance": "prb8786", "end_time": "1.51673607321e+12", "optimal_length": "7", "subject": "A18QU0YQB6Q8DF"}
{"rt": "0.0", "trial_number": "1", "skipped": "False", "complete": "False", "assignment": "3VE8AYVF8N5BS2NU6U3TMN50JMNF8V", "start_time": "1.51673607321e+12", "human_length": "1", "nodes_expanded": "999", "instance": "prb8786", "end_time": "1.51673607321e+12", "optimal_length": "7", "subject": "A18QU0YQB6Q8DF"}
{"rt": "75052.0", "trial_number": "2", "skipped": "False", "complete": "True", "assignment": "3VE8AYVF8N5BS2NU6U3TMN50JMNF8V", "start_time": "1.51673607321e+12", "human_length": "32", "nodes_expanded": "999", "instance": "prb8786", "end_time": "1.51673614826e+12", "optimal_length": "7", "subject": "A18QU0YQB6Q8DF"}
{"rt": "75052.0", "trial_number": "0", "skipped": "False", "complete": "True", "assignment": "3VE8AYVF8N5BS2NU6U3TMN50JMNF8V", "start_time": "1.51673607321e+12", "human_length": "32", "nodes_expanded": "999", "instance": "prb8786", "end_time": "1.51673614826e+12", "optimal_length": "7", "subject": "A18QU0YQB6Q8DF"}
{"rt": "20652.0", "trial_number": "0", "skipped": "False", "complete": "True", "assignment": "3IJXV6UZ1YR1KY4G6BFEG1DXR47RIC", "start_time": "1.51797157147e+12", "human_length": "23", "nodes_expanded": "999", "instance": "prb8786", "end_time": "1.51797159212e+12", "optimal_length": "7", "subject": "A18T3WK7J16C1B"}
{"rt": "8745.0", "trial_number": "0", "skipped": "False", "complete": "True", "assignment": "3PMBY0YE28B43VMUKKJ6EDF85RV9C8", "start_time": "1.51638653537e+12", "human_length": "10", "nodes_expanded": "999", "instance": "prb8786", "end_time": "1.51638654412e+12", "optimal_length": "7", "subject": "A191V7PT3DQKDP"}
{"rt": "0.0", "trial_number": "0", "skipped": "False", "complete": "False", "assignment": "3H0W84IWBLAP4T2UASPNVMF5ZH7ER9", "start_time": "1.51755498215e+12", "human_length": "1", "nodes_expanded": "999", "instance": "prb8786", "end_time": "1.51755498215e+12", "optimal_length": "7", "subject": "A1AKX1C8GCVCTP"}
{"rt": "4903.0", "trial_number": "1", "skipped": "False", "complete": "False", "assignment": "3H0W84IWBLAP4T2UASPNVMF5ZH7ER9", "start_time": "1.51755498217e+12", "human_length": "3", "nodes_expanded": "999", "instance": "prb8786", "end_time": "1.51755498707e+12", "optimal_length": "7", "subject": "A1AKX1C8GCVCTP"}
{"rt": "6832.0", "trial_number": "2", "skipped": "False", "complete": "True", "assignment": "3H0W84IWBLAP4T2UASPNVMF5ZH7ER9", "start_time": "1.51755499035e+12", "human_length": "10", "nodes_expanded": "999", "instance": "prb8786", "end_time": "1.51755499719e+12", "optimal_length": "7", "subject": "A1AKX1C8GCVCTP"}
{"rt": "15431.0", "trial_number": "0", "skipped": "False", "complete": "True", "assignment": "3ZSANO2JCGFTBM23KS9Y3E51YP4FSQ", "start_time": "1.51814281624e+12", "human_length": "9", "nodes_expanded": "999", "instance": "prb8786", "end_time": "1.51814283167e+12", "optimal_length": "7", "subject": "A1F42D4L22K5ND"}
{"rt": "27407.0", "trial_number": "0", "skipped": "False", "complete": "True", "assignment": "3TS1AR6UQRM7SOIBWPBN8N9589Y7FV", "start_time": "1.51683893842e+12", "human_length": "17", "nodes_expanded": "999", "instance": "prb8786", "end_time": "1.51683896583e+12", "optimal_length": "7", "subject": "A1F4N58CAX8IMK"}
{"rt": "22299.0", "trial_number": "1", "skipped": "False", "complete": "True", "assignment": "35DR22AR5ES6RR89U7EJ1DXW91AX3P", "start_time": "1.51795448608e+12", "human_length": "23", "nodes_expanded": "999", "instance": "prb8786", "end_time": "1.51795450837e+12", "optimal_length": "7", "subject": "A1F4N58CAX8IMK"}
{"rt": "8944.0", "trial_number": "0", "skipped": "False", "complete": "True", "assignment": "33F859I567LE8WC74WB3GA7E94XBHW", "start_time": "1.51796791716e+12", "human_length": "10", "nodes_expanded": "999", "instance": "prb8786", "end_time": "1.5179679261e+12", "optimal_length": "7", "subject": "A1GQS6USF2JEYG"}
{"rt": "9587.0", "trial_number": "0", "skipped": "False", "complete": "True", "assignment": "3XLBSAQ9Z5KDX59BX15UBFPNNHYZ7Q", "start_time": "1.51814736786e+12", "human_length": "9", "nodes_expanded": "999", "instance": "prb8786", "end_time": "1.51814737745e+12", "optimal_length": "7", "subject": "A1HFNOKU591WCY"}
{"rt": "8503.0", "trial_number": "0", "skipped": "False", "complete": "True", "assignment": "3FTF2T8WLSQDHTSZ1BJ7Q7MB14SW9H", "start_time": "1.51813630894e+12", "human_length": "9", "nodes_expanded": "999", "instance": "prb8786", "end_time": "1.51813631745e+12", "optimal_length": "7", "subject": "A1IUH9D7N69VS"}
{"rt": "21287.0", "trial_number": "0", "skipped": "False", "complete": "True", "assignment": "3VE8AYVF8N5BS2NU6U3TMN50MV38FP", "start_time": "1.51814389371e+12", "human_length": "10", "nodes_expanded": "999", "instance": "prb8786", "end_time": "1.51814391499e+12", "optimal_length": "7", "subject": "A1JN13098RIE78"}
{"rt": "0.0", "trial_number": "0", "skipped": "False", "complete": "False", "assignment": "3YW4XOSQKRTI0K0Z2YPDTDJVFABU1I", "start_time": "1.51683116534e+12", "human_length": "1", "nodes_expanded": "999", "instance": "prb8786", "end_time": "1.51683116534e+12", "optimal_length": "7", "subject": "A1LR0VQIHQUJAM"}
{"rt": "9687.0", "trial_number": "1", "skipped": "False", "complete": "True", "assignment": "3YW4XOSQKRTI0K0Z2YPDTDJVFABU1I", "start_time": "1.51683116534e+12", "human_length": "9", "nodes_expanded": "999", "instance": "prb8786", "end_time": "1.51683117503e+12", "optimal_length": "7", "subject": "A1LR0VQIHQUJAM"}
{"rt": "19547.0", "trial_number": "0", "skipped": "False", "complete": "True", "assignment": "31LM9EDVOM0C0BWUVMJXJINN3QPJNI", "start_time": "1.51752392273e+12", "human_length": "16", "nodes_expanded": "999", "instance": "prb8786", "end_time": "1.51752394228e+12", "optimal_length": "7", "subject": "A1NT8BT94ME6F5"}
{"rt": "16242.0", "trial_number": "0", "skipped": "False", "complete": "True", "assignment": "3RUIQRXJBCWS71H9MUFVM5WQ3SCLLJ", "start_time": "1.51815672314e+12", "human_length": "9", "nodes_expanded": "999", "instance": "prb8786", "end_time": "1.51815673938e+12", "optimal_length": "7", "subject": "A1SJRFJWFXSDH4"}
{"rt": "14875.0", "trial_number": "0", "skipped": "False", "complete": "True", "assignment": "3PB5A5BD0WED6OE679H5Q89HBDGG71", "start_time": "1.51795030255e+12", "human_length": "12", "nodes_expanded": "999", "instance": "prb8786", "end_time": "1.51795031742e+12", "optimal_length": "7", "subject": "A1USR9JCAMDGM3"}
{"rt": "13030.0", "trial_number": "0", "skipped": "False", "complete": "True", "assignment": "3XC1O3LBOTUGQEPEV3HM8W67X4RTLL", "start_time": "1.51813646116e+12", "human_length": "9", "nodes_expanded": "999", "instance": "prb8786", "end_time": "1.51813647419e+12", "optimal_length": "7", "subject": "A1ZTSCPETU3UJW"}
{"rt": "9284.0", "trial_number": "0", "skipped": "False", "complete": "True", "assignment": "34BBWHLWHBJ6SUL255PK30LEGY5IWG", "start_time": "1.51639076192e+12", "human_length": "8", "nodes_expanded": "999", "instance": "prb8786", "end_time": "1.5163907712e+12", "optimal_length": "7", "subject": "A214HWAW1PYWO8"}
{"rt": "0.0", "trial_number": "0", "skipped": "False", "complete": "False", "assignment": "3IHR8NYAM89M0EPM8U9LH53ZJDTP4U", "start_time": "1.51682502863e+12", "human_length": "1", "nodes_expanded": "999", "instance": "prb8786", "end_time": "1.51682502863e+12", "optimal_length": "7", "subject": "A23437BMZ5T1FH"}
{"rt": "21866.0", "trial_number": "1", "skipped": "False", "complete": "True", "assignment": "3IHR8NYAM89M0EPM8U9LH53ZJDTP4U", "start_time": "1.51682502863e+12", "human_length": "13", "nodes_expanded": "999", "instance": "prb8786", "end_time": "1.5168250505e+12", "optimal_length": "7", "subject": "A23437BMZ5T1FH"}
{"rt": "0.0", "trial_number": "0", "skipped": "False", "complete": "False", "assignment": "30IQTZXKALEAAZ9CBKW0ZFZP6O5X07", "start_time": "1.51794680985e+12", "human_length": "1", "nodes_expanded": "999", "instance": "prb8786", "end_time": "1.51794680985e+12", "optimal_length": "7", "subject": "A23XJ8I86R0O3B"}
{"rt": "3508.0", "trial_number": "1", "skipped": "False", "complete": "False", "assignment": "30IQTZXKALEAAZ9CBKW0ZFZP6O5X07", "start_time": "1.51794680989e+12", "human_length": "2", "nodes_expanded": "999", "instance": "prb8786", "end_time": "1.5179468134e+12", "optimal_length": "7", "subject": "A23XJ8I86R0O3B"}
{"rt": "12209.0", "trial_number": "2", "skipped": "False", "complete": "True", "assignment": "30IQTZXKALEAAZ9CBKW0ZFZP6O5X07", "start_time": "1.51794681488e+12", "human_length": "12", "nodes_expanded": "999", "instance": "prb8786", "end_time": "1.51794682709e+12", "optimal_length": "7", "subject": "A23XJ8I86R0O3B"}
{"rt": "13108.0", "trial_number": "0", "skipped": "False", "complete": "True", "assignment": "3ZV9H2YQQEFR2R3JK2IXZUJPXAF3WW", "start_time": "1.51630781401e+12", "human_length": "10", "nodes_expanded": "999", "instance": "prb8786", "end_time": "1.51630782711e+12", "optimal_length": "7", "subject": "A289D98Z4GAZ28"}
{"rt": "34078.0", "trial_number": "0", "skipped": "False", "complete": "True", "assignment": "3SITXWYCNWHBUMCM90TPJWV8Y7AXBW", "start_time": "1.51816546816e+12", "human_length": "10", "nodes_expanded": "999", "instance": "prb8786", "end_time": "1.51816550224e+12", "optimal_length": "7", "subject": "A28RX7L0QZ993M"}
{"rt": "0.0", "trial_number": "0", "skipped": "False", "complete": "False", "assignment": "37WLF8U1WQYZ4AWKEQXSIM1ELVEK6W", "start_time": "1.5168299234e+12", "human_length": "1", "nodes_expanded": "999", "instance": "prb8786", "end_time": "1.5168299234e+12", "optimal_length": "7", "subject": "A2EPBSY0VPI38S"}
{"rt": "21533.0", "trial_number": "1", "skipped": "False", "complete": "True", "assignment": "37WLF8U1WQYZ4AWKEQXSIM1ELVEK6W", "start_time": "1.5168299234e+12", "human_length": "14", "nodes_expanded": "999", "instance": "prb8786", "end_time": "1.51682994494e+12", "optimal_length": "7", "subject": "A2EPBSY0VPI38S"}
{"rt": "0.0", "trial_number": "0", "skipped": "False", "complete": "False", "assignment": "3X4MXAO0BHWJLTOLVSJTHSM54OHWRG", "start_time": "1.51682322484e+12", "human_length": "1", "nodes_expanded": "999", "instance": "prb8786", "end_time": "1.51682322484e+12", "optimal_length": "7", "subject": "A2IBQA01NR5N76"}
{"rt": "12380.0", "trial_number": "1", "skipped": "False", "complete": "True", "assignment": "3X4MXAO0BHWJLTOLVSJTHSM54OHWRG", "start_time": "1.51682322484e+12", "human_length": "13", "nodes_expanded": "999", "instance": "prb8786", "end_time": "1.51682323722e+12", "optimal_length": "7", "subject": "A2IBQA01NR5N76"}
{"rt": "12380.0", "trial_number": "0", "skipped": "False", "complete": "True", "assignment": "3X4MXAO0BHWJLTOLVSJTHSM54OHWRG", "start_time": "1.51682322484e+12", "human_length": "13", "nodes_expanded": "999", "instance": "prb8786", "end_time": "1.51682323722e+12", "optimal_length": "7", "subject": "A2IBQA01NR5N76"}
{"rt": "42738.0", "trial_number": "0", "skipped": "False", "complete": "True", "assignment": "3FUI0JHJPY6UBT1VAI7VUX8S3KH33W", "start_time": "1.51814952169e+12", "human_length": "26", "nodes_expanded": "999", "instance": "prb8786", "end_time": "1.51814956443e+12", "optimal_length": "7", "subject": "A2QIZ31TMHU0GD"}
{"rt": "13441.0", "trial_number": "0", "skipped": "False", "complete": "True", "assignment": "3TAYZSBPLMG9ASQRWXURJVBCPLN2SH", "start_time": "1.51813684867e+12", "human_length": "9", "nodes_expanded": "999", "instance": "prb8786", "end_time": "1.51813686211e+12", "optimal_length": "7", "subject": "A2RCYLKY072XXO"}
{"rt": "0.0", "trial_number": "0", "skipped": "False", "complete": "False", "assignment": "3IJXV6UZ1YR1KY4G6BFEG1DXP7SRI1", "start_time": "1.51675131903e+12", "human_length": "1", "nodes_expanded": "999", "instance": "prb8786", "end_time": "1.51675131903e+12", "optimal_length": "7", "subject": "A2RTJ6BDY0DZVZ"}
{"rt": "0.0", "trial_number": "1", "skipped": "False", "complete": "False", "assignment": "3IJXV6UZ1YR1KY4G6BFEG1DXP7SRI1", "start_time": "1.51675131903e+12", "human_length": "1", "nodes_expanded": "999", "instance": "prb8786", "end_time": "1.51675131903e+12", "optimal_length": "7", "subject": "A2RTJ6BDY0DZVZ"}
{"rt": "10490.0", "trial_number": "2", "skipped": "False", "complete": "True", "assignment": "3IJXV6UZ1YR1KY4G6BFEG1DXP7SRI1", "start_time": "1.51675131903e+12", "human_length": "9", "nodes_expanded": "999", "instance": "prb8786", "end_time": "1.51675132952e+12", "optimal_length": "7", "subject": "A2RTJ6BDY0DZVZ"}
{"rt": "10490.0", "trial_number": "0", "skipped": "False", "complete": "True", "assignment": "3IJXV6UZ1YR1KY4G6BFEG1DXP7SRI1", "start_time": "1.51675131903e+12", "human_length": "9", "nodes_expanded": "999", "instance": "prb8786", "end_time": "1.51675132952e+12", "optimal_length": "7", "subject": "A2RTJ6BDY0DZVZ"}
{"rt": "0.0", "trial_number": "0", "skipped": "False", "complete": "False", "assignment": "3WSELTNVR4AZUVYAYCSWZIQW0J4ATB", "start_time": "1.51673876352e+12", "human_length": "1", "nodes_expanded": "999", "instance": "prb8786", "end_time": "1.51673876352e+12", "optimal_length": "7", "subject": "A2TQNX64349OZ9"}
{"rt": "0.0", "trial_number": "1", "skipped": "False", "complete": "False", "assignment": "3WSELTNVR4AZUVYAYCSWZIQW0J4ATB", "start_time": "1.51673876352e+12", "human_length": "1", "nodes_expanded": "999", "instance": "prb8786", "end_time": "1.51673876352e+12", "optimal_length": "7", "subject": "A2TQNX64349OZ9"}
{"rt": "9584.0", "trial_number": "2", "skipped": "False", "complete": "True", "assignment": "3WSELTNVR4AZUVYAYCSWZIQW0J4ATB", "start_time": "1.51673876352e+12", "human_length": "9", "nodes_expanded": "999", "instance": "prb8786", "end_time": "1.5167387731e+12", "optimal_length": "7", "subject": "A2TQNX64349OZ9"}
{"rt": "9584.0", "trial_number": "0", "skipped": "False", "complete": "True", "assignment": "3WSELTNVR4AZUVYAYCSWZIQW0J4ATB", "start_time": "1.51673876352e+12", "human_length": "9", "nodes_expanded": "999", "instance": "prb8786", "end_time": "1.5167387731e+12", "optimal_length": "7", "subject": "A2TQNX64349OZ9"}
{"rt": "16303.0", "trial_number": "0", "skipped": "False", "complete": "True", "assignment": "3JCG6DTRV4YEPVDZ64VNKDUEMPGQQ1", "start_time": "1.51794708019e+12", "human_length": "8", "nodes_expanded": "999", "instance": "prb8786", "end_time": "1.51794709649e+12", "optimal_length": "7", "subject": "A2V7KYLBCBTI3B"}
{"rt": "24546.0", "trial_number": "0", "skipped": "False", "complete": "True", "assignment": "36AHBNMV1SKT9O0GSS6XX0QHZV3YDN", "start_time": "1.51630435266e+12", "human_length": "16", "nodes_expanded": "999", "instance": "prb8786", "end_time": "1.5163043772e+12", "optimal_length": "7", "subject": "A39GADIK8RLMVC"}
{"rt": "20410.0", "trial_number": "0", "skipped": "False", "complete": "True", "assignment": "3TXD01ZLD5PZSJXIPG8FRBQYTI9U4X", "start_time": "1.51794504102e+12", "human_length": "10", "nodes_expanded": "999", "instance": "prb8786", "end_time": "1.51794506143e+12", "optimal_length": "7", "subject": "A3BPRPN10HJD4B"}
{"rt": "12751.0", "trial_number": "0", "skipped": "False", "complete": "True", "assignment": "34HJIJKLP64Z5YMIU6IKNXSH7PDV4I", "start_time": "1.5179405815e+12", "human_length": "9", "nodes_expanded": "999", "instance": "prb8786", "end_time": "1.51794059425e+12", "optimal_length": "7", "subject": "A3CTXNQ2GXIQSP"}
{"rt": "9719.0", "trial_number": "0", "skipped": "False", "complete": "True", "assignment": "3TPWUS5F8A9FFRZ2DVTYSXNJ6BWWC6", "start_time": "1.51794163776e+12", "human_length": "7", "nodes_expanded": "999", "instance": "prb8786", "end_time": "1.51794164747e+12", "optimal_length": "7", "subject": "A3GXC3VG37CQ3G"}
{"rt": "0.0", "trial_number": "0", "skipped": "False", "complete": "False", "assignment": "3I2PTA7R3U2SESF4TZBQORI5LSJQKK", "start_time": "1.51676126018e+12", "human_length": "1", "nodes_expanded": "999", "instance": "prb8786", "end_time": "1.51676126018e+12", "optimal_length": "7", "subject": "A3NMQ3019X6YE0"}
{"rt": "0.0", "trial_number": "1", "skipped": "False", "complete": "False", "assignment": "3I2PTA7R3U2SESF4TZBQORI5LSJQKK", "start_time": "1.51676126018e+12", "human_length": "1", "nodes_expanded": "999", "instance": "prb8786", "end_time": "1.51676126018e+12", "optimal_length": "7", "subject": "A3NMQ3019X6YE0"}
{"rt": "25215.0", "trial_number": "2", "skipped": "False", "complete": "True", "assignment": "3I2PTA7R3U2SESF4TZBQORI5LSJQKK", "start_time": "1.51676126018e+12", "human_length": "17", "nodes_expanded": "999", "instance": "prb8786", "end_time": "1.5167612854e+12", "optimal_length": "7", "subject": "A3NMQ3019X6YE0"}
{"rt": "38338.0", "trial_number": "3", "skipped": "False", "complete": "True", "assignment": "3V5Q80FXIYZ5QB5C6ITQBN30WY823U", "start_time": "1.51753353189e+12", "human_length": "28", "nodes_expanded": "999", "instance": "prb8786", "end_time": "1.51753357023e+12", "optimal_length": "7", "subject": "A3NMQ3019X6YE0"}
{"rt": "25215.0", "trial_number": "0", "skipped": "False", "complete": "True", "assignment": "3I2PTA7R3U2SESF4TZBQORI5LSJQKK", "start_time": "1.51676126018e+12", "human_length": "17", "nodes_expanded": "999", "instance": "prb8786", "end_time": "1.5167612854e+12", "optimal_length": "7", "subject": "A3NMQ3019X6YE0"}
{"rt": "38338.0", "trial_number": "1", "skipped": "False", "complete": "True", "assignment": "3V5Q80FXIYZ5QB5C6ITQBN30WY823U", "start_time": "1.51753353189e+12", "human_length": "28", "nodes_expanded": "999", "instance": "prb8786", "end_time": "1.51753357023e+12", "optimal_length": "7", "subject": "A3NMQ3019X6YE0"}
{"rt": "17438.0", "trial_number": "0", "skipped": "False", "complete": "True", "assignment": "3STRJBFXOXZ5687WA35LTWTS7QZKTT", "start_time": "1.51794548007e+12", "human_length": "12", "nodes_expanded": "999", "instance": "prb8786", "end_time": "1.51794549750e+12", "optimal_length": "7", "subject": "A3OB6REG5CGHK1"}
{"rt": "0.0", "trial_number": "0", "skipped": "False", "complete": "False", "assignment": "3X87C8JFV7JQ2BSCY8KSFD9F2ILSQK", "start_time": "1.51674010556e+12", "human_length": "1", "nodes_expanded": "999", "instance": "prb8786", "end_time": "1.51674010556e+12", "optimal_length": "7", "subject": "A3Q0XAGQ7TD7MP"}
{"rt": "0.0", "trial_number": "1", "skipped": "False", "complete": "False", "assignment": "3X87C8JFV7JQ2BSCY8KSFD9F2ILSQK", "start_time": "1.51674010556e+12", "human_length": "1", "nodes_expanded": "999", "instance": "prb8786", "end_time": "1.51674010556e+12", "optimal_length": "7", "subject": "A3Q0XAGQ7TD7MP"}
{"rt": "10284.0", "trial_number": "2", "skipped": "False", "complete": "True", "assignment": "3X87C8JFV7JQ2BSCY8KSFD9F2ILSQK", "start_time": "1.51674010556e+12", "human_length": "7", "nodes_expanded": "999", "instance": "prb8786", "end_time": "1.51674011585e+12", "optimal_length": "7", "subject": "A3Q0XAGQ7TD7MP"}
{"rt": "10921.0", "trial_number": "3", "skipped": "False", "complete": "True", "assignment": "3GLB5JMZFY3TNXFGYMKRQ0JDXNTDGZ", "start_time": "1.51794697296e+12", "human_length": "7", "nodes_expanded": "999", "instance": "prb8786", "end_time": "1.51794698388e+12", "optimal_length": "7", "subject": "A3Q0XAGQ7TD7MP"}
{"rt": "10284.0", "trial_number": "0", "skipped": "False", "complete": "True", "assignment": "3X87C8JFV7JQ2BSCY8KSFD9F2ILSQK", "start_time": "1.51674010556e+12", "human_length": "7", "nodes_expanded": "999", "instance": "prb8786", "end_time": "1.51674011585e+12", "optimal_length": "7", "subject": "A3Q0XAGQ7TD7MP"}
{"rt": "10921.0", "trial_number": "1", "skipped": "False", "complete": "True", "assignment": "3GLB5JMZFY3TNXFGYMKRQ0JDXNTDGZ", "start_time": "1.51794697296e+12", "human_length": "7", "nodes_expanded": "999", "instance": "prb8786", "end_time": "1.51794698388e+12", "optimal_length": "7", "subject": "A3Q0XAGQ7TD7MP"}
{"rt": "28166.0", "trial_number": "0", "skipped": "False", "complete": "True", "assignment": "3M0BCWMB8W4W5M7WZVX3HDH1P53WB1", "start_time": "1.51815998558e+12", "human_length": "10", "nodes_expanded": "999", "instance": "prb8786", "end_time": "1.51816001374e+12", "optimal_length": "7", "subject": "A53S7J4JGWG38"}
{"rt": "0.0", "trial_number": "0", "skipped": "False", "complete": "False", "assignment": "34T446B1C1MM71YHKO0DL2EF3BLC0W", "start_time": "1.51673473171e+12", "human_length": "1", "nodes_expanded": "999", "instance": "prb8786", "end_time": "1.51673473171e+12", "optimal_length": "7", "subject": "ABL3H3O3BI8ZD"}
{"rt": "0.0", "trial_number": "1", "skipped": "False", "complete": "False", "assignment": "34T446B1C1MM71YHKO0DL2EF3BLC0W", "start_time": "1.51673473171e+12", "human_length": "1", "nodes_expanded": "999", "instance": "prb8786", "end_time": "1.51673473171e+12", "optimal_length": "7", "subject": "ABL3H3O3BI8ZD"}
{"rt": "14091.0", "trial_number": "2", "skipped": "False", "complete": "True", "assignment": "34T446B1C1MM71YHKO0DL2EF3BLC0W", "start_time": "1.51673473171e+12", "human_length": "14", "nodes_expanded": "999", "instance": "prb8786", "end_time": "1.5167347458e+12", "optimal_length": "7", "subject": "ABL3H3O3BI8ZD"}
{"rt": "14091.0", "trial_number": "0", "skipped": "False", "complete": "True", "assignment": "34T446B1C1MM71YHKO0DL2EF3BLC0W", "start_time": "1.51673473171e+12", "human_length": "14", "nodes_expanded": "999", "instance": "prb8786", "end_time": "1.5167347458e+12", "optimal_length": "7", "subject": "ABL3H3O3BI8ZD"}
{"rt": "10278.0", "trial_number": "0", "skipped": "False", "complete": "True", "assignment": "3IXEICO793RY7TM78ZBKJDOA7ADT6Q", "start_time": "1.51816869672e+12", "human_length": "7", "nodes_expanded": "999", "instance": "prb8786", "end_time": "1.518168707e+12", "optimal_length": "7", "subject": "ALH1K6ZAQQMN7"}
{"rt": "14729.0", "trial_number": "0", "skipped": "False", "complete": "True", "assignment": "36H9ULYP6320CJJDXY0KBDEE1Z3JFB", "start_time": "1.51753284812e+12", "human_length": "9", "nodes_expanded": "999", "instance": "prb8786", "end_time": "1.51753286285e+12", "optimal_length": "7", "subject": "AN098C29EGJ6"}
{"rt": "14015.0", "trial_number": "0", "skipped": "False", "complete": "True", "assignment": "3AZHRG4CU5SYU12YRVPCSZALW5003R", "start_time": "1.51630750339e+12", "human_length": "17", "nodes_expanded": "999", "instance": "prb8786", "end_time": "1.5163075174e+12", "optimal_length": "7", "subject": "ARWF605I7RWM7"}
{"rt": "0.0", "trial_number": "0", "skipped": "False", "complete": "False", "assignment": "3ZSY5X72NYJBGKFJ46SJ0Y9J0RLROB", "start_time": "1.5163884338e+12", "human_length": "1", "nodes_expanded": "999", "instance": "prb8786", "end_time": "1.5163884338e+12", "optimal_length": "7", "subject": "AU4KK3OYS2UZF"}
{"rt": "0.0", "trial_number": "1", "skipped": "False", "complete": "False", "assignment": "3ZSY5X72NYJBGKFJ46SJ0Y9J0RLROB", "start_time": "1.51638843382e+12", "human_length": "1", "nodes_expanded": "999", "instance": "prb8786", "end_time": "1.51638843382e+12", "optimal_length": "7", "subject": "AU4KK3OYS2UZF"}
{"rt": "0.0", "trial_number": "2", "skipped": "False", "complete": "False", "assignment": "3ZSY5X72NYJBGKFJ46SJ0Y9J0RLROB", "start_time": "1.51638843383e+12", "human_length": "1", "nodes_expanded": "999", "instance": "prb8786", "end_time": "1.51638843383e+12", "optimal_length": "7", "subject": "AU4KK3OYS2UZF"}
{"rt": "0.0", "trial_number": "3", "skipped": "False", "complete": "False", "assignment": "3ZSY5X72NYJBGKFJ46SJ0Y9J0RLROB", "start_time": "1.51638843385e+12", "human_length": "1", "nodes_expanded": "999", "instance": "prb8786", "end_time": "1.51638843385e+12", "optimal_length": "7", "subject": "AU4KK3OYS2UZF"}
{"rt": "0.0", "trial_number": "4", "skipped": "False", "complete": "False", "assignment": "3ZSY5X72NYJBGKFJ46SJ0Y9J0RLROB", "start_time": "1.51638843387e+12", "human_length": "1", "nodes_expanded": "999", "instance": "prb8786", "end_time": "1.51638843387e+12", "optimal_length": "7", "subject": "AU4KK3OYS2UZF"}
{"rt": "0.0", "trial_number": "5", "skipped": "False", "complete": "False", "assignment": "3ZSY5X72NYJBGKFJ46SJ0Y9J0RLROB", "start_time": "1.51638843389e+12", "human_length": "1", "nodes_expanded": "999", "instance": "prb8786", "end_time": "1.51638843389e+12", "optimal_length": "7", "subject": "AU4KK3OYS2UZF"}
{"rt": "0.0", "trial_number": "6", "skipped": "False", "complete": "False", "assignment": "3ZSY5X72NYJBGKFJ46SJ0Y9J0RLROB", "start_time": "1.51638843392e+12", "human_length": "1", "nodes_expanded": "999", "instance": "prb8786", "end_time": "1.51638843392e+12", "optimal_length": "7", "subject": "AU4KK3OYS2UZF"}
{"rt": "0.0", "trial_number": "7", "skipped": "False", "complete": "False", "assignment": "3ZSY5X72NYJBGKFJ46SJ0Y9J0RLROB", "start_time": "1.51638843393e+12", "human_length": "1", "nodes_expanded": "999", "instance": "prb8786", "end_time": "1.51638843393e+12", "optimal_length": "7", "subject": "AU4KK3OYS2UZF"}
{"rt": "0.0", "trial_number": "8", "skipped": "False", "complete": "False", "assignment": "3ZSY5X72NYJBGKFJ46SJ0Y9J0RLROB", "start_time": "1.51638843395e+12", "human_length": "1", "nodes_expanded": "999", "instance": "prb8786", "end_time": "1.51638843395e+12", "optimal_length": "7", "subject": "AU4KK3OYS2UZF"}
{"rt": "0.0", "trial_number": "9", "skipped": "False", "complete": "False", "assignment": "3ZSY5X72NYJBGKFJ46SJ0Y9J0RLROB", "start_time": "1.51638843398e+12", "human_length": "1", "nodes_expanded": "999", "instance": "prb8786", "end_time": "1.51638843398e+12", "optimal_length": "7", "subject": "AU4KK3OYS2UZF"}
{"rt": "0.0", "trial_number": "10", "skipped": "False", "complete": "False", "assignment": "3ZSY5X72NYJBGKFJ46SJ0Y9J0RLROB", "start_time": "1.516388434e+12", "human_length": "1", "nodes_expanded": "999", "instance": "prb8786", "end_time": "1.516388434e+12", "optimal_length": "7", "subject": "AU4KK3OYS2UZF"}
{"rt": "6315.0", "trial_number": "11", "skipped": "False", "complete": "True", "assignment": "3ZSY5X72NYJBGKFJ46SJ0Y9J0RLROB", "start_time": "1.51638843918e+12", "human_length": "7", "nodes_expanded": "999", "instance": "prb8786", "end_time": "1.51638844549e+12", "optimal_length": "7", "subject": "AU4KK3OYS2UZF"}
{"rt": "22228.0", "trial_number": "0", "skipped": "False", "complete": "True", "assignment": "33PPO7FECWN7JOLBOAKUBCWTC0AIDL", "start_time": "1.51795087057e+12", "human_length": "10", "nodes_expanded": "999", "instance": "prb8786", "end_time": "1.5179508928e+12", "optimal_length": "7", "subject": "AXKM02NVXNGOM"}
{"rt": "10881.0", "trial_number": "0", "skipped": "False", "complete": "True", "assignment": "3ON104KXQL4CKNMNKGNG9ZBVBAB4WI", "start_time": "1.51631197606e+12", "human_length": "9", "nodes_expanded": "999", "instance": "prb8786", "end_time": "1.51631198694e+12", "optimal_length": "7", "subject": "AYPOAY43REHC8"}
