{"rt": "29212.0", "trial_number": "0", "skipped": "False", "complete": "True", "assignment": "3TYCR1GOTDRCCQYD1V64UK7OHTBZLQ", "start_time": "1.51753675906e+12", "human_length": "25", "nodes_expanded": "999", "instance": "prb9718", "end_time": "1.51753678827e+12", "optimal_length": "11", "subject": "A13BZCNJ0WR1T7"}
{"rt": "0.0", "trial_number": "0", "skipped": "False", "complete": "False", "assignment": "3YW4XOSQKRTI0K0Z2YPDTDJVFABU1I", "start_time": "1.51682408585e+12", "human_length": "1", "nodes_expanded": "999", "instance": "prb9718", "end_time": "1.51682408585e+12", "optimal_length": "11", "subject": "A15781PHGW377Y"}
{"rt": "68985.0", "trial_number": "1", "skipped": "False", "complete": "True", "assignment": "3YW4XOSQKRTI0K0Z2YPDTDJVFABU1I", "start_time": "1.51682408585e+12", "human_length": "29", "nodes_expanded": "999", "instance": "prb9718", "end_time": "1.51682415484e+12", "optimal_length": "11", "subject": "A15781PHGW377Y"}
{"rt": "68985.0", "trial_number": "0", "skipped": "False", "complete": "True", "assignment": "3YW4XOSQKRTI0K0Z2YPDTDJVFABU1I", "start_time": "1.51682408585e+12", "human_length": "29", "nodes_expanded": "999", "instance": "prb9718", "end_time": "1.51682415484e+12", "optimal_length": "11", "subject": "A15781PHGW377Y"}
{"rt": "31217.0", "trial_number": "0", "skipped": "False", "complete": "True", "assignment": "3TS1AR6UQRM7SOIBWPBN8N9589Y7FV", "start_time": "1.51684325783e+12", "human_length": "24", "nodes_expanded": "999", "instance": "prb9718", "end_time": "1.51684328904e+12", "optimal_length": "11", "subject": "A15FXHC1CVNW31"}
{"rt": "83679.0", "trial_number": "0", "skipped": "False", "complete": "True", "assignment": "3IJXV6UZ1YR1KY4G6BFEG1DXR47RIC", "start_time": "1.51797196983e+12", "human_length": "58", "nodes_expanded": "999", "instance": "prb9718", "end_time": "1.51797205351e+12", "optimal_length": "11", "subject": "A18T3WK7J16C1B"}
{"rt": "16216.0", "trial_number": "0", "skipped": "False", "complete": "True", "assignment": "3PMBY0YE28B43VMUKKJ6EDF85RV9C8", "start_time": "1.51638709716e+12", "human_length": "14", "nodes_expanded": "999", "instance": "prb9718", "end_time": "1.51638711337e+12", "optimal_length": "11", "subject": "A191V7PT3DQKDP"}
{"rt": "111181.0", "trial_number": "0", "skipped": "False", "complete": "True", "assignment": "3H0W84IWBLAP4T2UASPNVMF5ZH7ER9", "start_time": "1.51755223407e+12", "human_length": "55", "nodes_expanded": "999", "instance": "prb9718", "end_time": "1.51755234525e+12", "optimal_length": "11", "subject": "A1AKX1C8GCVCTP"}
{"rt": "32886.0", "trial_number": "0", "skipped": "False", "complete": "False", "assignment": "3ZSANO2JCGFTBM23KS9Y3E51YP4FSQ", "start_time": "1.51814189312e+12", "human_length": "31", "nodes_expanded": "999", "instance": "prb9718", "end_time": "1.51814192601e+12", "optimal_length": "11", "subject": "A1F42D4L22K5ND"}
{"rt": "38998.0", "trial_number": "1", "skipped": "False", "complete": "True", "assignment": "3ZSANO2JCGFTBM23KS9Y3E51YP4FSQ", "start_time": "1.51814192972e+12", "human_length": "20", "nodes_expanded": "999", "instance": "prb9718", "end_time": "1.51814196872e+12", "optimal_length": "11", "subject": "A1F42D4L22K5ND"}
{"rt": "75628.0", "trial_number": "0", "skipped": "False", "complete": "True", "assignment": "3TS1AR6UQRM7SOIBWPBN8N9589Y7FV", "start_time": "1.51683962532e+12", "human_length": "58", "nodes_expanded": "999", "instance": "prb9718", "end_time": "1.51683970095e+12", "optimal_length": "11", "subject": "A1F4N58CAX8IMK"}
{"rt": "16525.0", "trial_number": "1", "skipped": "False", "complete": "True", "assignment": "35DR22AR5ES6RR89U7EJ1DXW91AX3P", "start_time": "1.51795268709e+12", "human_length": "16", "nodes_expanded": "999", "instance": "prb9718", "end_time": "1.51795270361e+12", "optimal_length": "11", "subject": "A1F4N58CAX8IMK"}
{"rt": "11961.0", "trial_number": "0", "skipped": "False", "complete": "True", "assignment": "33F859I567LE8WC74WB3GA7E94XBHW", "start_time": "1.51796983368e+12", "human_length": "12", "nodes_expanded": "999", "instance": "prb9718", "end_time": "1.51796984564e+12", "optimal_length": "11", "subject": "A1GQS6USF2JEYG"}
{"rt": "13915.0", "trial_number": "0", "skipped": "False", "complete": "True", "assignment": "3XLBSAQ9Z5KDX59BX15UBFPNNHYZ7Q", "start_time": "1.51814599353e+12", "human_length": "12", "nodes_expanded": "999", "instance": "prb9718", "end_time": "1.51814600744e+12", "optimal_length": "11", "subject": "A1HFNOKU591WCY"}
{"rt": "0.0", "trial_number": "0", "skipped": "False", "complete": "False", "assignment": "3FTF2T8WLSQDHTSZ1BJ7Q7MB14SW9H", "start_time": "1.51813754291e+12", "human_length": "1", "nodes_expanded": "999", "instance": "prb9718", "end_time": "1.51813754291e+12", "optimal_length": "11", "subject": "A1IUH9D7N69VS"}
{"rt": "4675.0", "trial_number": "1", "skipped": "False", "complete": "False", "assignment": "3FTF2T8WLSQDHTSZ1BJ7Q7MB14SW9H", "start_time": "1.51813754492e+12", "human_length": "2", "nodes_expanded": "999", "instance": "prb9718", "end_time": "1.51813754959e+12", "optimal_length": "11", "subject": "A1IUH9D7N69VS"}
{"rt": "9704.0", "trial_number": "2", "skipped": "False", "complete": "True", "assignment": "3FTF2T8WLSQDHTSZ1BJ7Q7MB14SW9H", "start_time": "1.51813755386e+12", "human_length": "11", "nodes_expanded": "999", "instance": "prb9718", "end_time": "1.51813756356e+12", "optimal_length": "11", "subject": "A1IUH9D7N69VS"}
{"rt": "31057.0", "trial_number": "0", "skipped": "False", "complete": "True", "assignment": "3VE8AYVF8N5BS2NU6U3TMN50MV38FP", "start_time": "1.51814256476e+12", "human_length": "15", "nodes_expanded": "999", "instance": "prb9718", "end_time": "1.51814259581e+12", "optimal_length": "11", "subject": "A1JN13098RIE78"}
{"rt": "20172.0", "trial_number": "0", "skipped": "False", "complete": "True", "assignment": "3YW4XOSQKRTI0K0Z2YPDTDJVFABU1I", "start_time": "1.51683249612e+12", "human_length": "19", "nodes_expanded": "999", "instance": "prb9718", "end_time": "1.51683251629e+12", "optimal_length": "11", "subject": "A1LR0VQIHQUJAM"}
{"rt": "33913.0", "trial_number": "0", "skipped": "False", "complete": "True", "assignment": "31LM9EDVOM0C0BWUVMJXJINN3QPJNI", "start_time": "1.51752336027e+12", "human_length": "23", "nodes_expanded": "999", "instance": "prb9718", "end_time": "1.51752339418e+12", "optimal_length": "11", "subject": "A1NT8BT94ME6F5"}
{"rt": "0.0", "trial_number": "0", "skipped": "False", "complete": "False", "assignment": "3RUIQRXJBCWS71H9MUFVM5WQ3SCLLJ", "start_time": "1.51815903127e+12", "human_length": "1", "nodes_expanded": "999", "instance": "prb9718", "end_time": "1.51815903127e+12", "optimal_length": "11", "subject": "A1SJRFJWFXSDH4"}
{"rt": "55241.0", "trial_number": "1", "skipped": "True", "complete": "False", "assignment": "3RUIQRXJBCWS71H9MUFVM5WQ3SCLLJ", "start_time": "1.51815903253e+12", "human_length": "28", "nodes_expanded": "999", "instance": "prb9718", "end_time": "1.51815908778e+12", "optimal_length": "11", "subject": "A1SJRFJWFXSDH4"}
{"rt": "26672.0", "trial_number": "0", "skipped": "False", "complete": "True", "assignment": "3PB5A5BD0WED6OE679H5Q89HBDGG71", "start_time": "1.51795242623e+12", "human_length": "17", "nodes_expanded": "999", "instance": "prb9718", "end_time": "1.51795245290e+12", "optimal_length": "11", "subject": "A1USR9JCAMDGM3"}
{"rt": "27662.0", "trial_number": "0", "skipped": "False", "complete": "False", "assignment": "34BBWHLWHBJ6SUL255PK30LEGY5IWG", "start_time": "1.51639357942e+12", "human_length": "19", "nodes_expanded": "999", "instance": "prb9718", "end_time": "1.51639360708e+12", "optimal_length": "11", "subject": "A214HWAW1PYWO8"}
{"rt": "20345.0", "trial_number": "1", "skipped": "False", "complete": "False", "assignment": "34BBWHLWHBJ6SUL255PK30LEGY5IWG", "start_time": "1.51639360837e+12", "human_length": "16", "nodes_expanded": "999", "instance": "prb9718", "end_time": "1.51639362872e+12", "optimal_length": "11", "subject": "A214HWAW1PYWO8"}
{"rt": "31777.0", "trial_number": "2", "skipped": "False", "complete": "False", "assignment": "34BBWHLWHBJ6SUL255PK30LEGY5IWG", "start_time": "1.51639363175e+12", "human_length": "3", "nodes_expanded": "999", "instance": "prb9718", "end_time": "1.51639366352e+12", "optimal_length": "11", "subject": "A214HWAW1PYWO8"}
{"rt": "42691.0", "trial_number": "3", "skipped": "False", "complete": "True", "assignment": "34BBWHLWHBJ6SUL255PK30LEGY5IWG", "start_time": "1.51639367053e+12", "human_length": "34", "nodes_expanded": "999", "instance": "prb9718", "end_time": "1.51639371322e+12", "optimal_length": "11", "subject": "A214HWAW1PYWO8"}
{"rt": "0.0", "trial_number": "0", "skipped": "False", "complete": "False", "assignment": "3IHR8NYAM89M0EPM8U9LH53ZJDTP4U", "start_time": "1.51682654989e+12", "human_length": "1", "nodes_expanded": "999", "instance": "prb9718", "end_time": "1.51682654989e+12", "optimal_length": "11", "subject": "A23437BMZ5T1FH"}
{"rt": "36918.0", "trial_number": "1", "skipped": "False", "complete": "True", "assignment": "3IHR8NYAM89M0EPM8U9LH53ZJDTP4U", "start_time": "1.51682654989e+12", "human_length": "28", "nodes_expanded": "999", "instance": "prb9718", "end_time": "1.51682658681e+12", "optimal_length": "11", "subject": "A23437BMZ5T1FH"}
{"rt": "98197.0", "trial_number": "0", "skipped": "False", "complete": "True", "assignment": "3SITXWYCNWHBUMCM90TPJWV8Y7AXBW", "start_time": "1.5181660416e+12", "human_length": "34", "nodes_expanded": "999", "instance": "prb9718", "end_time": "1.5181661398e+12", "optimal_length": "11", "subject": "A28RX7L0QZ993M"}
{"rt": "65585.0", "trial_number": "0", "skipped": "False", "complete": "False", "assignment": "3RXCAC0YISXH62JPHE9B485CNAL8G6", "start_time": "1.51813638738e+12", "human_length": "17", "nodes_expanded": "999", "instance": "prb9718", "end_time": "1.51813645296e+12", "optimal_length": "11", "subject": "A2CHKF2A6F4MIX"}
{"rt": "44964.0", "trial_number": "1", "skipped": "False", "complete": "False", "assignment": "3RXCAC0YISXH62JPHE9B485CNAL8G6", "start_time": "1.51813646679e+12", "human_length": "11", "nodes_expanded": "999", "instance": "prb9718", "end_time": "1.51813651176e+12", "optimal_length": "11", "subject": "A2CHKF2A6F4MIX"}
{"rt": "68158.0", "trial_number": "2", "skipped": "False", "complete": "False", "assignment": "3RXCAC0YISXH62JPHE9B485CNAL8G6", "start_time": "1.51813652295e+12", "human_length": "18", "nodes_expanded": "999", "instance": "prb9718", "end_time": "1.51813659111e+12", "optimal_length": "11", "subject": "A2CHKF2A6F4MIX"}
{"rt": "44449.0", "trial_number": "3", "skipped": "True", "complete": "False", "assignment": "3RXCAC0YISXH62JPHE9B485CNAL8G6", "start_time": "1.51813662269e+12", "human_length": "4", "nodes_expanded": "999", "instance": "prb9718", "end_time": "1.51813666714e+12", "optimal_length": "11", "subject": "A2CHKF2A6F4MIX"}
{"rt": "0.0", "trial_number": "0", "skipped": "False", "complete": "False", "assignment": "37WLF8U1WQYZ4AWKEQXSIM1ELVEK6W", "start_time": "1.51682974932e+12", "human_length": "1", "nodes_expanded": "999", "instance": "prb9718", "end_time": "1.51682974932e+12", "optimal_length": "11", "subject": "A2EPBSY0VPI38S"}
{"rt": "105748.0", "trial_number": "1", "skipped": "False", "complete": "True", "assignment": "37WLF8U1WQYZ4AWKEQXSIM1ELVEK6W", "start_time": "1.51682974932e+12", "human_length": "50", "nodes_expanded": "999", "instance": "prb9718", "end_time": "1.51682985507e+12", "optimal_length": "11", "subject": "A2EPBSY0VPI38S"}
{"rt": "89801.0", "trial_number": "0", "skipped": "False", "complete": "False", "assignment": "3X4MXAO0BHWJLTOLVSJTHSM54OHWRG", "start_time": "1.51682400241e+12", "human_length": "61", "nodes_expanded": "999", "instance": "prb9718", "end_time": "1.51682409221e+12", "optimal_length": "11", "subject": "A2IBQA01NR5N76"}
{"rt": "0.0", "trial_number": "1", "skipped": "False", "complete": "False", "assignment": "3X4MXAO0BHWJLTOLVSJTHSM54OHWRG", "start_time": "1.51682413793e+12", "human_length": "1", "nodes_expanded": "999", "instance": "prb9718", "end_time": "1.51682413793e+12", "optimal_length": "11", "subject": "A2IBQA01NR5N76"}
{"rt": "0.0", "trial_number": "2", "skipped": "False", "complete": "False", "assignment": "3X4MXAO0BHWJLTOLVSJTHSM54OHWRG", "start_time": "1.51682414019e+12", "human_length": "1", "nodes_expanded": "999", "instance": "prb9718", "end_time": "1.51682414019e+12", "optimal_length": "11", "subject": "A2IBQA01NR5N76"}
{"rt": "0.0", "trial_number": "3", "skipped": "False", "complete": "False", "assignment": "3X4MXAO0BHWJLTOLVSJTHSM54OHWRG", "start_time": "1.51682414026e+12", "human_length": "1", "nodes_expanded": "999", "instance": "prb9718", "end_time": "1.51682414026e+12", "optimal_length": "11", "subject": "A2IBQA01NR5N76"}
{"rt": "0.0", "trial_number": "4", "skipped": "False", "complete": "False", "assignment": "3X4MXAO0BHWJLTOLVSJTHSM54OHWRG", "start_time": "1.51682400241e+12", "human_length": "1", "nodes_expanded": "999", "instance": "prb9718", "end_time": "1.51682400241e+12", "optimal_length": "11", "subject": "A2IBQA01NR5N76"}
{"rt": "0.0", "trial_number": "5", "skipped": "False", "complete": "False", "assignment": "3X4MXAO0BHWJLTOLVSJTHSM54OHWRG", "start_time": "1.51682413793e+12", "human_length": "1", "nodes_expanded": "999", "instance": "prb9718", "end_time": "1.51682413793e+12", "optimal_length": "11", "subject": "A2IBQA01NR5N76"}
{"rt": "0.0", "trial_number": "6", "skipped": "False", "complete": "False", "assignment": "3X4MXAO0BHWJLTOLVSJTHSM54OHWRG", "start_time": "1.51682414019e+12", "human_length": "1", "nodes_expanded": "999", "instance": "prb9718", "end_time": "1.51682414019e+12", "optimal_length": "11", "subject": "A2IBQA01NR5N76"}
{"rt": "42967.0", "trial_number": "7", "skipped": "True", "complete": "False", "assignment": "3X4MXAO0BHWJLTOLVSJTHSM54OHWRG", "start_time": "1.51682414026e+12", "human_length": "79", "nodes_expanded": "999", "instance": "prb9718", "end_time": "1.51682418323e+12", "optimal_length": "11", "subject": "A2IBQA01NR5N76"}
{"rt": "89801.0", "trial_number": "0", "skipped": "False", "complete": "False", "assignment": "3X4MXAO0BHWJLTOLVSJTHSM54OHWRG", "start_time": "1.51682400241e+12", "human_length": "61", "nodes_expanded": "999", "instance": "prb9718", "end_time": "1.51682409221e+12", "optimal_length": "11", "subject": "A2IBQA01NR5N76"}
{"rt": "0.0", "trial_number": "1", "skipped": "False", "complete": "False", "assignment": "3X4MXAO0BHWJLTOLVSJTHSM54OHWRG", "start_time": "1.51682413793e+12", "human_length": "1", "nodes_expanded": "999", "instance": "prb9718", "end_time": "1.51682413793e+12", "optimal_length": "11", "subject": "A2IBQA01NR5N76"}
{"rt": "0.0", "trial_number": "2", "skipped": "False", "complete": "False", "assignment": "3X4MXAO0BHWJLTOLVSJTHSM54OHWRG", "start_time": "1.51682414019e+12", "human_length": "1", "nodes_expanded": "999", "instance": "prb9718", "end_time": "1.51682414019e+12", "optimal_length": "11", "subject": "A2IBQA01NR5N76"}
{"rt": "43638.0", "trial_number": "3", "skipped": "True", "complete": "False", "assignment": "3X4MXAO0BHWJLTOLVSJTHSM54OHWRG", "start_time": "1.51682414026e+12", "human_length": "10", "nodes_expanded": "999", "instance": "prb9718", "end_time": "1.5168241839e+12", "optimal_length": "11", "subject": "A2IBQA01NR5N76"}
{"rt": "70000.0", "trial_number": "0", "skipped": "False", "complete": "True", "assignment": "3HYA4D452SR06NL5QDUSCWSXZI12FF", "start_time": "1.51795070571e+12", "human_length": "36", "nodes_expanded": "999", "instance": "prb9718", "end_time": "1.51795077571e+12", "optimal_length": "11", "subject": "A2OFWHV8IP7HK"}
{"rt": "19356.0", "trial_number": "0", "skipped": "True", "complete": "False", "assignment": "3TAYZSBPLMG9ASQRWXURJVBCPLN2SH", "start_time": "1.51813763246e+12", "human_length": "6", "nodes_expanded": "999", "instance": "prb9718", "end_time": "1.51813765182e+12", "optimal_length": "11", "subject": "A2RCYLKY072XXO"}
{"rt": "0.0", "trial_number": "0", "skipped": "False", "complete": "False", "assignment": "3IJXV6UZ1YR1KY4G6BFEG1DXP7SRI1", "start_time": "1.5167495866e+12", "human_length": "1", "nodes_expanded": "999", "instance": "prb9718", "end_time": "1.5167495866e+12", "optimal_length": "11", "subject": "A2RTJ6BDY0DZVZ"}
{"rt": "0.0", "trial_number": "1", "skipped": "False", "complete": "False", "assignment": "3IJXV6UZ1YR1KY4G6BFEG1DXP7SRI1", "start_time": "1.5167495866e+12", "human_length": "1", "nodes_expanded": "999", "instance": "prb9718", "end_time": "1.5167495866e+12", "optimal_length": "11", "subject": "A2RTJ6BDY0DZVZ"}
{"rt": "31735.0", "trial_number": "2", "skipped": "False", "complete": "True", "assignment": "3IJXV6UZ1YR1KY4G6BFEG1DXP7SRI1", "start_time": "1.5167495866e+12", "human_length": "19", "nodes_expanded": "999", "instance": "prb9718", "end_time": "1.51674961834e+12", "optimal_length": "11", "subject": "A2RTJ6BDY0DZVZ"}
{"rt": "31735.0", "trial_number": "0", "skipped": "False", "complete": "True", "assignment": "3IJXV6UZ1YR1KY4G6BFEG1DXP7SRI1", "start_time": "1.5167495866e+12", "human_length": "19", "nodes_expanded": "999", "instance": "prb9718", "end_time": "1.51674961834e+12", "optimal_length": "11", "subject": "A2RTJ6BDY0DZVZ"}
{"rt": "12021.0", "trial_number": "0", "skipped": "False", "complete": "False", "assignment": "3WSELTNVR4AZUVYAYCSWZIQW0J4ATB", "start_time": "1.51673896462e+12", "human_length": "7", "nodes_expanded": "999", "instance": "prb9718", "end_time": "1.51673897664e+12", "optimal_length": "11", "subject": "A2TQNX64349OZ9"}
{"rt": "27885.0", "trial_number": "1", "skipped": "False", "complete": "False", "assignment": "3WSELTNVR4AZUVYAYCSWZIQW0J4ATB", "start_time": "1.51673897753e+12", "human_length": "18", "nodes_expanded": "999", "instance": "prb9718", "end_time": "1.51673900541e+12", "optimal_length": "11", "subject": "A2TQNX64349OZ9"}
{"rt": "0.0", "trial_number": "2", "skipped": "False", "complete": "False", "assignment": "3WSELTNVR4AZUVYAYCSWZIQW0J4ATB", "start_time": "1.51673900636e+12", "human_length": "1", "nodes_expanded": "999", "instance": "prb9718", "end_time": "1.51673900636e+12", "optimal_length": "11", "subject": "A2TQNX64349OZ9"}
{"rt": "0.0", "trial_number": "3", "skipped": "False", "complete": "False", "assignment": "3WSELTNVR4AZUVYAYCSWZIQW0J4ATB", "start_time": "1.51673896462e+12", "human_length": "1", "nodes_expanded": "999", "instance": "prb9718", "end_time": "1.51673896462e+12", "optimal_length": "11", "subject": "A2TQNX64349OZ9"}
{"rt": "0.0", "trial_number": "4", "skipped": "False", "complete": "False", "assignment": "3WSELTNVR4AZUVYAYCSWZIQW0J4ATB", "start_time": "1.51673897753e+12", "human_length": "1", "nodes_expanded": "999", "instance": "prb9718", "end_time": "1.51673897753e+12", "optimal_length": "11", "subject": "A2TQNX64349OZ9"}
{"rt": "0.0", "trial_number": "5", "skipped": "False", "complete": "False", "assignment": "3WSELTNVR4AZUVYAYCSWZIQW0J4ATB", "start_time": "1.51673900636e+12", "human_length": "1", "nodes_expanded": "999", "instance": "prb9718", "end_time": "1.51673900636e+12", "optimal_length": "11", "subject": "A2TQNX64349OZ9"}
{"rt": "0.0", "trial_number": "6", "skipped": "False", "complete": "False", "assignment": "3WSELTNVR4AZUVYAYCSWZIQW0J4ATB", "start_time": "1.51673896462e+12", "human_length": "1", "nodes_expanded": "999", "instance": "prb9718", "end_time": "1.51673896462e+12", "optimal_length": "11", "subject": "A2TQNX64349OZ9"}
{"rt": "0.0", "trial_number": "7", "skipped": "False", "complete": "False", "assignment": "3WSELTNVR4AZUVYAYCSWZIQW0J4ATB", "start_time": "1.51673897753e+12", "human_length": "1", "nodes_expanded": "999", "instance": "prb9718", "end_time": "1.51673897753e+12", "optimal_length": "11", "subject": "A2TQNX64349OZ9"}
{"rt": "23752.0", "trial_number": "8", "skipped": "True", "complete": "False", "assignment": "3WSELTNVR4AZUVYAYCSWZIQW0J4ATB", "start_time": "1.51673900636e+12", "human_length": "86", "nodes_expanded": "999", "instance": "prb9718", "end_time": "1.51673903011e+12", "optimal_length": "11", "subject": "A2TQNX64349OZ9"}
{"rt": "12021.0", "trial_number": "0", "skipped": "False", "complete": "False", "assignment": "3WSELTNVR4AZUVYAYCSWZIQW0J4ATB", "start_time": "1.51673896462e+12", "human_length": "7", "nodes_expanded": "999", "instance": "prb9718", "end_time": "1.51673897664e+12", "optimal_length": "11", "subject": "A2TQNX64349OZ9"}
{"rt": "27885.0", "trial_number": "1", "skipped": "False", "complete": "False", "assignment": "3WSELTNVR4AZUVYAYCSWZIQW0J4ATB", "start_time": "1.51673897753e+12", "human_length": "18", "nodes_expanded": "999", "instance": "prb9718", "end_time": "1.51673900541e+12", "optimal_length": "11", "subject": "A2TQNX64349OZ9"}
{"rt": "23752.0", "trial_number": "2", "skipped": "True", "complete": "False", "assignment": "3WSELTNVR4AZUVYAYCSWZIQW0J4ATB", "start_time": "1.51673900636e+12", "human_length": "16", "nodes_expanded": "999", "instance": "prb9718", "end_time": "1.51673903011e+12", "optimal_length": "11", "subject": "A2TQNX64349OZ9"}
{"rt": "13256.0", "trial_number": "0", "skipped": "True", "complete": "False", "assignment": "3JCG6DTRV4YEPVDZ64VNKDUEMPGQQ1", "start_time": "1.51794790117e+12", "human_length": "6", "nodes_expanded": "999", "instance": "prb9718", "end_time": "1.51794791443e+12", "optimal_length": "11", "subject": "A2V7KYLBCBTI3B"}
{"rt": "81672.0", "trial_number": "0", "skipped": "False", "complete": "True", "assignment": "37TD41K0AIHM8AITTQJXV8KY05QCSB", "start_time": "1.51752339789e+12", "human_length": "33", "nodes_expanded": "999", "instance": "prb9718", "end_time": "1.51752347957e+12", "optimal_length": "11", "subject": "A30KYQGABO7JER"}
{"rt": "28169.0", "trial_number": "0", "skipped": "False", "complete": "False", "assignment": "36AHBNMV1SKT9O0GSS6XX0QHZV3YDN", "start_time": "1.51630404766e+12", "human_length": "32", "nodes_expanded": "999", "instance": "prb9718", "end_time": "1.51630407583e+12", "optimal_length": "11", "subject": "A39GADIK8RLMVC"}
{"rt": "16419.0", "trial_number": "1", "skipped": "False", "complete": "True", "assignment": "36AHBNMV1SKT9O0GSS6XX0QHZV3YDN", "start_time": "1.51630407852e+12", "human_length": "16", "nodes_expanded": "999", "instance": "prb9718", "end_time": "1.51630409494e+12", "optimal_length": "11", "subject": "A39GADIK8RLMVC"}
{"rt": "22298.0", "trial_number": "0", "skipped": "False", "complete": "True", "assignment": "34HJIJKLP64Z5YMIU6IKNXSH7PDV4I", "start_time": "1.51794096554e+12", "human_length": "13", "nodes_expanded": "999", "instance": "prb9718", "end_time": "1.51794098783e+12", "optimal_length": "11", "subject": "A3CTXNQ2GXIQSP"}
{"rt": "15720.0", "trial_number": "0", "skipped": "False", "complete": "False", "assignment": "3TMFV4NEP9MD3O9PWJDTQBR0HZYW8I", "start_time": "1.51814494715e+12", "human_length": "8", "nodes_expanded": "999", "instance": "prb9718", "end_time": "1.51814496287e+12", "optimal_length": "11", "subject": "A3GOOI75XOF24V"}
{"rt": "36615.0", "trial_number": "1", "skipped": "False", "complete": "True", "assignment": "3TMFV4NEP9MD3O9PWJDTQBR0HZYW8I", "start_time": "1.5181449657e+12", "human_length": "18", "nodes_expanded": "999", "instance": "prb9718", "end_time": "1.51814500231e+12", "optimal_length": "11", "subject": "A3GOOI75XOF24V"}
{"rt": "34517.0", "trial_number": "0", "skipped": "False", "complete": "True", "assignment": "3TPWUS5F8A9FFRZ2DVTYSXNJ6BWWC6", "start_time": "1.51794021985e+12", "human_length": "13", "nodes_expanded": "999", "instance": "prb9718", "end_time": "1.51794025436e+12", "optimal_length": "11", "subject": "A3GXC3VG37CQ3G"}
{"rt": "9430.0", "trial_number": "0", "skipped": "False", "complete": "False", "assignment": "3STRJBFXOXZ5687WA35LTWTS7QZKTT", "start_time": "1.51794635584e+12", "human_length": "3", "nodes_expanded": "999", "instance": "prb9718", "end_time": "1.51794636527e+12", "optimal_length": "11", "subject": "A3OB6REG5CGHK1"}
{"rt": "22142.0", "trial_number": "1", "skipped": "False", "complete": "False", "assignment": "3STRJBFXOXZ5687WA35LTWTS7QZKTT", "start_time": "1.51794636834e+12", "human_length": "11", "nodes_expanded": "999", "instance": "prb9718", "end_time": "1.51794639048e+12", "optimal_length": "11", "subject": "A3OB6REG5CGHK1"}
{"rt": "0.0", "trial_number": "2", "skipped": "False", "complete": "False", "assignment": "3STRJBFXOXZ5687WA35LTWTS7QZKTT", "start_time": "1.51794639654e+12", "human_length": "1", "nodes_expanded": "999", "instance": "prb9718", "end_time": "1.51794639654e+12", "optimal_length": "11", "subject": "A3OB6REG5CGHK1"}
{"rt": "51689.0", "trial_number": "3", "skipped": "False", "complete": "True", "assignment": "3STRJBFXOXZ5687WA35LTWTS7QZKTT", "start_time": "1.51794639658e+12", "human_length": "17", "nodes_expanded": "999", "instance": "prb9718", "end_time": "1.51794644827e+12", "optimal_length": "11", "subject": "A3OB6REG5CGHK1"}
{"rt": "0.0", "trial_number": "0", "skipped": "False", "complete": "False", "assignment": "3X87C8JFV7JQ2BSCY8KSFD9F2ILSQK", "start_time": "1.5167393677e+12", "human_length": "1", "nodes_expanded": "999", "instance": "prb9718", "end_time": "1.5167393677e+12", "optimal_length": "11", "subject": "A3Q0XAGQ7TD7MP"}
{"rt": "0.0", "trial_number": "1", "skipped": "False", "complete": "False", "assignment": "3X87C8JFV7JQ2BSCY8KSFD9F2ILSQK", "start_time": "1.5167393677e+12", "human_length": "1", "nodes_expanded": "999", "instance": "prb9718", "end_time": "1.5167393677e+12", "optimal_length": "11", "subject": "A3Q0XAGQ7TD7MP"}
{"rt": "31684.0", "trial_number": "2", "skipped": "False", "complete": "True", "assignment": "3X87C8JFV7JQ2BSCY8KSFD9F2ILSQK", "start_time": "1.5167393677e+12", "human_length": "12", "nodes_expanded": "999", "instance": "prb9718", "end_time": "1.51673939939e+12", "optimal_length": "11", "subject": "A3Q0XAGQ7TD7MP"}
{"rt": "20888.0", "trial_number": "3", "skipped": "False", "complete": "True", "assignment": "3GLB5JMZFY3TNXFGYMKRQ0JDXNTDGZ", "start_time": "1.51794838641e+12", "human_length": "12", "nodes_expanded": "999", "instance": "prb9718", "end_time": "1.5179484073e+12", "optimal_length": "11", "subject": "A3Q0XAGQ7TD7MP"}
{"rt": "31684.0", "trial_number": "0", "skipped": "False", "complete": "True", "assignment": "3X87C8JFV7JQ2BSCY8KSFD9F2ILSQK", "start_time": "1.5167393677e+12", "human_length": "12", "nodes_expanded": "999", "instance": "prb9718", "end_time": "1.51673939939e+12", "optimal_length": "11", "subject": "A3Q0XAGQ7TD7MP"}
{"rt": "20888.0", "trial_number": "1", "skipped": "False", "complete": "True", "assignment": "3GLB5JMZFY3TNXFGYMKRQ0JDXNTDGZ", "start_time": "1.51794838641e+12", "human_length": "12", "nodes_expanded": "999", "instance": "prb9718", "end_time": "1.5179484073e+12", "optimal_length": "11", "subject": "A3Q0XAGQ7TD7MP"}
{"rt": "56148.0", "trial_number": "0", "skipped": "False", "complete": "False", "assignment": "3M0BCWMB8W4W5M7WZVX3HDH1P53WB1", "start_time": "1.5181602823e+12", "human_length": "21", "nodes_expanded": "999", "instance": "prb9718", "end_time": "1.51816033845e+12", "optimal_length": "11", "subject": "A53S7J4JGWG38"}
{"rt": "11948.0", "trial_number": "1", "skipped": "True", "complete": "False", "assignment": "3M0BCWMB8W4W5M7WZVX3HDH1P53WB1", "start_time": "1.51816034104e+12", "human_length": "9", "nodes_expanded": "999", "instance": "prb9718", "end_time": "1.51816035298e+12", "optimal_length": "11", "subject": "A53S7J4JGWG38"}
{"rt": "33223.0", "trial_number": "0", "skipped": "False", "complete": "False", "assignment": "3ON104KXQL4CKNMNKGNG9ZBVBAB4WI", "start_time": "1.51631390009e+12", "human_length": "16", "nodes_expanded": "999", "instance": "prb9718", "end_time": "1.51631393331e+12", "optimal_length": "11", "subject": "A58QOLDFC179Q"}
{"rt": "48771.0", "trial_number": "1", "skipped": "False", "complete": "True", "assignment": "3ON104KXQL4CKNMNKGNG9ZBVBAB4WI", "start_time": "1.51631393681e+12", "human_length": "20", "nodes_expanded": "999", "instance": "prb9718", "end_time": "1.51631398558e+12", "optimal_length": "11", "subject": "A58QOLDFC179Q"}
{"rt": "39487.0", "trial_number": "0", "skipped": "False", "complete": "True", "assignment": "33PPO7FECWN7JOLBOAKUBCWTC0AIDL", "start_time": "1.51794259555e+12", "human_length": "20", "nodes_expanded": "999", "instance": "prb9718", "end_time": "1.51794263504e+12", "optimal_length": "11", "subject": "AB5IVPS4OP9M7"}
{"rt": "51401.0", "trial_number": "0", "skipped": "False", "complete": "True", "assignment": "33PPO7FECWN7JOLBOAKUBCWTC0AIDL", "start_time": "1.51794129923e+12", "human_length": "33", "nodes_expanded": "999", "instance": "prb9718", "end_time": "1.51794135063e+12", "optimal_length": "11", "subject": "AB5IVPS4OP9M8"}
{"rt": "13251.0", "trial_number": "0", "skipped": "False", "complete": "True", "assignment": "3IXEICO793RY7TM78ZBKJDOA7ADT6Q", "start_time": "1.51816849299e+12", "human_length": "15", "nodes_expanded": "999", "instance": "prb9718", "end_time": "1.51816850624e+12", "optimal_length": "11", "subject": "ALH1K6ZAQQMN7"}
{"rt": "194796.0", "trial_number": "0", "skipped": "False", "complete": "False", "assignment": "3HWRJOOET6A15827PHPSLWK1MOYSEU", "start_time": "1.51814674911e+12", "human_length": "86", "nodes_expanded": "999", "instance": "prb9718", "end_time": "1.51814694391e+12", "optimal_length": "11", "subject": "AO1QGAUZ85T6L"}
{"rt": "63710.0", "trial_number": "1", "skipped": "False", "complete": "False", "assignment": "3HWRJOOET6A15827PHPSLWK1MOYSEU", "start_time": "1.51814709692e+12", "human_length": "3", "nodes_expanded": "999", "instance": "prb9718", "end_time": "1.51814716063e+12", "optimal_length": "11", "subject": "AO1QGAUZ85T6L"}
{"rt": "325138.0", "trial_number": "2", "skipped": "False", "complete": "True", "assignment": "3HWRJOOET6A15827PHPSLWK1MOYSEU", "start_time": "1.51814716399e+12", "human_length": "15", "nodes_expanded": "999", "instance": "prb9718", "end_time": "1.51814748912e+12", "optimal_length": "11", "subject": "AO1QGAUZ85T6L"}
{"rt": "10596.0", "trial_number": "0", "skipped": "False", "complete": "True", "assignment": "3AZHRG4CU5SYU12YRVPCSZALW5003R", "start_time": "1.51630787601e+12", "human_length": "14", "nodes_expanded": "999", "instance": "prb9718", "end_time": "1.51630788660e+12", "optimal_length": "11", "subject": "ARWF605I7RWM7"}
{"rt": "109466.0", "trial_number": "0", "skipped": "True", "complete": "False", "assignment": "3IAS3U3I0GOAT69PLB8WT61CKJ22BO", "start_time": "1.51794174181e+12", "human_length": "30", "nodes_expanded": "999", "instance": "prb9718", "end_time": "1.51794185128e+12", "optimal_length": "11", "subject": "ATSZCAVI441RM"}
{"rt": "27795.0", "trial_number": "0", "skipped": "False", "complete": "True", "assignment": "33PPO7FECWN7JOLBOAKUBCWTC0AIDL", "start_time": "1.51795114201e+12", "human_length": "12", "nodes_expanded": "999", "instance": "prb9718", "end_time": "1.5179511698e+12", "optimal_length": "11", "subject": "AXKM02NVXNGOM"}
