{"subject": "A39GADIK8RLMVC", "assignment": "36AHBNMV1SKT9O0GSS6XX0QHZV3YDN", "instance": "prb9718", "optimal_length": "11", "human_length": "32", "complete": "False", "start_time": "1.51630404766e+12", "end_time": "1.51630407583e+12", "rt": "28169.0", "nodes_expanded": "999", "skipped": "False", "trial_number": "0"}
{"subject": "A39GADIK8RLMVC", "assignment": "36AHBNMV1SKT9O0GSS6XX0QHZV3YDN", "instance": "prb9718", "optimal_length": "11", "human_length": "16", "complete": "True", "start_time": "1.51630407852e+12", "end_time": "1.51630409494e+12", "rt": "16419.0", "nodes_expanded": "999", "skipped": "False", "trial_number": "1"}
{"subject": "A39GADIK8RLMVC", "assignment": "36AHBNMV1SKT9O0GSS6XX0QHZV3YDN", "instance": "prb47495", "optimal_length": "14", "human_length": "42", "complete": "True", "start_time": "1.51630409706e+12", "end_time": "1.51630414412e+12", "rt": "47054.0", "nodes_expanded": "999", "skipped": "False", "trial_number": "0"}
{"subject": "A39GADIK8RLMVC", "assignment": "36AHBNMV1SKT9O0GSS6XX0QHZV3YDN", "instance": "prb29585", "optimal_length": "14", "human_length": "39", "complete": "False", "start_time": "1.5163041448e+12", "end_time": "1.51630420092e+12", "rt": "56118.0", "nodes_expanded": "999", "skipped": "False", "trial_number": "0"}
{"subject": "A39GADIK8RLMVC", "assignment": "36AHBNMV1SKT9O0GSS6XX0QHZV3YDN", "instance": "prb29585", "optimal_length": "14", "human_length": "15", "complete": "False", "start_time": "1.51630420294e+12", "end_time": "1.51630421924e+12", "rt": "16295.0", "nodes_expanded": "999", "skipped": "False", "trial_number": "1"}
{"subject": "A39GADIK8RLMVC", "assignment": "36AHBNMV1SKT9O0GSS6XX0QHZV3YDN", "instance": "prb29585", "optimal_length": "14", "human_length": "40", "complete": "True", "start_time": "1.51630424871e+12", "end_time": "1.51630429351e+12", "rt": "44805.0", "nodes_expanded": "999", "skipped": "False", "trial_number": "2"}
{"subject": "A39GADIK8RLMVC", "assignment": "36AHBNMV1SKT9O0GSS6XX0QHZV3YDN", "instance": "prb38725", "optimal_length": "14", "human_length": "67", "complete": "True", "start_time": "1.51630429452e+12", "end_time": "1.5163043516e+12", "rt": "57070.0", "nodes_expanded": "999", "skipped": "False", "trial_number": "0"}
{"subject": "A39GADIK8RLMVC", "assignment": "36AHBNMV1SKT9O0GSS6XX0QHZV3YDN", "instance": "prb8786", "optimal_length": "7", "human_length": "16", "complete": "True", "start_time": "1.51630435266e+12", "end_time": "1.5163043772e+12", "rt": "24546.0", "nodes_expanded": "999", "skipped": "False", "trial_number": "0"}
{"subject": "A39GADIK8RLMVC", "assignment": "36AHBNMV1SKT9O0GSS6XX0QHZV3YDN", "instance": "prb11647", "optimal_length": "7", "human_length": "11", "complete": "True", "start_time": "1.51630437802e+12", "end_time": "1.51630438775e+12", "rt": "9731.0", "nodes_expanded": "999", "skipped": "False", "trial_number": "0"}
{"subject": "A39GADIK8RLMVC", "assignment": "36AHBNMV1SKT9O0GSS6XX0QHZV3YDN", "instance": "prb44171", "optimal_length": "16", "human_length": "34", "complete": "True", "start_time": "1.51630438836e+12", "end_time": "1.51630474636e+12", "rt": "358000.0", "nodes_expanded": "999", "skipped": "False", "trial_number": "0"}
{"subject": "A39GADIK8RLMVC", "assignment": "36AHBNMV1SKT9O0GSS6XX0QHZV3YDN", "instance": "prb1267", "optimal_length": "16", "human_length": "6", "complete": "False", "start_time": "1.51630475713e+12", "end_time": "1.51630485319e+12", "rt": "96055.0", "nodes_expanded": "999", "skipped": "False", "trial_number": "0"}
{"subject": "A39GADIK8RLMVC", "assignment": "36AHBNMV1SKT9O0GSS6XX0QHZV3YDN", "instance": "prb1267", "optimal_length": "16", "human_length": "4", "complete": "False", "start_time": "1.51630485683e+12", "end_time": "1.51630487208e+12", "rt": "15257.0", "nodes_expanded": "999", "skipped": "False", "trial_number": "1"}
{"subject": "A39GADIK8RLMVC", "assignment": "36AHBNMV1SKT9O0GSS6XX0QHZV3YDN", "instance": "prb1267", "optimal_length": "16", "human_length": "17", "complete": "True", "start_time": "1.51630488459e+12", "end_time": "1.51630491563e+12", "rt": "31036.0", "nodes_expanded": "999", "skipped": "False", "trial_number": "2"}
{"subject": "A39GADIK8RLMVC", "assignment": "36AHBNMV1SKT9O0GSS6XX0QHZV3YDN", "instance": "prb29414", "optimal_length": "11", "human_length": "11", "complete": "True", "start_time": "1.51630491640e+12", "end_time": "1.51630501123e+12", "rt": "94823.0", "nodes_expanded": "999", "skipped": "False", "trial_number": "0"}
{"subject": "A39GADIK8RLMVC", "assignment": "36AHBNMV1SKT9O0GSS6XX0QHZV3YDN", "instance": "prb29027", "optimal_length": "16", "human_length": "16", "complete": "True", "start_time": "1.51630501223e+12", "end_time": "1.51630514016e+12", "rt": "127923.0", "nodes_expanded": "999", "skipped": "False", "trial_number": "0"}
{"subject": "A39GADIK8RLMVC", "assignment": "36AHBNMV1SKT9O0GSS6XX0QHZV3YDN", "instance": "prb22436", "optimal_length": "11", "human_length": "11", "complete": "True", "start_time": "1.51630514095e+12", "end_time": "1.51630519731e+12", "rt": "56362.0", "nodes_expanded": "999", "skipped": "False", "trial_number": "0"}
{"subject": "A39GADIK8RLMVC", "assignment": "36AHBNMV1SKT9O0GSS6XX0QHZV3YDN", "instance": "prb21272", "optimal_length": "7", "human_length": "7", "complete": "True", "start_time": "1.51630519804e+12", "end_time": "1.51630527973e+12", "rt": "81686.0", "nodes_expanded": "999", "skipped": "False", "trial_number": "0"}
{"subject": "A39GADIK8RLMVC", "assignment": "36AHBNMV1SKT9O0GSS6XX0QHZV3YDN", "instance": "prb62015", "optimal_length": "11", "human_length": "12", "complete": "True", "start_time": "1.51630528108e+12", "end_time": "1.51630533736e+12", "rt": "56277.0", "nodes_expanded": "999", "skipped": "False", "trial_number": "0"}
{"subject": "A39GADIK8RLMVC", "assignment": "36AHBNMV1SKT9O0GSS6XX0QHZV3YDN", "instance": "prb24406", "optimal_length": "16", "human_length": "16", "complete": "True", "start_time": "1.51630533864e+12", "end_time": "1.516305404e+12", "rt": "65357.0", "nodes_expanded": "999", "skipped": "False", "trial_number": "0"}
{"subject": "A39GADIK8RLMVC", "assignment": "36AHBNMV1SKT9O0GSS6XX0QHZV3YDN", "instance": "prb13171", "optimal_length": "7", "human_length": "7", "complete": "True", "start_time": "1.51630540483e+12", "end_time": "1.51630556622e+12", "rt": "161387.0", "nodes_expanded": "999", "skipped": "False", "trial_number": "0"}
{"subject": "A39GADIK8RLMVC", "assignment": "36AHBNMV1SKT9O0GSS6XX0QHZV3YDN", "instance": "prb58853", "optimal_length": "16", "human_length": "1", "complete": "False", "start_time": "1.51630556783e+12", "end_time": "1.51630556783e+12", "rt": "0.0", "nodes_expanded": "999", "skipped": "True", "trial_number": "0"}
{"subject": "ARWF605I7RWM7", "assignment": "3AZHRG4CU5SYU12YRVPCSZALW5003R", "instance": "prb11647", "optimal_length": "7", "human_length": "19", "complete": "True", "start_time": "1.51630448249e+12", "end_time": "1.5163045163e+12", "rt": "33812.0", "nodes_expanded": "999", "skipped": "False", "trial_number": "0"}
{"subject": "ARWF605I7RWM7", "assignment": "3AZHRG4CU5SYU12YRVPCSZALW5003R", "instance": "prb38725", "optimal_length": "14", "human_length": "33", "complete": "True", "start_time": "1.5163045177e+12", "end_time": "1.51630458781e+12", "rt": "70104.0", "nodes_expanded": "999", "skipped": "False", "trial_number": "0"}
{"subject": "ARWF605I7RWM7", "assignment": "3AZHRG4CU5SYU12YRVPCSZALW5003R", "instance": "prb38526", "optimal_length": "11", "human_length": "12", "complete": "True", "start_time": "1.5163045886e+12", "end_time": "1.51630460214e+12", "rt": "13539.0", "nodes_expanded": "999", "skipped": "False", "trial_number": "0"}
{"subject": "ARWF605I7RWM7", "assignment": "3AZHRG4CU5SYU12YRVPCSZALW5003R", "instance": "prb29585", "optimal_length": "14", "human_length": "61", "complete": "True", "start_time": "1.51630460285e+12", "end_time": "1.51630468701e+12", "rt": "84160.0", "nodes_expanded": "999", "skipped": "False", "trial_number": "0"}
{"subject": "ARWF605I7RWM7", "assignment": "3AZHRG4CU5SYU12YRVPCSZALW5003R", "instance": "prb24227", "optimal_length": "16", "human_length": "51", "complete": "True", "start_time": "1.51630468771e+12", "end_time": "1.51630474701e+12", "rt": "59297.0", "nodes_expanded": "999", "skipped": "False", "trial_number": "0"}
{"subject": "ARWF605I7RWM7", "assignment": "3AZHRG4CU5SYU12YRVPCSZALW5003R", "instance": "prb33117", "optimal_length": "14", "human_length": "113", "complete": "True", "start_time": "1.51630474776e+12", "end_time": "1.5163051501e+12", "rt": "402343.0", "nodes_expanded": "999", "skipped": "False", "trial_number": "0"}
{"subject": "ARWF605I7RWM7", "assignment": "3AZHRG4CU5SYU12YRVPCSZALW5003R", "instance": "prb3217", "optimal_length": "11", "human_length": "154", "complete": "True", "start_time": "1.51630515078e+12", "end_time": "1.51630548911e+12", "rt": "338331.0", "nodes_expanded": "999", "skipped": "False", "trial_number": "0"}
{"subject": "ARWF605I7RWM7", "assignment": "3AZHRG4CU5SYU12YRVPCSZALW5003R", "instance": "prb45893", "optimal_length": "16", "human_length": "26", "complete": "True", "start_time": "1.51630548986e+12", "end_time": "1.51630553107e+12", "rt": "41204.0", "nodes_expanded": "999", "skipped": "False", "trial_number": "0"}
{"subject": "ARWF605I7RWM7", "assignment": "3AZHRG4CU5SYU12YRVPCSZALW5003R", "instance": "prb44171", "optimal_length": "16", "human_length": "57", "complete": "True", "start_time": "1.51630553176e+12", "end_time": "1.5163055894e+12", "rt": "57632.0", "nodes_expanded": "999", "skipped": "False", "trial_number": "0"}
{"subject": "ARWF605I7RWM7", "assignment": "3AZHRG4CU5SYU12YRVPCSZALW5003R", "instance": "prb1707", "optimal_length": "7", "human_length": "9", "complete": "True", "start_time": "1.51630559011e+12", "end_time": "1.51630559847e+12", "rt": "8355.0", "nodes_expanded": "999", "skipped": "False", "trial_number": "0"}
{"subject": "ARWF605I7RWM7", "assignment": "3AZHRG4CU5SYU12YRVPCSZALW5003R", "instance": "prb25861", "optimal_length": "16", "human_length": "181", "complete": "True", "start_time": "1.51630559905e+12", "end_time": "1.51630602744e+12", "rt": "428393.0", "nodes_expanded": "999", "skipped": "False", "trial_number": "0"}
{"subject": "ARWF605I7RWM7", "assignment": "3AZHRG4CU5SYU12YRVPCSZALW5003R", "instance": "prb34092", "optimal_length": "11", "human_length": "15", "complete": "True", "start_time": "1.51630602816e+12", "end_time": "1.51630604156e+12", "rt": "13404.0", "nodes_expanded": "999", "skipped": "False", "trial_number": "0"}
{"subject": "ARWF605I7RWM7", "assignment": "3AZHRG4CU5SYU12YRVPCSZALW5003R", "instance": "prb1267", "optimal_length": "16", "human_length": "202", "complete": "True", "start_time": "1.51630604225e+12", "end_time": "1.51630624938e+12", "rt": "207126.0", "nodes_expanded": "999", "skipped": "False", "trial_number": "0"}
{"subject": "ARWF605I7RWM7", "assignment": "3AZHRG4CU5SYU12YRVPCSZALW5003R", "instance": "prb29414", "optimal_length": "11", "human_length": "11", "complete": "True", "start_time": "1.51630624998e+12", "end_time": "1.51630626311e+12", "rt": "13127.0", "nodes_expanded": "999", "skipped": "False", "trial_number": "0"}
{"subject": "ARWF605I7RWM7", "assignment": "3AZHRG4CU5SYU12YRVPCSZALW5003R", "instance": "prb15595", "optimal_length": "16", "human_length": "144", "complete": "True", "start_time": "1.5163062636e+12", "end_time": "1.51630645891e+12", "rt": "195317.0", "nodes_expanded": "999", "skipped": "False", "trial_number": "0"}
{"subject": "ARWF605I7RWM7", "assignment": "3AZHRG4CU5SYU12YRVPCSZALW5003R", "instance": "prb54506", "optimal_length": "16", "human_length": "67", "complete": "True", "start_time": "1.51630645947e+12", "end_time": "1.51630654082e+12", "rt": "81352.0", "nodes_expanded": "999", "skipped": "False", "trial_number": "0"}
{"subject": "ARWF605I7RWM7", "assignment": "3AZHRG4CU5SYU12YRVPCSZALW5003R", "instance": "prb48146", "optimal_length": "16", "human_length": "32", "complete": "True", "start_time": "1.51630654137e+12", "end_time": "1.51630656838e+12", "rt": "27011.0", "nodes_expanded": "999", "skipped": "False", "trial_number": "0"}
{"subject": "ARWF605I7RWM7", "assignment": "3AZHRG4CU5SYU12YRVPCSZALW5003R", "instance": "prb12715", "optimal_length": "11", "human_length": "28", "complete": "True", "start_time": "1.51630656898e+12", "end_time": "1.51630659725e+12", "rt": "28265.0", "nodes_expanded": "999", "skipped": "False", "trial_number": "0"}
{"subject": "ARWF605I7RWM7", "assignment": "3AZHRG4CU5SYU12YRVPCSZALW5003R", "instance": "prb20888", "optimal_length": "14", "human_length": "149", "complete": "True", "start_time": "1.51630659783e+12", "end_time": "1.51630676392e+12", "rt": "166095.0", "nodes_expanded": "999", "skipped": "False", "trial_number": "0"}
{"subject": "ARWF605I7RWM7", "assignment": "3AZHRG4CU5SYU12YRVPCSZALW5003R", "instance": "prb62015", "optimal_length": "11", "human_length": "35", "complete": "True", "start_time": "1.51630676465e+12", "end_time": "1.51630680666e+12", "rt": "42014.0", "nodes_expanded": "999", "skipped": "False", "trial_number": "0"}
{"subject": "ARWF605I7RWM7", "assignment": "3AZHRG4CU5SYU12YRVPCSZALW5003R", "instance": "prb78361", "optimal_length": "16", "human_length": "140", "complete": "True", "start_time": "1.51630680778e+12", "end_time": "1.51630694076e+12", "rt": "132979.0", "nodes_expanded": "999", "skipped": "False", "trial_number": "0"}
{"subject": "ARWF605I7RWM7", "assignment": "3AZHRG4CU5SYU12YRVPCSZALW5003R", "instance": "prb23259", "optimal_length": "7", "human_length": "8", "complete": "True", "start_time": "1.51630694188e+12", "end_time": "1.51630718848e+12", "rt": "246601.0", "nodes_expanded": "999", "skipped": "False", "trial_number": "0"}
{"subject": "ARWF605I7RWM7", "assignment": "3AZHRG4CU5SYU12YRVPCSZALW5003R", "instance": "prb55384", "optimal_length": "14", "human_length": "29", "complete": "True", "start_time": "1.51630718898e+12", "end_time": "1.51630721634e+12", "rt": "27353.0", "nodes_expanded": "999", "skipped": "False", "trial_number": "0"}
{"subject": "ARWF605I7RWM7", "assignment": "3AZHRG4CU5SYU12YRVPCSZALW5003R", "instance": "prb54081", "optimal_length": "11", "human_length": "38", "complete": "True", "start_time": "1.5163072169e+12", "end_time": "1.51630727117e+12", "rt": "54271.0", "nodes_expanded": "999", "skipped": "False", "trial_number": "0"}
{"subject": "ARWF605I7RWM7", "assignment": "3AZHRG4CU5SYU12YRVPCSZALW5003R", "instance": "prb6671", "optimal_length": "14", "human_length": "15", "complete": "True", "start_time": "1.51630727216e+12", "end_time": "1.5163072869e+12", "rt": "14733.0", "nodes_expanded": "999", "skipped": "False", "trial_number": "0"}
{"subject": "ARWF605I7RWM7", "assignment": "3AZHRG4CU5SYU12YRVPCSZALW5003R", "instance": "prb25604", "optimal_length": "16", "human_length": "18", "complete": "True", "start_time": "1.51630728753e+12", "end_time": "1.51630730159e+12", "rt": "14063.0", "nodes_expanded": "999", "skipped": "False", "trial_number": "0"}
{"subject": "ARWF605I7RWM7", "assignment": "3AZHRG4CU5SYU12YRVPCSZALW5003R", "instance": "prb717", "optimal_length": "11", "human_length": "17", "complete": "True", "start_time": "1.51630730244e+12", "end_time": "1.51630731778e+12", "rt": "15341.0", "nodes_expanded": "999", "skipped": "False", "trial_number": "0"}
{"subject": "ARWF605I7RWM7", "assignment": "3AZHRG4CU5SYU12YRVPCSZALW5003R", "instance": "prb343", "optimal_length": "14", "human_length": "81", "complete": "True", "start_time": "1.51630731871e+12", "end_time": "1.51630738658e+12", "rt": "67878.0", "nodes_expanded": "999", "skipped": "False", "trial_number": "0"}
{"subject": "ARWF605I7RWM7", "assignment": "3AZHRG4CU5SYU12YRVPCSZALW5003R", "instance": "prb31907", "optimal_length": "11", "human_length": "24", "complete": "True", "start_time": "1.51630739177e+12", "end_time": "1.5163074098e+12", "rt": "18027.0", "nodes_expanded": "999", "skipped": "False", "trial_number": "0"}
{"subject": "ARWF605I7RWM7", "assignment": "3AZHRG4CU5SYU12YRVPCSZALW5003R", "instance": "prb10206", "optimal_length": "7", "human_length": "10", "complete": "True", "start_time": "1.5163074107e+12", "end_time": "1.51630741955e+12", "rt": "8854.0", "nodes_expanded": "999", "skipped": "False", "trial_number": "0"}
{"subject": "ARWF605I7RWM7", "assignment": "3AZHRG4CU5SYU12YRVPCSZALW5003R", "instance": "prb2834", "optimal_length": "7", "human_length": "18", "complete": "True", "start_time": "1.51630742054e+12", "end_time": "1.51630743806e+12", "rt": "17521.0", "nodes_expanded": "999", "skipped": "False", "trial_number": "0"}
{"subject": "ARWF605I7RWM7", "assignment": "3AZHRG4CU5SYU12YRVPCSZALW5003R", "instance": "prb42959", "optimal_length": "11", "human_length": "19", "complete": "True", "start_time": "1.51630743867e+12", "end_time": "1.51630745738e+12", "rt": "18704.0", "nodes_expanded": "999", "skipped": "False", "trial_number": "0"}
{"subject": "ARWF605I7RWM7", "assignment": "3AZHRG4CU5SYU12YRVPCSZALW5003R", "instance": "prb79230", "optimal_length": "11", "human_length": "17", "complete": "True", "start_time": "1.51630745824e+12", "end_time": "1.51630747261e+12", "rt": "14369.0", "nodes_expanded": "999", "skipped": "False", "trial_number": "0"}
{"subject": "ARWF605I7RWM7", "assignment": "3AZHRG4CU5SYU12YRVPCSZALW5003R", "instance": "prb29027", "optimal_length": "16", "human_length": "31", "complete": "True", "start_time": "1.51630747317e+12", "end_time": "1.51630750229e+12", "rt": "29115.0", "nodes_expanded": "999", "skipped": "False", "trial_number": "0"}
{"subject": "ARWF605I7RWM7", "assignment": "3AZHRG4CU5SYU12YRVPCSZALW5003R", "instance": "prb8786", "optimal_length": "7", "human_length": "17", "complete": "True", "start_time": "1.51630750339e+12", "end_time": "1.5163075174e+12", "rt": "14015.0", "nodes_expanded": "999", "skipped": "False", "trial_number": "0"}
{"subject": "ARWF605I7RWM7", "assignment": "3AZHRG4CU5SYU12YRVPCSZALW5003R", "instance": "prb46639", "optimal_length": "16", "human_length": "86", "complete": "True", "start_time": "1.51630751844e+12", "end_time": "1.51630759374e+12", "rt": "75294.0", "nodes_expanded": "999", "skipped": "False", "trial_number": "0"}
{"subject": "ARWF605I7RWM7", "assignment": "3AZHRG4CU5SYU12YRVPCSZALW5003R", "instance": "prb47495", "optimal_length": "14", "human_length": "64", "complete": "True", "start_time": "1.51630763377e+12", "end_time": "1.516307804e+12", "rt": "170226.0", "nodes_expanded": "999", "skipped": "False", "trial_number": "0"}
{"subject": "ARWF605I7RWM7", "assignment": "3AZHRG4CU5SYU12YRVPCSZALW5003R", "instance": "prb68514", "optimal_length": "14", "human_length": "39", "complete": "True", "start_time": "1.51630780787e+12", "end_time": "1.51630783816e+12", "rt": "30288.0", "nodes_expanded": "999", "skipped": "False", "trial_number": "0"}
{"subject": "ARWF605I7RWM7", "assignment": "3AZHRG4CU5SYU12YRVPCSZALW5003R", "instance": "prb28111", "optimal_length": "7", "human_length": "16", "complete": "True", "start_time": "1.5163078403e+12", "end_time": "1.51630785308e+12", "rt": "12784.0", "nodes_expanded": "999", "skipped": "False", "trial_number": "0"}
{"subject": "ARWF605I7RWM7", "assignment": "3AZHRG4CU5SYU12YRVPCSZALW5003R", "instance": "prb32795", "optimal_length": "7", "human_length": "15", "complete": "True", "start_time": "1.51630785352e+12", "end_time": "1.51630786468e+12", "rt": "11160.0", "nodes_expanded": "999", "skipped": "False", "trial_number": "0"}
{"subject": "ARWF605I7RWM7", "assignment": "3AZHRG4CU5SYU12YRVPCSZALW5003R", "instance": "prb26567", "optimal_length": "7", "human_length": "12", "complete": "True", "start_time": "1.51630786538e+12", "end_time": "1.51630787554e+12", "rt": "10158.0", "nodes_expanded": "999", "skipped": "False", "trial_number": "0"}
{"subject": "ARWF605I7RWM7", "assignment": "3AZHRG4CU5SYU12YRVPCSZALW5003R", "instance": "prb9718", "optimal_length": "11", "human_length": "14", "complete": "True", "start_time": "1.51630787601e+12", "end_time": "1.51630788660e+12", "rt": "10596.0", "nodes_expanded": "999", "skipped": "False", "trial_number": "0"}
{"subject": "ARWF605I7RWM7", "assignment": "3AZHRG4CU5SYU12YRVPCSZALW5003R", "instance": "prb14898", "optimal_length": "11", "human_length": "80", "complete": "True", "start_time": "1.51630788753e+12", "end_time": "1.51630795898e+12", "rt": "71450.0", "nodes_expanded": "999", "skipped": "False", "trial_number": "0"}
{"subject": "ARWF605I7RWM7", "assignment": "3AZHRG4CU5SYU12YRVPCSZALW5003R", "instance": "prb21272", "optimal_length": "7", "human_length": "52", "complete": "True", "start_time": "1.51630796047e+12", "end_time": "1.51630801602e+12", "rt": "55544.0", "nodes_expanded": "999", "skipped": "False", "trial_number": "0"}
{"subject": "ARWF605I7RWM7", "assignment": "3AZHRG4CU5SYU12YRVPCSZALW5003R", "instance": "prb29600", "optimal_length": "14", "human_length": "60", "complete": "True", "start_time": "1.51630801967e+12", "end_time": "1.51630808242e+12", "rt": "62755.0", "nodes_expanded": "999", "skipped": "False", "trial_number": "0"}
{"subject": "ARWF605I7RWM7", "assignment": "3AZHRG4CU5SYU12YRVPCSZALW5003R", "instance": "prb22436", "optimal_length": "11", "human_length": "15", "complete": "True", "start_time": "1.51630808383e+12", "end_time": "1.51630809743e+12", "rt": "13598.0", "nodes_expanded": "999", "skipped": "False", "trial_number": "0"}
{"subject": "ARWF605I7RWM7", "assignment": "3AZHRG4CU5SYU12YRVPCSZALW5003R", "instance": "prb23404", "optimal_length": "14", "human_length": "19", "complete": "True", "start_time": "1.51630810035e+12", "end_time": "1.51630811745e+12", "rt": "17103.0", "nodes_expanded": "999", "skipped": "False", "trial_number": "0"}
{"subject": "ARWF605I7RWM7", "assignment": "3AZHRG4CU5SYU12YRVPCSZALW5003R", "instance": "prb46580", "optimal_length": "16", "human_length": "52", "complete": "True", "start_time": "1.51630811873e+12", "end_time": "1.51630815877e+12", "rt": "40035.0", "nodes_expanded": "999", "skipped": "False", "trial_number": "0"}
{"subject": "A289D98Z4GAZ28", "assignment": "3ZV9H2YQQEFR2R3JK2IXZUJPXAF3WW", "instance": "prb47495", "optimal_length": "14", "human_length": "38", "complete": "True", "start_time": "1.5163055282e+12", "end_time": "1.51630565512e+12", "rt": "126915.0", "nodes_expanded": "999", "skipped": "False", "trial_number": "0"}
{"subject": "A289D98Z4GAZ28", "assignment": "3ZV9H2YQQEFR2R3JK2IXZUJPXAF3WW", "instance": "prb717", "optimal_length": "11", "human_length": "34", "complete": "True", "start_time": "1.51630565998e+12", "end_time": "1.51630574128e+12", "rt": "81299.0", "nodes_expanded": "999", "skipped": "False", "trial_number": "0"}
{"subject": "A289D98Z4GAZ28", "assignment": "3ZV9H2YQQEFR2R3JK2IXZUJPXAF3WW", "instance": "prb14047", "optimal_length": "7", "human_length": "10", "complete": "True", "start_time": "1.51630574242e+12", "end_time": "1.51630576967e+12", "rt": "27257.0", "nodes_expanded": "999", "skipped": "False", "trial_number": "0"}
{"subject": "A289D98Z4GAZ28", "assignment": "3ZV9H2YQQEFR2R3JK2IXZUJPXAF3WW", "instance": "prb32795", "optimal_length": "7", "human_length": "13", "complete": "True", "start_time": "1.51630577054e+12", "end_time": "1.51630579316e+12", "rt": "22618.0", "nodes_expanded": "999", "skipped": "False", "trial_number": "0"}
{"subject": "A289D98Z4GAZ28", "assignment": "3ZV9H2YQQEFR2R3JK2IXZUJPXAF3WW", "instance": "prb1267", "optimal_length": "16", "human_length": "149", "complete": "True", "start_time": "1.51630579407e+12", "end_time": "1.51630619746e+12", "rt": "403393.0", "nodes_expanded": "999", "skipped": "False", "trial_number": "0"}
{"subject": "A289D98Z4GAZ28", "assignment": "3ZV9H2YQQEFR2R3JK2IXZUJPXAF3WW", "instance": "prb10166", "optimal_length": "16", "human_length": "28", "complete": "True", "start_time": "1.51630619842e+12", "end_time": "1.5163062925e+12", "rt": "94077.0", "nodes_expanded": "999", "skipped": "False", "trial_number": "0"}
{"subject": "A289D98Z4GAZ28", "assignment": "3ZV9H2YQQEFR2R3JK2IXZUJPXAF3WW", "instance": "prb25861", "optimal_length": "16", "human_length": "57", "complete": "True", "start_time": "1.51630629375e+12", "end_time": "1.51630644454e+12", "rt": "150793.0", "nodes_expanded": "999", "skipped": "False", "trial_number": "0"}
{"subject": "A289D98Z4GAZ28", "assignment": "3ZV9H2YQQEFR2R3JK2IXZUJPXAF3WW", "instance": "prb48146", "optimal_length": "16", "human_length": "33", "complete": "True", "start_time": "1.51630644553e+12", "end_time": "1.5163065016e+12", "rt": "56072.0", "nodes_expanded": "999", "skipped": "False", "trial_number": "0"}
{"subject": "A289D98Z4GAZ28", "assignment": "3ZV9H2YQQEFR2R3JK2IXZUJPXAF3WW", "instance": "prb62222", "optimal_length": "11", "human_length": "11", "complete": "True", "start_time": "1.51630650364e+12", "end_time": "1.51630652391e+12", "rt": "20268.0", "nodes_expanded": "999", "skipped": "False", "trial_number": "0"}
{"subject": "A289D98Z4GAZ28", "assignment": "3ZV9H2YQQEFR2R3JK2IXZUJPXAF3WW", "instance": "prb55384", "optimal_length": "14", "human_length": "22", "complete": "True", "start_time": "1.51630653015e+12", "end_time": "1.51630659695e+12", "rt": "66800.0", "nodes_expanded": "999", "skipped": "False", "trial_number": "0"}
{"subject": "A289D98Z4GAZ28", "assignment": "3ZV9H2YQQEFR2R3JK2IXZUJPXAF3WW", "instance": "prb44171", "optimal_length": "16", "human_length": "37", "complete": "True", "start_time": "1.51630659788e+12", "end_time": "1.51630670218e+12", "rt": "104298.0", "nodes_expanded": "999", "skipped": "False", "trial_number": "0"}
{"subject": "A289D98Z4GAZ28", "assignment": "3ZV9H2YQQEFR2R3JK2IXZUJPXAF3WW", "instance": "prb14651", "optimal_length": "7", "human_length": "12", "complete": "True", "start_time": "1.51630670562e+12", "end_time": "1.51630674393e+12", "rt": "38302.0", "nodes_expanded": "999", "skipped": "False", "trial_number": "0"}
{"subject": "A289D98Z4GAZ28", "assignment": "3ZV9H2YQQEFR2R3JK2IXZUJPXAF3WW", "instance": "prb32695", "optimal_length": "7", "human_length": "13", "complete": "True", "start_time": "1.51630674613e+12", "end_time": "1.5163067731e+12", "rt": "26973.0", "nodes_expanded": "999", "skipped": "False", "trial_number": "0"}
{"subject": "A289D98Z4GAZ28", "assignment": "3ZV9H2YQQEFR2R3JK2IXZUJPXAF3WW", "instance": "prb6671", "optimal_length": "14", "human_length": "24", "complete": "True", "start_time": "1.51630677616e+12", "end_time": "1.51630683260e+12", "rt": "56447.0", "nodes_expanded": "999", "skipped": "False", "trial_number": "0"}
{"subject": "A289D98Z4GAZ28", "assignment": "3ZV9H2YQQEFR2R3JK2IXZUJPXAF3WW", "instance": "prb38526", "optimal_length": "11", "human_length": "15", "complete": "True", "start_time": "1.51630683813e+12", "end_time": "1.51630688579e+12", "rt": "47654.0", "nodes_expanded": "999", "skipped": "False", "trial_number": "0"}
{"subject": "A289D98Z4GAZ28", "assignment": "3ZV9H2YQQEFR2R3JK2IXZUJPXAF3WW", "instance": "prb24406", "optimal_length": "16", "human_length": "28", "complete": "True", "start_time": "1.51630688952e+12", "end_time": "1.51630695533e+12", "rt": "65804.0", "nodes_expanded": "999", "skipped": "False", "trial_number": "0"}
{"subject": "A289D98Z4GAZ28", "assignment": "3ZV9H2YQQEFR2R3JK2IXZUJPXAF3WW", "instance": "prb14898", "optimal_length": "11", "human_length": "66", "complete": "True", "start_time": "1.51630696139e+12", "end_time": "1.51630714756e+12", "rt": "186165.0", "nodes_expanded": "999", "skipped": "False", "trial_number": "0"}
{"subject": "A289D98Z4GAZ28", "assignment": "3ZV9H2YQQEFR2R3JK2IXZUJPXAF3WW", "instance": "prb12715", "optimal_length": "11", "human_length": "35", "complete": "True", "start_time": "1.51630715864e+12", "end_time": "1.5163072642e+12", "rt": "105562.0", "nodes_expanded": "999", "skipped": "False", "trial_number": "0"}
{"subject": "A289D98Z4GAZ28", "assignment": "3ZV9H2YQQEFR2R3JK2IXZUJPXAF3WW", "instance": "prb19279", "optimal_length": "14", "human_length": "21", "complete": "True", "start_time": "1.51630727131e+12", "end_time": "1.51630730438e+12", "rt": "33067.0", "nodes_expanded": "999", "skipped": "False", "trial_number": "0"}
{"subject": "A289D98Z4GAZ28", "assignment": "3ZV9H2YQQEFR2R3JK2IXZUJPXAF3WW", "instance": "prb11647", "optimal_length": "7", "human_length": "9", "complete": "True", "start_time": "1.51630732015e+12", "end_time": "1.51630735525e+12", "rt": "35105.0", "nodes_expanded": "999", "skipped": "False", "trial_number": "0"}
{"subject": "A289D98Z4GAZ28", "assignment": "3ZV9H2YQQEFR2R3JK2IXZUJPXAF3WW", "instance": "prb13171", "optimal_length": "7", "human_length": "9", "complete": "True", "start_time": "1.51630735799e+12", "end_time": "1.51630737687e+12", "rt": "18884.0", "nodes_expanded": "999", "skipped": "False", "trial_number": "0"}
{"subject": "A289D98Z4GAZ28", "assignment": "3ZV9H2YQQEFR2R3JK2IXZUJPXAF3WW", "instance": "prb3203", "optimal_length": "14", "human_length": "19", "complete": "True", "start_time": "1.51630737985e+12", "end_time": "1.51630741751e+12", "rt": "37660.0", "nodes_expanded": "999", "skipped": "False", "trial_number": "0"}
{"subject": "A289D98Z4GAZ28", "assignment": "3ZV9H2YQQEFR2R3JK2IXZUJPXAF3WW", "instance": "prb38725", "optimal_length": "14", "human_length": "15", "complete": "True", "start_time": "1.51630742753e+12", "end_time": "1.51630746219e+12", "rt": "34658.0", "nodes_expanded": "999", "skipped": "False", "trial_number": "0"}
{"subject": "A289D98Z4GAZ28", "assignment": "3ZV9H2YQQEFR2R3JK2IXZUJPXAF3WW", "instance": "prb22436", "optimal_length": "11", "human_length": "17", "complete": "True", "start_time": "1.51630747414e+12", "end_time": "1.51630751977e+12", "rt": "45627.0", "nodes_expanded": "999", "skipped": "False", "trial_number": "0"}
{"subject": "A289D98Z4GAZ28", "assignment": "3ZV9H2YQQEFR2R3JK2IXZUJPXAF3WW", "instance": "prb29232", "optimal_length": "7", "human_length": "7", "complete": "True", "start_time": "1.51630753079e+12", "end_time": "1.51630757224e+12", "rt": "41454.0", "nodes_expanded": "999", "skipped": "False", "trial_number": "0"}
{"subject": "A289D98Z4GAZ28", "assignment": "3ZV9H2YQQEFR2R3JK2IXZUJPXAF3WW", "instance": "prb68910", "optimal_length": "11", "human_length": "45", "complete": "True", "start_time": "1.51630757818e+12", "end_time": "1.51630768007e+12", "rt": "101886.0", "nodes_expanded": "999", "skipped": "False", "trial_number": "0"}
{"subject": "A289D98Z4GAZ28", "assignment": "3ZV9H2YQQEFR2R3JK2IXZUJPXAF3WW", "instance": "prb10206", "optimal_length": "7", "human_length": "7", "complete": "True", "start_time": "1.51630771289e+12", "end_time": "1.51630772091e+12", "rt": "8020.0", "nodes_expanded": "999", "skipped": "False", "trial_number": "0"}
{"subject": "A289D98Z4GAZ28", "assignment": "3ZV9H2YQQEFR2R3JK2IXZUJPXAF3WW", "instance": "prb33509", "optimal_length": "11", "human_length": "12", "complete": "True", "start_time": "1.51630773101e+12", "end_time": "1.51630776053e+12", "rt": "29514.0", "nodes_expanded": "999", "skipped": "False", "trial_number": "0"}
{"subject": "A289D98Z4GAZ28", "assignment": "3ZV9H2YQQEFR2R3JK2IXZUJPXAF3WW", "instance": "prb2834", "optimal_length": "7", "human_length": "12", "complete": "True", "start_time": "1.51630778138e+12", "end_time": "1.51630780152e+12", "rt": "20141.0", "nodes_expanded": "999", "skipped": "False", "trial_number": "0"}
{"subject": "A289D98Z4GAZ28", "assignment": "3ZV9H2YQQEFR2R3JK2IXZUJPXAF3WW", "instance": "prb8786", "optimal_length": "7", "human_length": "10", "complete": "True", "start_time": "1.51630781401e+12", "end_time": "1.51630782711e+12", "rt": "13108.0", "nodes_expanded": "999", "skipped": "False", "trial_number": "0"}
{"subject": "A289D98Z4GAZ28", "assignment": "3ZV9H2YQQEFR2R3JK2IXZUJPXAF3WW", "instance": "prb46639", "optimal_length": "16", "human_length": "81", "complete": "True", "start_time": "1.51630784639e+12", "end_time": "1.51630805927e+12", "rt": "212882.0", "nodes_expanded": "999", "skipped": "False", "trial_number": "0"}
{"subject": "A289D98Z4GAZ28", "assignment": "3ZV9H2YQQEFR2R3JK2IXZUJPXAF3WW", "instance": "prb29600", "optimal_length": "14", "human_length": "14", "complete": "True", "start_time": "1.51630811056e+12", "end_time": "1.51630814359e+12", "rt": "33036.0", "nodes_expanded": "999", "skipped": "False", "trial_number": "0"}
{"subject": "A289D98Z4GAZ28", "assignment": "3ZV9H2YQQEFR2R3JK2IXZUJPXAF3WW", "instance": "prb42959", "optimal_length": "11", "human_length": "11", "complete": "True", "start_time": "1.51630817131e+12", "end_time": "1.5163082166e+12", "rt": "45298.0", "nodes_expanded": "999", "skipped": "False", "trial_number": "0"}
{"subject": "A289D98Z4GAZ28", "assignment": "3ZV9H2YQQEFR2R3JK2IXZUJPXAF3WW", "instance": "prb15290", "optimal_length": "7", "human_length": "14", "complete": "True", "start_time": "1.51630822305e+12", "end_time": "1.51630825734e+12", "rt": "34291.0", "nodes_expanded": "999", "skipped": "False", "trial_number": "0"}
{"subject": "A289D98Z4GAZ28", "assignment": "3ZV9H2YQQEFR2R3JK2IXZUJPXAF3WW", "instance": "prb46224", "optimal_length": "11", "human_length": "11", "complete": "True", "start_time": "1.51630827829e+12", "end_time": "1.51630830607e+12", "rt": "27774.0", "nodes_expanded": "999", "skipped": "False", "trial_number": "0"}
{"subject": "A289D98Z4GAZ28", "assignment": "3ZV9H2YQQEFR2R3JK2IXZUJPXAF3WW", "instance": "prb23259", "optimal_length": "7", "human_length": "11", "complete": "True", "start_time": "1.51630831995e+12", "end_time": "1.51630834564e+12", "rt": "25693.0", "nodes_expanded": "999", "skipped": "False", "trial_number": "0"}
{"subject": "A289D98Z4GAZ28", "assignment": "3ZV9H2YQQEFR2R3JK2IXZUJPXAF3WW", "instance": "prb78361", "optimal_length": "16", "human_length": "27", "complete": "True", "start_time": "1.51630836328e+12", "end_time": "1.51630842091e+12", "rt": "57630.0", "nodes_expanded": "999", "skipped": "False", "trial_number": "0"}
{"subject": "A289D98Z4GAZ28", "assignment": "3ZV9H2YQQEFR2R3JK2IXZUJPXAF3WW", "instance": "prb12604", "optimal_length": "7", "human_length": "9", "complete": "True", "start_time": "1.5163084675e+12", "end_time": "1.5163084944e+12", "rt": "26898.0", "nodes_expanded": "999", "skipped": "False", "trial_number": "0"}
{"subject": "A289D98Z4GAZ28", "assignment": "3ZV9H2YQQEFR2R3JK2IXZUJPXAF3WW", "instance": "prb29414", "optimal_length": "11", "human_length": "17", "complete": "True", "start_time": "1.51630850851e+12", "end_time": "1.5163085373e+12", "rt": "28788.0", "nodes_expanded": "999", "skipped": "False", "trial_number": "0"}
{"subject": "A289D98Z4GAZ28", "assignment": "3ZV9H2YQQEFR2R3JK2IXZUJPXAF3WW", "instance": "prb20888", "optimal_length": "14", "human_length": "245", "complete": "True", "start_time": "1.51630856936e+12", "end_time": "1.51630913382e+12", "rt": "564462.0", "nodes_expanded": "999", "skipped": "False", "trial_number": "0"}
{"subject": "A289D98Z4GAZ28", "assignment": "3ZV9H2YQQEFR2R3JK2IXZUJPXAF3WW", "instance": "prb23404", "optimal_length": "14", "human_length": "28", "complete": "True", "start_time": "1.51630963217e+12", "end_time": "1.51630968243e+12", "rt": "50257.0", "nodes_expanded": "999", "skipped": "False", "trial_number": "0"}
{"subject": "AYPOAY43REHC8", "assignment": "3ON104KXQL4CKNMNKGNG9ZBVBAB4WI", "instance": "prb717", "optimal_length": "11", "human_length": "32", "complete": "True", "start_time": "1.51631181127e+12", "end_time": "1.51631187456e+12", "rt": "63294.0", "nodes_expanded": "999", "skipped": "False", "trial_number": "0"}
{"subject": "AYPOAY43REHC8", "assignment": "3ON104KXQL4CKNMNKGNG9ZBVBAB4WI", "instance": "prb15595", "optimal_length": "16", "human_length": "65", "complete": "True", "start_time": "1.51631187647e+12", "end_time": "1.5163119748e+12", "rt": "98331.0", "nodes_expanded": "999", "skipped": "False", "trial_number": "0"}
{"subject": "AYPOAY43REHC8", "assignment": "3ON104KXQL4CKNMNKGNG9ZBVBAB4WI", "instance": "prb8786", "optimal_length": "7", "human_length": "9", "complete": "True", "start_time": "1.51631197606e+12", "end_time": "1.51631198694e+12", "rt": "10881.0", "nodes_expanded": "999", "skipped": "False", "trial_number": "0"}
{"subject": "AYPOAY43REHC8", "assignment": "3ON104KXQL4CKNMNKGNG9ZBVBAB4WI", "instance": "prb22436", "optimal_length": "11", "human_length": "23", "complete": "True", "start_time": "1.51631199266e+12", "end_time": "1.51631203623e+12", "rt": "43571.0", "nodes_expanded": "999", "skipped": "False", "trial_number": "0"}
{"subject": "AYPOAY43REHC8", "assignment": "3ON104KXQL4CKNMNKGNG9ZBVBAB4WI", "instance": "prb42959", "optimal_length": "11", "human_length": "26", "complete": "True", "start_time": "1.51631203712e+12", "end_time": "1.51631207797e+12", "rt": "40849.0", "nodes_expanded": "999", "skipped": "False", "trial_number": "0"}
{"subject": "AYPOAY43REHC8", "assignment": "3ON104KXQL4CKNMNKGNG9ZBVBAB4WI", "instance": "prb78361", "optimal_length": "16", "human_length": "53", "complete": "True", "start_time": "1.5163120789e+12", "end_time": "1.51631215311e+12", "rt": "74213.0", "nodes_expanded": "999", "skipped": "False", "trial_number": "0"}
{"subject": "AYPOAY43REHC8", "assignment": "3ON104KXQL4CKNMNKGNG9ZBVBAB4WI", "instance": "prb33117", "optimal_length": "14", "human_length": "41", "complete": "True", "start_time": "1.5163121546e+12", "end_time": "1.51631221468e+12", "rt": "60086.0", "nodes_expanded": "999", "skipped": "False", "trial_number": "0"}
{"subject": "AYPOAY43REHC8", "assignment": "3ON104KXQL4CKNMNKGNG9ZBVBAB4WI", "instance": "prb1267", "optimal_length": "16", "human_length": "147", "complete": "True", "start_time": "1.51631221616e+12", "end_time": "1.51631243799e+12", "rt": "221824.0", "nodes_expanded": "999", "skipped": "False", "trial_number": "0"}
{"subject": "AYPOAY43REHC8", "assignment": "3ON104KXQL4CKNMNKGNG9ZBVBAB4WI", "instance": "prb20059", "optimal_length": "7", "human_length": "7", "complete": "True", "start_time": "1.51631243878e+12", "end_time": "1.51631244772e+12", "rt": "8944.0", "nodes_expanded": "999", "skipped": "False", "trial_number": "0"}
{"subject": "AYPOAY43REHC8", "assignment": "3ON104KXQL4CKNMNKGNG9ZBVBAB4WI", "instance": "prb10206", "optimal_length": "7", "human_length": "8", "complete": "True", "start_time": "1.5163124485e+12", "end_time": "1.51631245565e+12", "rt": "7150.0", "nodes_expanded": "999", "skipped": "False", "trial_number": "0"}
{"subject": "AYPOAY43REHC8", "assignment": "3ON104KXQL4CKNMNKGNG9ZBVBAB4WI", "instance": "prb25604", "optimal_length": "16", "human_length": "62", "complete": "True", "start_time": "1.51631245632e+12", "end_time": "1.51631255468e+12", "rt": "98365.0", "nodes_expanded": "999", "skipped": "False", "trial_number": "0"}
{"subject": "AYPOAY43REHC8", "assignment": "3ON104KXQL4CKNMNKGNG9ZBVBAB4WI", "instance": "prb13171", "optimal_length": "7", "human_length": "9", "complete": "True", "start_time": "1.51631255637e+12", "end_time": "1.51631256839e+12", "rt": "12021.0", "nodes_expanded": "999", "skipped": "False", "trial_number": "0"}
{"subject": "AYPOAY43REHC8", "assignment": "3ON104KXQL4CKNMNKGNG9ZBVBAB4WI", "instance": "prb79230", "optimal_length": "11", "human_length": "78", "complete": "True", "start_time": "1.51631256915e+12", "end_time": "1.51631267662e+12", "rt": "107477.0", "nodes_expanded": "999", "skipped": "False", "trial_number": "0"}
{"subject": "AYPOAY43REHC8", "assignment": "3ON104KXQL4CKNMNKGNG9ZBVBAB4WI", "instance": "prb2834", "optimal_length": "7", "human_length": "7", "complete": "True", "start_time": "1.51631267736e+12", "end_time": "1.51631268783e+12", "rt": "10462.0", "nodes_expanded": "999", "skipped": "False", "trial_number": "0"}
{"subject": "AYPOAY43REHC8", "assignment": "3ON104KXQL4CKNMNKGNG9ZBVBAB4WI", "instance": "prb24406", "optimal_length": "16", "human_length": "86", "complete": "True", "start_time": "1.51631268864e+12", "end_time": "1.51631281644e+12", "rt": "127797.0", "nodes_expanded": "999", "skipped": "False", "trial_number": "0"}
{"subject": "AYPOAY43REHC8", "assignment": "3ON104KXQL4CKNMNKGNG9ZBVBAB4WI", "instance": "prb46580", "optimal_length": "16", "human_length": "40", "complete": "True", "start_time": "1.51631281832e+12", "end_time": "1.51631287239e+12", "rt": "54065.0", "nodes_expanded": "999", "skipped": "False", "trial_number": "0"}
{"subject": "AYPOAY43REHC8", "assignment": "3ON104KXQL4CKNMNKGNG9ZBVBAB4WI", "instance": "prb32695", "optimal_length": "7", "human_length": "7", "complete": "True", "start_time": "1.51631287328e+12", "end_time": "1.51631288358e+12", "rt": "10300.0", "nodes_expanded": "999", "skipped": "False", "trial_number": "0"}
{"subject": "AYPOAY43REHC8", "assignment": "3ON104KXQL4CKNMNKGNG9ZBVBAB4WI", "instance": "prb3203", "optimal_length": "14", "human_length": "136", "complete": "True", "start_time": "1.51631288424e+12", "end_time": "1.51631308200e+12", "rt": "197763.0", "nodes_expanded": "999", "skipped": "False", "trial_number": "0"}
{"subject": "AYPOAY43REHC8", "assignment": "3ON104KXQL4CKNMNKGNG9ZBVBAB4WI", "instance": "prb10166", "optimal_length": "16", "human_length": "198", "complete": "True", "start_time": "1.51631308356e+12", "end_time": "1.51631348141e+12", "rt": "397843.0", "nodes_expanded": "999", "skipped": "False", "trial_number": "0"}
{"subject": "AYPOAY43REHC8", "assignment": "3ON104KXQL4CKNMNKGNG9ZBVBAB4WI", "instance": "prb31907", "optimal_length": "11", "human_length": "28", "complete": "True", "start_time": "1.5163134835e+12", "end_time": "1.51631352038e+12", "rt": "36883.0", "nodes_expanded": "999", "skipped": "False", "trial_number": "0"}
{"subject": "AYPOAY43REHC8", "assignment": "3ON104KXQL4CKNMNKGNG9ZBVBAB4WI", "instance": "prb65535", "optimal_length": "14", "human_length": "34", "complete": "False", "start_time": "1.51631352143e+12", "end_time": "1.51631357021e+12", "rt": "48787.0", "nodes_expanded": "999", "skipped": "True", "trial_number": "0"}
{"subject": "A58QOLDFC179Q", "assignment": "3ON104KXQL4CKNMNKGNG9ZBVBAB4WI", "instance": "prb14047", "optimal_length": "7", "human_length": "7", "complete": "True", "start_time": "1.51631388759e+12", "end_time": "1.51631389734e+12", "rt": "9753.0", "nodes_expanded": "999", "skipped": "False", "trial_number": "0"}
{"subject": "A58QOLDFC179Q", "assignment": "3ON104KXQL4CKNMNKGNG9ZBVBAB4WI", "instance": "prb9718", "optimal_length": "11", "human_length": "16", "complete": "False", "start_time": "1.51631390009e+12", "end_time": "1.51631393331e+12", "rt": "33223.0", "nodes_expanded": "999", "skipped": "False", "trial_number": "0"}
{"subject": "A58QOLDFC179Q", "assignment": "3ON104KXQL4CKNMNKGNG9ZBVBAB4WI", "instance": "prb9718", "optimal_length": "11", "human_length": "20", "complete": "True", "start_time": "1.51631393681e+12", "end_time": "1.51631398558e+12", "rt": "48771.0", "nodes_expanded": "999", "skipped": "False", "trial_number": "1"}
{"subject": "A58QOLDFC179Q", "assignment": "3ON104KXQL4CKNMNKGNG9ZBVBAB4WI", "instance": "prb29232", "optimal_length": "7", "human_length": "9", "complete": "True", "start_time": "1.51631398679e+12", "end_time": "1.51631399764e+12", "rt": "10857.0", "nodes_expanded": "999", "skipped": "False", "trial_number": "0"}
{"subject": "A58QOLDFC179Q", "assignment": "3ON104KXQL4CKNMNKGNG9ZBVBAB4WI", "instance": "prb14485", "optimal_length": "14", "human_length": "47", "complete": "False", "start_time": "1.51631400016e+12", "end_time": "1.51631409056e+12", "rt": "90397.0", "nodes_expanded": "999", "skipped": "True", "trial_number": "0"}
{"subject": "A58QOLDFC179Q", "assignment": "3ON104KXQL4CKNMNKGNG9ZBVBAB4WI", "instance": "prb717", "optimal_length": "11", "human_length": "13", "complete": "False", "start_time": "1.51631409379e+12", "end_time": "1.5163141282e+12", "rt": "34404.0", "nodes_expanded": "999", "skipped": "False", "trial_number": "0"}
{"subject": "A58QOLDFC179Q", "assignment": "3ON104KXQL4CKNMNKGNG9ZBVBAB4WI", "instance": "prb717", "optimal_length": "11", "human_length": "18", "complete": "True", "start_time": "1.51631413060e+12", "end_time": "1.51631416766e+12", "rt": "37055.0", "nodes_expanded": "999", "skipped": "False", "trial_number": "1"}
{"subject": "A191V7PT3DQKDP", "assignment": "3PMBY0YE28B43VMUKKJ6EDF85RV9C8", "instance": "prb58853", "optimal_length": "16", "human_length": "28", "complete": "True", "start_time": "1.51638587285e+12", "end_time": "1.51638591928e+12", "rt": "46431.0", "nodes_expanded": "999", "skipped": "False", "trial_number": "0"}
{"subject": "A191V7PT3DQKDP", "assignment": "3PMBY0YE28B43VMUKKJ6EDF85RV9C8", "instance": "prb29414", "optimal_length": "11", "human_length": "12", "complete": "True", "start_time": "1.51638592559e+12", "end_time": "1.51638593674e+12", "rt": "11151.0", "nodes_expanded": "999", "skipped": "False", "trial_number": "0"}
{"subject": "A191V7PT3DQKDP", "assignment": "3PMBY0YE28B43VMUKKJ6EDF85RV9C8", "instance": "prb3217", "optimal_length": "11", "human_length": "20", "complete": "True", "start_time": "1.51638594181e+12", "end_time": "1.51638596739e+12", "rt": "25577.0", "nodes_expanded": "999", "skipped": "False", "trial_number": "0"}
{"subject": "A191V7PT3DQKDP", "assignment": "3PMBY0YE28B43VMUKKJ6EDF85RV9C8", "instance": "prb33509", "optimal_length": "11", "human_length": "91", "complete": "True", "start_time": "1.51638597193e+12", "end_time": "1.51638610329e+12", "rt": "131355.0", "nodes_expanded": "999", "skipped": "False", "trial_number": "0"}
{"subject": "A191V7PT3DQKDP", "assignment": "3PMBY0YE28B43VMUKKJ6EDF85RV9C8", "instance": "prb11647", "optimal_length": "7", "human_length": "8", "complete": "True", "start_time": "1.51638610637e+12", "end_time": "1.51638611422e+12", "rt": "7851.0", "nodes_expanded": "999", "skipped": "False", "trial_number": "0"}
{"subject": "A191V7PT3DQKDP", "assignment": "3PMBY0YE28B43VMUKKJ6EDF85RV9C8", "instance": "prb38725", "optimal_length": "14", "human_length": "14", "complete": "True", "start_time": "1.51638611542e+12", "end_time": "1.51638613587e+12", "rt": "20452.0", "nodes_expanded": "999", "skipped": "False", "trial_number": "0"}
{"subject": "A191V7PT3DQKDP", "assignment": "3PMBY0YE28B43VMUKKJ6EDF85RV9C8", "instance": "prb34092", "optimal_length": "11", "human_length": "12", "complete": "True", "start_time": "1.51638614172e+12", "end_time": "1.51638615265e+12", "rt": "10934.0", "nodes_expanded": "999", "skipped": "False", "trial_number": "0"}
{"subject": "A191V7PT3DQKDP", "assignment": "3PMBY0YE28B43VMUKKJ6EDF85RV9C8", "instance": "prb24227", "optimal_length": "16", "human_length": "35", "complete": "True", "start_time": "1.51638615531e+12", "end_time": "1.51638620311e+12", "rt": "47799.0", "nodes_expanded": "999", "skipped": "False", "trial_number": "0"}
{"subject": "A191V7PT3DQKDP", "assignment": "3PMBY0YE28B43VMUKKJ6EDF85RV9C8", "instance": "prb25604", "optimal_length": "16", "human_length": "17", "complete": "True", "start_time": "1.51638621697e+12", "end_time": "1.51638623297e+12", "rt": "15996.0", "nodes_expanded": "999", "skipped": "False", "trial_number": "0"}
{"subject": "A191V7PT3DQKDP", "assignment": "3PMBY0YE28B43VMUKKJ6EDF85RV9C8", "instance": "prb46639", "optimal_length": "16", "human_length": "38", "complete": "True", "start_time": "1.51638623484e+12", "end_time": "1.51638628405e+12", "rt": "49206.0", "nodes_expanded": "999", "skipped": "False", "trial_number": "0"}
{"subject": "A191V7PT3DQKDP", "assignment": "3PMBY0YE28B43VMUKKJ6EDF85RV9C8", "instance": "prb54506", "optimal_length": "16", "human_length": "25", "complete": "True", "start_time": "1.51638629086e+12", "end_time": "1.51638631911e+12", "rt": "28249.0", "nodes_expanded": "999", "skipped": "False", "trial_number": "0"}
{"subject": "A191V7PT3DQKDP", "assignment": "3PMBY0YE28B43VMUKKJ6EDF85RV9C8", "instance": "prb33117", "optimal_length": "14", "human_length": "28", "complete": "True", "start_time": "1.51638633125e+12", "end_time": "1.51638636991e+12", "rt": "38660.0", "nodes_expanded": "999", "skipped": "False", "trial_number": "0"}
{"subject": "A191V7PT3DQKDP", "assignment": "3PMBY0YE28B43VMUKKJ6EDF85RV9C8", "instance": "prb15595", "optimal_length": "16", "human_length": "44", "complete": "True", "start_time": "1.516386371e+12", "end_time": "1.51638643781e+12", "rt": "66805.0", "nodes_expanded": "999", "skipped": "False", "trial_number": "0"}
{"subject": "A191V7PT3DQKDP", "assignment": "3PMBY0YE28B43VMUKKJ6EDF85RV9C8", "instance": "prb42959", "optimal_length": "11", "human_length": "12", "complete": "True", "start_time": "1.51638644159e+12", "end_time": "1.51638645791e+12", "rt": "16319.0", "nodes_expanded": "999", "skipped": "False", "trial_number": "0"}
{"subject": "A191V7PT3DQKDP", "assignment": "3PMBY0YE28B43VMUKKJ6EDF85RV9C8", "instance": "prb46224", "optimal_length": "11", "human_length": "11", "complete": "True", "start_time": "1.51638646007e+12", "end_time": "1.51638647049e+12", "rt": "10424.0", "nodes_expanded": "999", "skipped": "False", "trial_number": "0"}
{"subject": "A191V7PT3DQKDP", "assignment": "3PMBY0YE28B43VMUKKJ6EDF85RV9C8", "instance": "prb26567", "optimal_length": "7", "human_length": "13", "complete": "True", "start_time": "1.51638647476e+12", "end_time": "1.51638648482e+12", "rt": "10060.0", "nodes_expanded": "999", "skipped": "False", "trial_number": "0"}
{"subject": "A191V7PT3DQKDP", "assignment": "3PMBY0YE28B43VMUKKJ6EDF85RV9C8", "instance": "prb14485", "optimal_length": "14", "human_length": "38", "complete": "True", "start_time": "1.51638648608e+12", "end_time": "1.51638653368e+12", "rt": "47598.0", "nodes_expanded": "999", "skipped": "False", "trial_number": "0"}
{"subject": "A191V7PT3DQKDP", "assignment": "3PMBY0YE28B43VMUKKJ6EDF85RV9C8", "instance": "prb8786", "optimal_length": "7", "human_length": "10", "complete": "True", "start_time": "1.51638653537e+12", "end_time": "1.51638654412e+12", "rt": "8745.0", "nodes_expanded": "999", "skipped": "False", "trial_number": "0"}
{"subject": "A191V7PT3DQKDP", "assignment": "3PMBY0YE28B43VMUKKJ6EDF85RV9C8", "instance": "prb12604", "optimal_length": "7", "human_length": "7", "complete": "True", "start_time": "1.51638654627e+12", "end_time": "1.51638655161e+12", "rt": "5340.0", "nodes_expanded": "999", "skipped": "False", "trial_number": "0"}
{"subject": "A191V7PT3DQKDP", "assignment": "3PMBY0YE28B43VMUKKJ6EDF85RV9C8", "instance": "prb57223", "optimal_length": "16", "human_length": "35", "complete": "True", "start_time": "1.51638655311e+12", "end_time": "1.51638661448e+12", "rt": "61368.0", "nodes_expanded": "999", "skipped": "False", "trial_number": "0"}
{"subject": "A191V7PT3DQKDP", "assignment": "3PMBY0YE28B43VMUKKJ6EDF85RV9C8", "instance": "prb55384", "optimal_length": "14", "human_length": "19", "complete": "True", "start_time": "1.51638663026e+12", "end_time": "1.51638665336e+12", "rt": "23107.0", "nodes_expanded": "999", "skipped": "False", "trial_number": "0"}
{"subject": "A191V7PT3DQKDP", "assignment": "3PMBY0YE28B43VMUKKJ6EDF85RV9C8", "instance": "prb34551", "optimal_length": "14", "human_length": "16", "complete": "True", "start_time": "1.51638665552e+12", "end_time": "1.51638667593e+12", "rt": "20405.0", "nodes_expanded": "999", "skipped": "False", "trial_number": "0"}
{"subject": "A191V7PT3DQKDP", "assignment": "3PMBY0YE28B43VMUKKJ6EDF85RV9C8", "instance": "prb15290", "optimal_length": "7", "human_length": "8", "complete": "True", "start_time": "1.51638667768e+12", "end_time": "1.51638668492e+12", "rt": "7239.0", "nodes_expanded": "999", "skipped": "False", "trial_number": "0"}
{"subject": "A191V7PT3DQKDP", "assignment": "3PMBY0YE28B43VMUKKJ6EDF85RV9C8", "instance": "prb14047", "optimal_length": "7", "human_length": "9", "complete": "True", "start_time": "1.51638669833e+12", "end_time": "1.51638670863e+12", "rt": "10298.0", "nodes_expanded": "999", "skipped": "False", "trial_number": "0"}
{"subject": "A191V7PT3DQKDP", "assignment": "3PMBY0YE28B43VMUKKJ6EDF85RV9C8", "instance": "prb14898", "optimal_length": "11", "human_length": "27", "complete": "True", "start_time": "1.5163867103e+12", "end_time": "1.51638676039e+12", "rt": "50086.0", "nodes_expanded": "999", "skipped": "False", "trial_number": "0"}
{"subject": "A191V7PT3DQKDP", "assignment": "3PMBY0YE28B43VMUKKJ6EDF85RV9C8", "instance": "prb29027", "optimal_length": "16", "human_length": "38", "complete": "True", "start_time": "1.51638676128e+12", "end_time": "1.516386816e+12", "rt": "54717.0", "nodes_expanded": "999", "skipped": "False", "trial_number": "0"}
{"subject": "A191V7PT3DQKDP", "assignment": "3PMBY0YE28B43VMUKKJ6EDF85RV9C8", "instance": "prb48146", "optimal_length": "16", "human_length": "32", "complete": "True", "start_time": "1.51638682109e+12", "end_time": "1.5163868665e+12", "rt": "45412.0", "nodes_expanded": "999", "skipped": "False", "trial_number": "0"}
{"subject": "A191V7PT3DQKDP", "assignment": "3PMBY0YE28B43VMUKKJ6EDF85RV9C8", "instance": "prb13171", "optimal_length": "7", "human_length": "11", "complete": "True", "start_time": "1.51638686886e+12", "end_time": "1.51638688004e+12", "rt": "11171.0", "nodes_expanded": "999", "skipped": "False", "trial_number": "0"}
{"subject": "A191V7PT3DQKDP", "assignment": "3PMBY0YE28B43VMUKKJ6EDF85RV9C8", "instance": "prb29585", "optimal_length": "14", "human_length": "19", "complete": "True", "start_time": "1.51638688634e+12", "end_time": "1.51638690493e+12", "rt": "18590.0", "nodes_expanded": "999", "skipped": "False", "trial_number": "0"}
{"subject": "A191V7PT3DQKDP", "assignment": "3PMBY0YE28B43VMUKKJ6EDF85RV9C8", "instance": "prb28111", "optimal_length": "7", "human_length": "7", "complete": "True", "start_time": "1.51638690726e+12", "end_time": "1.51638691515e+12", "rt": "7893.0", "nodes_expanded": "999", "skipped": "False", "trial_number": "0"}
{"subject": "A191V7PT3DQKDP", "assignment": "3PMBY0YE28B43VMUKKJ6EDF85RV9C8", "instance": "prb68910", "optimal_length": "11", "human_length": "11", "complete": "True", "start_time": "1.51638691715e+12", "end_time": "1.51638692796e+12", "rt": "10810.0", "nodes_expanded": "999", "skipped": "False", "trial_number": "0"}
{"subject": "A191V7PT3DQKDP", "assignment": "3PMBY0YE28B43VMUKKJ6EDF85RV9C8", "instance": "prb32695", "optimal_length": "7", "human_length": "10", "complete": "True", "start_time": "1.51638693182e+12", "end_time": "1.51638693906e+12", "rt": "7249.0", "nodes_expanded": "999", "skipped": "False", "trial_number": "0"}
{"subject": "A191V7PT3DQKDP", "assignment": "3PMBY0YE28B43VMUKKJ6EDF85RV9C8", "instance": "prb10166", "optimal_length": "16", "human_length": "26", "complete": "True", "start_time": "1.51638694028e+12", "end_time": "1.51638696751e+12", "rt": "27235.0", "nodes_expanded": "999", "skipped": "False", "trial_number": "0"}
{"subject": "A191V7PT3DQKDP", "assignment": "3PMBY0YE28B43VMUKKJ6EDF85RV9C8", "instance": "prb12715", "optimal_length": "11", "human_length": "22", "complete": "True", "start_time": "1.51638697184e+12", "end_time": "1.5163870112e+12", "rt": "39359.0", "nodes_expanded": "999", "skipped": "False", "trial_number": "0"}
{"subject": "A191V7PT3DQKDP", "assignment": "3PMBY0YE28B43VMUKKJ6EDF85RV9C8", "instance": "prb29232", "optimal_length": "7", "human_length": "14", "complete": "True", "start_time": "1.51638701297e+12", "end_time": "1.51638702657e+12", "rt": "13600.0", "nodes_expanded": "999", "skipped": "False", "trial_number": "0"}
{"subject": "A191V7PT3DQKDP", "assignment": "3PMBY0YE28B43VMUKKJ6EDF85RV9C8", "instance": "prb54081", "optimal_length": "11", "human_length": "13", "complete": "True", "start_time": "1.51638705777e+12", "end_time": "1.51638706949e+12", "rt": "11718.0", "nodes_expanded": "999", "skipped": "False", "trial_number": "0"}
{"subject": "A191V7PT3DQKDP", "assignment": "3PMBY0YE28B43VMUKKJ6EDF85RV9C8", "instance": "prb23404", "optimal_length": "14", "human_length": "17", "complete": "True", "start_time": "1.51638707078e+12", "end_time": "1.51638708868e+12", "rt": "17900.0", "nodes_expanded": "999", "skipped": "False", "trial_number": "0"}
{"subject": "A191V7PT3DQKDP", "assignment": "3PMBY0YE28B43VMUKKJ6EDF85RV9C8", "instance": "prb9718", "optimal_length": "11", "human_length": "14", "complete": "True", "start_time": "1.51638709716e+12", "end_time": "1.51638711337e+12", "rt": "16216.0", "nodes_expanded": "999", "skipped": "False", "trial_number": "0"}
{"subject": "A191V7PT3DQKDP", "assignment": "3PMBY0YE28B43VMUKKJ6EDF85RV9C8", "instance": "prb78361", "optimal_length": "16", "human_length": "34", "complete": "True", "start_time": "1.5163871165e+12", "end_time": "1.51638715065e+12", "rt": "34156.0", "nodes_expanded": "999", "skipped": "False", "trial_number": "0"}
{"subject": "A191V7PT3DQKDP", "assignment": "3PMBY0YE28B43VMUKKJ6EDF85RV9C8", "instance": "prb31907", "optimal_length": "11", "human_length": "22", "complete": "True", "start_time": "1.51638715477e+12", "end_time": "1.51638717643e+12", "rt": "21662.0", "nodes_expanded": "999", "skipped": "False", "trial_number": "0"}
{"subject": "A191V7PT3DQKDP", "assignment": "3PMBY0YE28B43VMUKKJ6EDF85RV9C8", "instance": "prb1707", "optimal_length": "7", "human_length": "7", "complete": "True", "start_time": "1.51638717825e+12", "end_time": "1.51638718555e+12", "rt": "7301.0", "nodes_expanded": "999", "skipped": "False", "trial_number": "0"}
{"subject": "A191V7PT3DQKDP", "assignment": "3PMBY0YE28B43VMUKKJ6EDF85RV9C8", "instance": "prb1267", "optimal_length": "16", "human_length": "98", "complete": "True", "start_time": "1.51638718878e+12", "end_time": "1.51638737563e+12", "rt": "186851.0", "nodes_expanded": "999", "skipped": "False", "trial_number": "0"}
{"subject": "A191V7PT3DQKDP", "assignment": "3PMBY0YE28B43VMUKKJ6EDF85RV9C8", "instance": "prb20888", "optimal_length": "14", "human_length": "28", "complete": "True", "start_time": "1.51638737842e+12", "end_time": "1.51638741082e+12", "rt": "32402.0", "nodes_expanded": "999", "skipped": "False", "trial_number": "0"}
{"subject": "A191V7PT3DQKDP", "assignment": "3PMBY0YE28B43VMUKKJ6EDF85RV9C8", "instance": "prb6671", "optimal_length": "14", "human_length": "16", "complete": "True", "start_time": "1.51638742241e+12", "end_time": "1.51638747064e+12", "rt": "48233.0", "nodes_expanded": "999", "skipped": "False", "trial_number": "0"}
{"subject": "A191V7PT3DQKDP", "assignment": "3PMBY0YE28B43VMUKKJ6EDF85RV9C8", "instance": "prb62015", "optimal_length": "11", "human_length": "12", "complete": "True", "start_time": "1.51638747243e+12", "end_time": "1.51638748521e+12", "rt": "12785.0", "nodes_expanded": "999", "skipped": "False", "trial_number": "0"}
{"subject": "A191V7PT3DQKDP", "assignment": "3PMBY0YE28B43VMUKKJ6EDF85RV9C8", "instance": "prb32795", "optimal_length": "7", "human_length": "12", "complete": "True", "start_time": "1.51638748663e+12", "end_time": "1.516387498e+12", "rt": "11370.0", "nodes_expanded": "999", "skipped": "False", "trial_number": "0"}
{"subject": "A191V7PT3DQKDP", "assignment": "3PMBY0YE28B43VMUKKJ6EDF85RV9C8", "instance": "prb20059", "optimal_length": "7", "human_length": "8", "complete": "True", "start_time": "1.51638750008e+12", "end_time": "1.51638750557e+12", "rt": "5488.0", "nodes_expanded": "999", "skipped": "False", "trial_number": "0"}
{"subject": "A191V7PT3DQKDP", "assignment": "3PMBY0YE28B43VMUKKJ6EDF85RV9C8", "instance": "prb68514", "optimal_length": "14", "human_length": "17", "complete": "True", "start_time": "1.51638750693e+12", "end_time": "1.51638752628e+12", "rt": "19353.0", "nodes_expanded": "999", "skipped": "False", "trial_number": "0"}
{"subject": "A191V7PT3DQKDP", "assignment": "3PMBY0YE28B43VMUKKJ6EDF85RV9C8", "instance": "prb343", "optimal_length": "14", "human_length": "110", "complete": "True", "start_time": "1.51638752886e+12", "end_time": "1.51638771389e+12", "rt": "185030.0", "nodes_expanded": "999", "skipped": "False", "trial_number": "0"}
{"subject": "A191V7PT3DQKDP", "assignment": "3PMBY0YE28B43VMUKKJ6EDF85RV9C8", "instance": "prb14651", "optimal_length": "7", "human_length": "7", "complete": "True", "start_time": "1.51638771958e+12", "end_time": "1.51638772609e+12", "rt": "6511.0", "nodes_expanded": "999", "skipped": "False", "trial_number": "0"}
{"subject": "A191V7PT3DQKDP", "assignment": "3PMBY0YE28B43VMUKKJ6EDF85RV9C8", "instance": "prb29600", "optimal_length": "14", "human_length": "15", "complete": "True", "start_time": "1.51638773292e+12", "end_time": "1.51638774911e+12", "rt": "16188.0", "nodes_expanded": "999", "skipped": "False", "trial_number": "0"}
{"subject": "A191V7PT3DQKDP", "assignment": "3PMBY0YE28B43VMUKKJ6EDF85RV9C8", "instance": "prb19279", "optimal_length": "14", "human_length": "21", "complete": "True", "start_time": "1.51638775223e+12", "end_time": "1.51638777493e+12", "rt": "22703.0", "nodes_expanded": "999", "skipped": "False", "trial_number": "0"}
{"subject": "A191V7PT3DQKDP", "assignment": "3PMBY0YE28B43VMUKKJ6EDF85RV9C8", "instance": "prb44171", "optimal_length": "16", "human_length": "24", "complete": "True", "start_time": "1.51638778107e+12", "end_time": "1.51638780627e+12", "rt": "25199.0", "nodes_expanded": "999", "skipped": "False", "trial_number": "0"}
{"subject": "A191V7PT3DQKDP", "assignment": "3PMBY0YE28B43VMUKKJ6EDF85RV9C8", "instance": "prb10206", "optimal_length": "7", "human_length": "7", "complete": "True", "start_time": "1.5163878089e+12", "end_time": "1.51638781467e+12", "rt": "5769.0", "nodes_expanded": "999", "skipped": "False", "trial_number": "0"}
{"subject": "A191V7PT3DQKDP", "assignment": "3PMBY0YE28B43VMUKKJ6EDF85RV9C8", "instance": "prb21272", "optimal_length": "7", "human_length": "16", "complete": "True", "start_time": "1.51638781585e+12", "end_time": "1.51638783466e+12", "rt": "18809.0", "nodes_expanded": "999", "skipped": "False", "trial_number": "0"}
{"subject": "A191V7PT3DQKDP", "assignment": "3PMBY0YE28B43VMUKKJ6EDF85RV9C8", "instance": "prb72800", "optimal_length": "14", "human_length": "17", "complete": "True", "start_time": "1.5163878369e+12", "end_time": "1.51638785697e+12", "rt": "20071.0", "nodes_expanded": "999", "skipped": "False", "trial_number": "0"}
{"subject": "A191V7PT3DQKDP", "assignment": "3PMBY0YE28B43VMUKKJ6EDF85RV9C8", "instance": "prb79230", "optimal_length": "11", "human_length": "11", "complete": "True", "start_time": "1.5163878608e+12", "end_time": "1.51638787124e+12", "rt": "10440.0", "nodes_expanded": "999", "skipped": "False", "trial_number": "0"}
{"subject": "A191V7PT3DQKDP", "assignment": "3PMBY0YE28B43VMUKKJ6EDF85RV9C8", "instance": "prb23259", "optimal_length": "7", "human_length": "16", "complete": "True", "start_time": "1.51638787981e+12", "end_time": "1.51638789639e+12", "rt": "16575.0", "nodes_expanded": "999", "skipped": "False", "trial_number": "0"}
{"subject": "A191V7PT3DQKDP", "assignment": "3PMBY0YE28B43VMUKKJ6EDF85RV9C8", "instance": "prb3203", "optimal_length": "14", "human_length": "19", "complete": "True", "start_time": "1.51638789859e+12", "end_time": "1.51638791985e+12", "rt": "21257.0", "nodes_expanded": "999", "skipped": "False", "trial_number": "0"}
{"subject": "A191V7PT3DQKDP", "assignment": "3PMBY0YE28B43VMUKKJ6EDF85RV9C8", "instance": "prb46580", "optimal_length": "16", "human_length": "20", "complete": "True", "start_time": "1.51638792428e+12", "end_time": "1.5163879448e+12", "rt": "20514.0", "nodes_expanded": "999", "skipped": "False", "trial_number": "0"}
{"subject": "A191V7PT3DQKDP", "assignment": "3PMBY0YE28B43VMUKKJ6EDF85RV9C8", "instance": "prb47495", "optimal_length": "14", "human_length": "35", "complete": "True", "start_time": "1.51638794704e+12", "end_time": "1.51638798564e+12", "rt": "38608.0", "nodes_expanded": "999", "skipped": "False", "trial_number": "0"}
{"subject": "A191V7PT3DQKDP", "assignment": "3PMBY0YE28B43VMUKKJ6EDF85RV9C8", "instance": "prb717", "optimal_length": "11", "human_length": "11", "complete": "True", "start_time": "1.5163879893e+12", "end_time": "1.51638800004e+12", "rt": "10735.0", "nodes_expanded": "999", "skipped": "False", "trial_number": "0"}
{"subject": "A191V7PT3DQKDP", "assignment": "3PMBY0YE28B43VMUKKJ6EDF85RV9C8", "instance": "prb25861", "optimal_length": "16", "human_length": "75", "complete": "True", "start_time": "1.51638800167e+12", "end_time": "1.51638814539e+12", "rt": "143719.0", "nodes_expanded": "999", "skipped": "False", "trial_number": "0"}
{"subject": "A191V7PT3DQKDP", "assignment": "3PMBY0YE28B43VMUKKJ6EDF85RV9C8", "instance": "prb65535", "optimal_length": "14", "human_length": "29", "complete": "True", "start_time": "1.51638815379e+12", "end_time": "1.51638818474e+12", "rt": "30954.0", "nodes_expanded": "999", "skipped": "False", "trial_number": "0"}
{"subject": "A191V7PT3DQKDP", "assignment": "3PMBY0YE28B43VMUKKJ6EDF85RV9C8", "instance": "prb22436", "optimal_length": "11", "human_length": "14", "complete": "True", "start_time": "1.51638820055e+12", "end_time": "1.51638821591e+12", "rt": "15361.0", "nodes_expanded": "999", "skipped": "False", "trial_number": "0"}
{"subject": "A191V7PT3DQKDP", "assignment": "3PMBY0YE28B43VMUKKJ6EDF85RV9C8", "instance": "prb38526", "optimal_length": "11", "human_length": "25", "complete": "True", "start_time": "1.5163882349e+12", "end_time": "1.51638827496e+12", "rt": "40057.0", "nodes_expanded": "999", "skipped": "False", "trial_number": "0"}
{"subject": "A191V7PT3DQKDP", "assignment": "3PMBY0YE28B43VMUKKJ6EDF85RV9C8", "instance": "prb24406", "optimal_length": "16", "human_length": "50", "complete": "True", "start_time": "1.51638827865e+12", "end_time": "1.51638834714e+12", "rt": "68497.0", "nodes_expanded": "999", "skipped": "False", "trial_number": "0"}
{"subject": "A191V7PT3DQKDP", "assignment": "3PMBY0YE28B43VMUKKJ6EDF85RV9C8", "instance": "prb2834", "optimal_length": "7", "human_length": "12", "complete": "True", "start_time": "1.516388375e+12", "end_time": "1.51638838986e+12", "rt": "14860.0", "nodes_expanded": "999", "skipped": "False", "trial_number": "0"}
{"subject": "A191V7PT3DQKDP", "assignment": "3PMBY0YE28B43VMUKKJ6EDF85RV9C8", "instance": "prb62222", "optimal_length": "11", "human_length": "15", "complete": "True", "start_time": "1.51638839762e+12", "end_time": "1.51638841751e+12", "rt": "19894.0", "nodes_expanded": "999", "skipped": "False", "trial_number": "0"}
{"subject": "A191V7PT3DQKDP", "assignment": "3PMBY0YE28B43VMUKKJ6EDF85RV9C8", "instance": "prb45893", "optimal_length": "16", "human_length": "120", "complete": "True", "start_time": "1.51638843103e+12", "end_time": "1.5163885885e+12", "rt": "157464.0", "nodes_expanded": "999", "skipped": "False", "trial_number": "0"}
{"subject": "A394S7JSNUA3TS", "assignment": "3VNL7UK1XGRUQMFI9SEODJ1NWBPTF2", "instance": "prb29600", "optimal_length": "14", "human_length": "35", "complete": "True", "start_time": "1.51638682236e+12", "end_time": "1.51638687300e+12", "rt": "50640.0", "nodes_expanded": "999", "skipped": "False", "trial_number": "0"}
{"subject": "A394S7JSNUA3TS", "assignment": "3VNL7UK1XGRUQMFI9SEODJ1NWBPTF2", "instance": "prb21272", "optimal_length": "7", "human_length": "19", "complete": "True", "start_time": "1.51638687409e+12", "end_time": "1.51638690062e+12", "rt": "26527.0", "nodes_expanded": "999", "skipped": "False", "trial_number": "0"}
{"subject": "A394S7JSNUA3TS", "assignment": "3VNL7UK1XGRUQMFI9SEODJ1NWBPTF2", "instance": "prb3217", "optimal_length": "11", "human_length": "22", "complete": "False", "start_time": "1.51638690152e+12", "end_time": "1.51638692924e+12", "rt": "27721.0", "nodes_expanded": "999", "skipped": "True", "trial_number": "0"}
{"subject": "AU4KK3OYS2UZF", "assignment": "3ZSY5X72NYJBGKFJ46SJ0Y9J0RLROB", "instance": "prb24227", "optimal_length": "16", "human_length": "20", "complete": "True", "start_time": "1.51638746072e+12", "end_time": "1.51638749959e+12", "rt": "38871.0", "nodes_expanded": "999", "skipped": "False", "trial_number": "0"}
{"subject": "AU4KK3OYS2UZF", "assignment": "3ZSY5X72NYJBGKFJ46SJ0Y9J0RLROB", "instance": "prb78361", "optimal_length": "16", "human_length": "75", "complete": "False", "start_time": "1.51638750114e+12", "end_time": "1.5163876441e+12", "rt": "142957.0", "nodes_expanded": "999", "skipped": "False", "trial_number": "0"}
{"subject": "AU4KK3OYS2UZF", "assignment": "3ZSY5X72NYJBGKFJ46SJ0Y9J0RLROB", "instance": "prb78361", "optimal_length": "16", "human_length": "5", "complete": "False", "start_time": "1.51638764813e+12", "end_time": "1.51638765427e+12", "rt": "6134.0", "nodes_expanded": "999", "skipped": "True", "trial_number": "1"}
{"subject": "AU4KK3OYS2UZF", "assignment": "3ZSY5X72NYJBGKFJ46SJ0Y9J0RLROB", "instance": "prb31907", "optimal_length": "11", "human_length": "18", "complete": "True", "start_time": "1.5163876592e+12", "end_time": "1.5163876854e+12", "rt": "26192.0", "nodes_expanded": "999", "skipped": "False", "trial_number": "0"}
{"subject": "AU4KK3OYS2UZF", "assignment": "3ZSY5X72NYJBGKFJ46SJ0Y9J0RLROB", "instance": "prb58853", "optimal_length": "16", "human_length": "15", "complete": "False", "start_time": "1.51638768717e+12", "end_time": "1.51638771386e+12", "rt": "26691.0", "nodes_expanded": "999", "skipped": "False", "trial_number": "0"}
{"subject": "AU4KK3OYS2UZF", "assignment": "3ZSY5X72NYJBGKFJ46SJ0Y9J0RLROB", "instance": "prb58853", "optimal_length": "16", "human_length": "14", "complete": "False", "start_time": "1.51638771714e+12", "end_time": "1.51638774145e+12", "rt": "24311.0", "nodes_expanded": "999", "skipped": "True", "trial_number": "1"}
{"subject": "AU4KK3OYS2UZF", "assignment": "3ZSY5X72NYJBGKFJ46SJ0Y9J0RLROB", "instance": "prb12604", "optimal_length": "7", "human_length": "7", "complete": "True", "start_time": "1.51638775022e+12", "end_time": "1.51638775804e+12", "rt": "7818.0", "nodes_expanded": "999", "skipped": "False", "trial_number": "0"}
{"subject": "AU4KK3OYS2UZF", "assignment": "3ZSY5X72NYJBGKFJ46SJ0Y9J0RLROB", "instance": "prb32795", "optimal_length": "7", "human_length": "12", "complete": "True", "start_time": "1.51638776031e+12", "end_time": "1.51638777667e+12", "rt": "16367.0", "nodes_expanded": "999", "skipped": "False", "trial_number": "0"}
{"subject": "AU4KK3OYS2UZF", "assignment": "3ZSY5X72NYJBGKFJ46SJ0Y9J0RLROB", "instance": "prb34092", "optimal_length": "11", "human_length": "14", "complete": "True", "start_time": "1.51638778367e+12", "end_time": "1.51638780854e+12", "rt": "24875.0", "nodes_expanded": "999", "skipped": "False", "trial_number": "0"}
{"subject": "AU4KK3OYS2UZF", "assignment": "3ZSY5X72NYJBGKFJ46SJ0Y9J0RLROB", "instance": "prb10206", "optimal_length": "7", "human_length": "10", "complete": "True", "start_time": "1.51638781153e+12", "end_time": "1.51638782942e+12", "rt": "17892.0", "nodes_expanded": "999", "skipped": "False", "trial_number": "0"}
{"subject": "AU4KK3OYS2UZF", "assignment": "3ZSY5X72NYJBGKFJ46SJ0Y9J0RLROB", "instance": "prb1707", "optimal_length": "7", "human_length": "7", "complete": "True", "start_time": "1.51638783129e+12", "end_time": "1.51638783911e+12", "rt": "7817.0", "nodes_expanded": "999", "skipped": "False", "trial_number": "0"}
{"subject": "AU4KK3OYS2UZF", "assignment": "3ZSY5X72NYJBGKFJ46SJ0Y9J0RLROB", "instance": "prb42959", "optimal_length": "11", "human_length": "12", "complete": "True", "start_time": "1.51638784307e+12", "end_time": "1.51638786095e+12", "rt": "17882.0", "nodes_expanded": "999", "skipped": "False", "trial_number": "0"}
{"subject": "AU4KK3OYS2UZF", "assignment": "3ZSY5X72NYJBGKFJ46SJ0Y9J0RLROB", "instance": "prb29414", "optimal_length": "11", "human_length": "8", "complete": "False", "start_time": "1.51638786378e+12", "end_time": "1.51638787563e+12", "rt": "11858.0", "nodes_expanded": "999", "skipped": "False", "trial_number": "0"}
{"subject": "AU4KK3OYS2UZF", "assignment": "3ZSY5X72NYJBGKFJ46SJ0Y9J0RLROB", "instance": "prb29414", "optimal_length": "11", "human_length": "2", "complete": "False", "start_time": "1.51638788226e+12", "end_time": "1.51638788536e+12", "rt": "3106.0", "nodes_expanded": "999", "skipped": "False", "trial_number": "1"}
{"subject": "AU4KK3OYS2UZF", "assignment": "3ZSY5X72NYJBGKFJ46SJ0Y9J0RLROB", "instance": "prb29414", "optimal_length": "11", "human_length": "13", "complete": "True", "start_time": "1.51638789656e+12", "end_time": "1.51638791227e+12", "rt": "15710.0", "nodes_expanded": "999", "skipped": "False", "trial_number": "2"}
{"subject": "AU4KK3OYS2UZF", "assignment": "3ZSY5X72NYJBGKFJ46SJ0Y9J0RLROB", "instance": "prb11647", "optimal_length": "7", "human_length": "10", "complete": "True", "start_time": "1.51638791485e+12", "end_time": "1.51638793167e+12", "rt": "16828.0", "nodes_expanded": "999", "skipped": "False", "trial_number": "0"}
{"subject": "AU4KK3OYS2UZF", "assignment": "3ZSY5X72NYJBGKFJ46SJ0Y9J0RLROB", "instance": "prb14898", "optimal_length": "11", "human_length": "29", "complete": "True", "start_time": "1.51638793617e+12", "end_time": "1.51638798924e+12", "rt": "53063.0", "nodes_expanded": "999", "skipped": "False", "trial_number": "0"}
{"subject": "AU4KK3OYS2UZF", "assignment": "3ZSY5X72NYJBGKFJ46SJ0Y9J0RLROB", "instance": "prb3203", "optimal_length": "14", "human_length": "23", "complete": "True", "start_time": "1.51638799745e+12", "end_time": "1.51638802718e+12", "rt": "29733.0", "nodes_expanded": "999", "skipped": "False", "trial_number": "0"}
{"subject": "AU4KK3OYS2UZF", "assignment": "3ZSY5X72NYJBGKFJ46SJ0Y9J0RLROB", "instance": "prb65535", "optimal_length": "14", "human_length": "38", "complete": "True", "start_time": "1.51638803511e+12", "end_time": "1.51638809254e+12", "rt": "57430.0", "nodes_expanded": "999", "skipped": "False", "trial_number": "0"}
{"subject": "AU4KK3OYS2UZF", "assignment": "3ZSY5X72NYJBGKFJ46SJ0Y9J0RLROB", "instance": "prb15290", "optimal_length": "7", "human_length": "1", "complete": "False", "start_time": "1.51638810689e+12", "end_time": "1.51638810689e+12", "rt": "0.0", "nodes_expanded": "999", "skipped": "False", "trial_number": "0"}
{"subject": "AU4KK3OYS2UZF", "assignment": "3ZSY5X72NYJBGKFJ46SJ0Y9J0RLROB", "instance": "prb15290", "optimal_length": "7", "human_length": "5", "complete": "False", "start_time": "1.5163881069e+12", "end_time": "1.51638811556e+12", "rt": "8660.0", "nodes_expanded": "999", "skipped": "False", "trial_number": "1"}
{"subject": "AU4KK3OYS2UZF", "assignment": "3ZSY5X72NYJBGKFJ46SJ0Y9J0RLROB", "instance": "prb15290", "optimal_length": "7", "human_length": "1", "complete": "False", "start_time": "1.5163881283e+12", "end_time": "1.5163881283e+12", "rt": "0.0", "nodes_expanded": "999", "skipped": "False", "trial_number": "2"}
{"subject": "AU4KK3OYS2UZF", "assignment": "3ZSY5X72NYJBGKFJ46SJ0Y9J0RLROB", "instance": "prb15290", "optimal_length": "7", "human_length": "1", "complete": "False", "start_time": "1.51638812831e+12", "end_time": "1.51638812831e+12", "rt": "0.0", "nodes_expanded": "999", "skipped": "False", "trial_number": "3"}
{"subject": "AU4KK3OYS2UZF", "assignment": "3ZSY5X72NYJBGKFJ46SJ0Y9J0RLROB", "instance": "prb15290", "optimal_length": "7", "human_length": "10", "complete": "True", "start_time": "1.51638812848e+12", "end_time": "1.51638813592e+12", "rt": "7440.0", "nodes_expanded": "999", "skipped": "False", "trial_number": "4"}
{"subject": "AU4KK3OYS2UZF", "assignment": "3ZSY5X72NYJBGKFJ46SJ0Y9J0RLROB", "instance": "prb2834", "optimal_length": "7", "human_length": "1", "complete": "False", "start_time": "1.5163881526e+12", "end_time": "1.5163881526e+12", "rt": "0.0", "nodes_expanded": "999", "skipped": "False", "trial_number": "0"}
{"subject": "AU4KK3OYS2UZF", "assignment": "3ZSY5X72NYJBGKFJ46SJ0Y9J0RLROB", "instance": "prb2834", "optimal_length": "7", "human_length": "3", "complete": "False", "start_time": "1.51638815261e+12", "end_time": "1.51638815853e+12", "rt": "5925.0", "nodes_expanded": "999", "skipped": "False", "trial_number": "1"}
{"subject": "AU4KK3OYS2UZF", "assignment": "3ZSY5X72NYJBGKFJ46SJ0Y9J0RLROB", "instance": "prb2834", "optimal_length": "7", "human_length": "7", "complete": "True", "start_time": "1.51638816992e+12", "end_time": "1.51638817429e+12", "rt": "4369.0", "nodes_expanded": "999", "skipped": "False", "trial_number": "2"}
{"subject": "AU4KK3OYS2UZF", "assignment": "3ZSY5X72NYJBGKFJ46SJ0Y9J0RLROB", "instance": "prb3217", "optimal_length": "11", "human_length": "1", "complete": "False", "start_time": "1.51638819145e+12", "end_time": "1.51638819145e+12", "rt": "0.0", "nodes_expanded": "999", "skipped": "False", "trial_number": "0"}
{"subject": "AU4KK3OYS2UZF", "assignment": "3ZSY5X72NYJBGKFJ46SJ0Y9J0RLROB", "instance": "prb3217", "optimal_length": "11", "human_length": "1", "complete": "False", "start_time": "1.51638819146e+12", "end_time": "1.51638819146e+12", "rt": "0.0", "nodes_expanded": "999", "skipped": "False", "trial_number": "1"}
{"subject": "AU4KK3OYS2UZF", "assignment": "3ZSY5X72NYJBGKFJ46SJ0Y9J0RLROB", "instance": "prb3217", "optimal_length": "11", "human_length": "3", "complete": "False", "start_time": "1.51638819147e+12", "end_time": "1.51638819627e+12", "rt": "4796.0", "nodes_expanded": "999", "skipped": "False", "trial_number": "2"}
{"subject": "AU4KK3OYS2UZF", "assignment": "3ZSY5X72NYJBGKFJ46SJ0Y9J0RLROB", "instance": "prb3217", "optimal_length": "11", "human_length": "17", "complete": "True", "start_time": "1.51638820204e+12", "end_time": "1.51638822707e+12", "rt": "25024.0", "nodes_expanded": "999", "skipped": "False", "trial_number": "3"}
{"subject": "AU4KK3OYS2UZF", "assignment": "3ZSY5X72NYJBGKFJ46SJ0Y9J0RLROB", "instance": "prb22436", "optimal_length": "11", "human_length": "1", "complete": "False", "start_time": "1.51638824452e+12", "end_time": "1.51638824452e+12", "rt": "0.0", "nodes_expanded": "999", "skipped": "False", "trial_number": "0"}
{"subject": "AU4KK3OYS2UZF", "assignment": "3ZSY5X72NYJBGKFJ46SJ0Y9J0RLROB", "instance": "prb22436", "optimal_length": "11", "human_length": "1", "complete": "False", "start_time": "1.51638824453e+12", "end_time": "1.51638824453e+12", "rt": "0.0", "nodes_expanded": "999", "skipped": "False", "trial_number": "1"}
{"subject": "AU4KK3OYS2UZF", "assignment": "3ZSY5X72NYJBGKFJ46SJ0Y9J0RLROB", "instance": "prb22436", "optimal_length": "11", "human_length": "2", "complete": "False", "start_time": "1.51638824454e+12", "end_time": "1.51638825447e+12", "rt": "9930.0", "nodes_expanded": "999", "skipped": "False", "trial_number": "2"}
{"subject": "AU4KK3OYS2UZF", "assignment": "3ZSY5X72NYJBGKFJ46SJ0Y9J0RLROB", "instance": "prb22436", "optimal_length": "11", "human_length": "11", "complete": "True", "start_time": "1.51638825899e+12", "end_time": "1.51638827162e+12", "rt": "12628.0", "nodes_expanded": "999", "skipped": "False", "trial_number": "3"}
{"subject": "AU4KK3OYS2UZF", "assignment": "3ZSY5X72NYJBGKFJ46SJ0Y9J0RLROB", "instance": "prb62222", "optimal_length": "11", "human_length": "1", "complete": "False", "start_time": "1.51638828104e+12", "end_time": "1.51638828104e+12", "rt": "0.0", "nodes_expanded": "999", "skipped": "False", "trial_number": "0"}
{"subject": "AU4KK3OYS2UZF", "assignment": "3ZSY5X72NYJBGKFJ46SJ0Y9J0RLROB", "instance": "prb62222", "optimal_length": "11", "human_length": "2", "complete": "False", "start_time": "1.51638828105e+12", "end_time": "1.51638828348e+12", "rt": "2434.0", "nodes_expanded": "999", "skipped": "False", "trial_number": "1"}
{"subject": "AU4KK3OYS2UZF", "assignment": "3ZSY5X72NYJBGKFJ46SJ0Y9J0RLROB", "instance": "prb62222", "optimal_length": "11", "human_length": "14", "complete": "True", "start_time": "1.51638828406e+12", "end_time": "1.5163883e+12", "rt": "15941.0", "nodes_expanded": "999", "skipped": "False", "trial_number": "2"}
{"subject": "AU4KK3OYS2UZF", "assignment": "3ZSY5X72NYJBGKFJ46SJ0Y9J0RLROB", "instance": "prb68910", "optimal_length": "11", "human_length": "1", "complete": "False", "start_time": "1.51638832212e+12", "end_time": "1.51638832212e+12", "rt": "0.0", "nodes_expanded": "999", "skipped": "False", "trial_number": "0"}
{"subject": "AU4KK3OYS2UZF", "assignment": "3ZSY5X72NYJBGKFJ46SJ0Y9J0RLROB", "instance": "prb68910", "optimal_length": "11", "human_length": "2", "complete": "False", "start_time": "1.51638832214e+12", "end_time": "1.51638832559e+12", "rt": "3446.0", "nodes_expanded": "999", "skipped": "False", "trial_number": "1"}
{"subject": "AU4KK3OYS2UZF", "assignment": "3ZSY5X72NYJBGKFJ46SJ0Y9J0RLROB", "instance": "prb68910", "optimal_length": "11", "human_length": "27", "complete": "False", "start_time": "1.516388327e+12", "end_time": "1.51638836735e+12", "rt": "40347.0", "nodes_expanded": "999", "skipped": "False", "trial_number": "2"}
{"subject": "AU4KK3OYS2UZF", "assignment": "3ZSY5X72NYJBGKFJ46SJ0Y9J0RLROB", "instance": "prb68910", "optimal_length": "11", "human_length": "1", "complete": "False", "start_time": "1.51638839388e+12", "end_time": "1.51638839388e+12", "rt": "0.0", "nodes_expanded": "999", "skipped": "False", "trial_number": "3"}
{"subject": "AU4KK3OYS2UZF", "assignment": "3ZSY5X72NYJBGKFJ46SJ0Y9J0RLROB", "instance": "prb68910", "optimal_length": "11", "human_length": "2", "complete": "False", "start_time": "1.5163883939e+12", "end_time": "1.51638840211e+12", "rt": "8203.0", "nodes_expanded": "999", "skipped": "False", "trial_number": "4"}
{"subject": "AU4KK3OYS2UZF", "assignment": "3ZSY5X72NYJBGKFJ46SJ0Y9J0RLROB", "instance": "prb68910", "optimal_length": "11", "human_length": "12", "complete": "True", "start_time": "1.51638840372e+12", "end_time": "1.51638841441e+12", "rt": "10691.0", "nodes_expanded": "999", "skipped": "False", "trial_number": "5"}
{"subject": "AU4KK3OYS2UZF", "assignment": "3ZSY5X72NYJBGKFJ46SJ0Y9J0RLROB", "instance": "prb8786", "optimal_length": "7", "human_length": "1", "complete": "False", "start_time": "1.5163884338e+12", "end_time": "1.5163884338e+12", "rt": "0.0", "nodes_expanded": "999", "skipped": "False", "trial_number": "0"}
{"subject": "AU4KK3OYS2UZF", "assignment": "3ZSY5X72NYJBGKFJ46SJ0Y9J0RLROB", "instance": "prb8786", "optimal_length": "7", "human_length": "1", "complete": "False", "start_time": "1.51638843382e+12", "end_time": "1.51638843382e+12", "rt": "0.0", "nodes_expanded": "999", "skipped": "False", "trial_number": "1"}
{"subject": "AU4KK3OYS2UZF", "assignment": "3ZSY5X72NYJBGKFJ46SJ0Y9J0RLROB", "instance": "prb8786", "optimal_length": "7", "human_length": "1", "complete": "False", "start_time": "1.51638843383e+12", "end_time": "1.51638843383e+12", "rt": "0.0", "nodes_expanded": "999", "skipped": "False", "trial_number": "2"}
{"subject": "AU4KK3OYS2UZF", "assignment": "3ZSY5X72NYJBGKFJ46SJ0Y9J0RLROB", "instance": "prb8786", "optimal_length": "7", "human_length": "1", "complete": "False", "start_time": "1.51638843385e+12", "end_time": "1.51638843385e+12", "rt": "0.0", "nodes_expanded": "999", "skipped": "False", "trial_number": "3"}
{"subject": "AU4KK3OYS2UZF", "assignment": "3ZSY5X72NYJBGKFJ46SJ0Y9J0RLROB", "instance": "prb8786", "optimal_length": "7", "human_length": "1", "complete": "False", "start_time": "1.51638843387e+12", "end_time": "1.51638843387e+12", "rt": "0.0", "nodes_expanded": "999", "skipped": "False", "trial_number": "4"}
{"subject": "AU4KK3OYS2UZF", "assignment": "3ZSY5X72NYJBGKFJ46SJ0Y9J0RLROB", "instance": "prb8786", "optimal_length": "7", "human_length": "1", "complete": "False", "start_time": "1.51638843389e+12", "end_time": "1.51638843389e+12", "rt": "0.0", "nodes_expanded": "999", "skipped": "False", "trial_number": "5"}
{"subject": "AU4KK3OYS2UZF", "assignment": "3ZSY5X72NYJBGKFJ46SJ0Y9J0RLROB", "instance": "prb8786", "optimal_length": "7", "human_length": "1", "complete": "False", "start_time": "1.51638843392e+12", "end_time": "1.51638843392e+12", "rt": "0.0", "nodes_expanded": "999", "skipped": "False", "trial_number": "6"}
{"subject": "AU4KK3OYS2UZF", "assignment": "3ZSY5X72NYJBGKFJ46SJ0Y9J0RLROB", "instance": "prb8786", "optimal_length": "7", "human_length": "1", "complete": "False", "start_time": "1.51638843393e+12", "end_time": "1.51638843393e+12", "rt": "0.0", "nodes_expanded": "999", "skipped": "False", "trial_number": "7"}
{"subject": "AU4KK3OYS2UZF", "assignment": "3ZSY5X72NYJBGKFJ46SJ0Y9J0RLROB", "instance": "prb8786", "optimal_length": "7", "human_length": "1", "complete": "False", "start_time": "1.51638843395e+12", "end_time": "1.51638843395e+12", "rt": "0.0", "nodes_expanded": "999", "skipped": "False", "trial_number": "8"}
{"subject": "AU4KK3OYS2UZF", "assignment": "3ZSY5X72NYJBGKFJ46SJ0Y9J0RLROB", "instance": "prb8786", "optimal_length": "7", "human_length": "1", "complete": "False", "start_time": "1.51638843398e+12", "end_time": "1.51638843398e+12", "rt": "0.0", "nodes_expanded": "999", "skipped": "False", "trial_number": "9"}
{"subject": "AU4KK3OYS2UZF", "assignment": "3ZSY5X72NYJBGKFJ46SJ0Y9J0RLROB", "instance": "prb8786", "optimal_length": "7", "human_length": "1", "complete": "False", "start_time": "1.516388434e+12", "end_time": "1.516388434e+12", "rt": "0.0", "nodes_expanded": "999", "skipped": "False", "trial_number": "10"}
{"subject": "AU4KK3OYS2UZF", "assignment": "3ZSY5X72NYJBGKFJ46SJ0Y9J0RLROB", "instance": "prb8786", "optimal_length": "7", "human_length": "7", "complete": "True", "start_time": "1.51638843918e+12", "end_time": "1.51638844549e+12", "rt": "6315.0", "nodes_expanded": "999", "skipped": "False", "trial_number": "11"}
{"subject": "A3VZJ2T28HAQ2A", "assignment": "3VBEN272ML7ZPMYYVCFGLZ5DV7CGS0", "instance": "prb1267", "optimal_length": "16", "human_length": "30", "complete": "False", "start_time": "1.5163874961e+12", "end_time": "1.51638755394e+12", "rt": "57847.0", "nodes_expanded": "999", "skipped": "False", "trial_number": "0"}
{"subject": "A3VZJ2T28HAQ2A", "assignment": "3VBEN272ML7ZPMYYVCFGLZ5DV7CGS0", "instance": "prb1267", "optimal_length": "16", "human_length": "16", "complete": "False", "start_time": "1.51638755508e+12", "end_time": "1.5163875928e+12", "rt": "37722.0", "nodes_expanded": "999", "skipped": "True", "trial_number": "1"}
{"subject": "A3VZJ2T28HAQ2A", "assignment": "3VBEN272ML7ZPMYYVCFGLZ5DV7CGS0", "instance": "prb10166", "optimal_length": "16", "human_length": "47", "complete": "False", "start_time": "1.51638759410e+12", "end_time": "1.51638767815e+12", "rt": "84041.0", "nodes_expanded": "999", "skipped": "True", "trial_number": "0"}
{"subject": "A3VZJ2T28HAQ2A", "assignment": "3VBEN272ML7ZPMYYVCFGLZ5DV7CGS0", "instance": "prb57223", "optimal_length": "16", "human_length": "35", "complete": "True", "start_time": "1.51638767976e+12", "end_time": "1.51638772189e+12", "rt": "42129.0", "nodes_expanded": "999", "skipped": "False", "trial_number": "0"}
{"subject": "A3VZJ2T28HAQ2A", "assignment": "3VBEN272ML7ZPMYYVCFGLZ5DV7CGS0", "instance": "prb29414", "optimal_length": "11", "human_length": "2", "complete": "False", "start_time": "1.51638774884e+12", "end_time": "1.5163877513e+12", "rt": "2463.0", "nodes_expanded": "999", "skipped": "False", "trial_number": "0"}
{"subject": "A3VZJ2T28HAQ2A", "assignment": "3VBEN272ML7ZPMYYVCFGLZ5DV7CGS0", "instance": "prb29414", "optimal_length": "11", "human_length": "5", "complete": "False", "start_time": "1.51638775165e+12", "end_time": "1.5163877609e+12", "rt": "9251.0", "nodes_expanded": "999", "skipped": "True", "trial_number": "1"}
{"subject": "A3VZJ2T28HAQ2A", "assignment": "3VBEN272ML7ZPMYYVCFGLZ5DV7CGS0", "instance": "prb32695", "optimal_length": "7", "human_length": "11", "complete": "True", "start_time": "1.51638778108e+12", "end_time": "1.51638780765e+12", "rt": "26569.0", "nodes_expanded": "999", "skipped": "False", "trial_number": "0"}
{"subject": "A3VZJ2T28HAQ2A", "assignment": "3VBEN272ML7ZPMYYVCFGLZ5DV7CGS0", "instance": "prb78361", "optimal_length": "16", "human_length": "38", "complete": "True", "start_time": "1.51638781221e+12", "end_time": "1.51638786374e+12", "rt": "51529.0", "nodes_expanded": "999", "skipped": "False", "trial_number": "0"}
{"subject": "A3VZJ2T28HAQ2A", "assignment": "3VBEN272ML7ZPMYYVCFGLZ5DV7CGS0", "instance": "prb12604", "optimal_length": "7", "human_length": "11", "complete": "True", "start_time": "1.5163878924e+12", "end_time": "1.51638792046e+12", "rt": "28060.0", "nodes_expanded": "999", "skipped": "False", "trial_number": "0"}
{"subject": "A3VZJ2T28HAQ2A", "assignment": "3VBEN272ML7ZPMYYVCFGLZ5DV7CGS0", "instance": "prb14485", "optimal_length": "14", "human_length": "67", "complete": "False", "start_time": "1.51638793341e+12", "end_time": "1.51638813933e+12", "rt": "205925.0", "nodes_expanded": "999", "skipped": "False", "trial_number": "0"}
{"subject": "A3VZJ2T28HAQ2A", "assignment": "3VBEN272ML7ZPMYYVCFGLZ5DV7CGS0", "instance": "prb14485", "optimal_length": "14", "human_length": "58", "complete": "True", "start_time": "1.51638825709e+12", "end_time": "1.5163883671e+12", "rt": "110013.0", "nodes_expanded": "999", "skipped": "False", "trial_number": "1"}
{"subject": "A3VZJ2T28HAQ2A", "assignment": "3VBEN272ML7ZPMYYVCFGLZ5DV7CGS0", "instance": "prb343", "optimal_length": "14", "human_length": "36", "complete": "True", "start_time": "1.51638849525e+12", "end_time": "1.51638859752e+12", "rt": "102270.0", "nodes_expanded": "999", "skipped": "False", "trial_number": "0"}
{"subject": "A3VZJ2T28HAQ2A", "assignment": "3VBEN272ML7ZPMYYVCFGLZ5DV7CGS0", "instance": "prb3217", "optimal_length": "11", "human_length": "51", "complete": "True", "start_time": "1.51638869316e+12", "end_time": "1.51638880811e+12", "rt": "114957.0", "nodes_expanded": "999", "skipped": "False", "trial_number": "0"}
{"subject": "A3VZJ2T28HAQ2A", "assignment": "3VBEN272ML7ZPMYYVCFGLZ5DV7CGS0", "instance": "prb25861", "optimal_length": "16", "human_length": "187", "complete": "False", "start_time": "1.51638895215e+12", "end_time": "1.51639033318e+12", "rt": "1381027.0", "nodes_expanded": "999", "skipped": "True", "trial_number": "0"}
{"subject": "A3VZJ2T28HAQ2A", "assignment": "3VBEN272ML7ZPMYYVCFGLZ5DV7CGS0", "instance": "prb79230", "optimal_length": "11", "human_length": "10", "complete": "False", "start_time": "1.51639095451e+12", "end_time": "1.51639098839e+12", "rt": "33883.0", "nodes_expanded": "999", "skipped": "True", "trial_number": "0"}
{"subject": "A2MYB6MLQW0IGN", "assignment": "3TYCR1GOTDRCCQYD1V64UK7OE48LZS", "instance": "prb33117", "optimal_length": "14", "human_length": "54", "complete": "False", "start_time": "1.51638881092e+12", "end_time": "1.51638900072e+12", "rt": "189797.0", "nodes_expanded": "999", "skipped": "False", "trial_number": "0"}
{"subject": "A2MYB6MLQW0IGN", "assignment": "3TYCR1GOTDRCCQYD1V64UK7OE48LZS", "instance": "prb33117", "optimal_length": "14", "human_length": "22", "complete": "True", "start_time": "1.51638900319e+12", "end_time": "1.51638904399e+12", "rt": "40793.0", "nodes_expanded": "999", "skipped": "False", "trial_number": "1"}
{"subject": "A2MYB6MLQW0IGN", "assignment": "3TYCR1GOTDRCCQYD1V64UK7OE48LZS", "instance": "prb62015", "optimal_length": "11", "human_length": "22", "complete": "True", "start_time": "1.51638904806e+12", "end_time": "1.51638909887e+12", "rt": "50810.0", "nodes_expanded": "999", "skipped": "False", "trial_number": "0"}
{"subject": "A2MYB6MLQW0IGN", "assignment": "3TYCR1GOTDRCCQYD1V64UK7OE48LZS", "instance": "prb24406", "optimal_length": "16", "human_length": "42", "complete": "True", "start_time": "1.51638909973e+12", "end_time": "1.51638917784e+12", "rt": "78111.0", "nodes_expanded": "999", "skipped": "False", "trial_number": "0"}
{"subject": "A2MYB6MLQW0IGN", "assignment": "3TYCR1GOTDRCCQYD1V64UK7OE48LZS", "instance": "prb22436", "optimal_length": "11", "human_length": "42", "complete": "True", "start_time": "1.51638917898e+12", "end_time": "1.5163892848e+12", "rt": "105821.0", "nodes_expanded": "999", "skipped": "False", "trial_number": "0"}
{"subject": "A2MYB6MLQW0IGN", "assignment": "3TYCR1GOTDRCCQYD1V64UK7OE48LZS", "instance": "prb54081", "optimal_length": "11", "human_length": "15", "complete": "True", "start_time": "1.51638928553e+12", "end_time": "1.51638931449e+12", "rt": "28959.0", "nodes_expanded": "999", "skipped": "False", "trial_number": "0"}
{"subject": "A2MYB6MLQW0IGN", "assignment": "3TYCR1GOTDRCCQYD1V64UK7OE48LZS", "instance": "prb1707", "optimal_length": "7", "human_length": "16", "complete": "True", "start_time": "1.51638931549e+12", "end_time": "1.51638934385e+12", "rt": "28367.0", "nodes_expanded": "999", "skipped": "False", "trial_number": "0"}
{"subject": "A2MYB6MLQW0IGN", "assignment": "3TYCR1GOTDRCCQYD1V64UK7OE48LZS", "instance": "prb65535", "optimal_length": "14", "human_length": "63", "complete": "True", "start_time": "1.51638934492e+12", "end_time": "1.51638948713e+12", "rt": "142208.0", "nodes_expanded": "999", "skipped": "False", "trial_number": "0"}
{"subject": "A2MYB6MLQW0IGN", "assignment": "3TYCR1GOTDRCCQYD1V64UK7OE48LZS", "instance": "prb26567", "optimal_length": "7", "human_length": "25", "complete": "True", "start_time": "1.51638948802e+12", "end_time": "1.51638953397e+12", "rt": "45949.0", "nodes_expanded": "999", "skipped": "False", "trial_number": "0"}
{"subject": "A2MYB6MLQW0IGN", "assignment": "3TYCR1GOTDRCCQYD1V64UK7OE48LZS", "instance": "prb14651", "optimal_length": "7", "human_length": "8", "complete": "True", "start_time": "1.51638953496e+12", "end_time": "1.51638955161e+12", "rt": "16651.0", "nodes_expanded": "999", "skipped": "False", "trial_number": "0"}
{"subject": "A2MYB6MLQW0IGN", "assignment": "3TYCR1GOTDRCCQYD1V64UK7OE48LZS", "instance": "prb32795", "optimal_length": "7", "human_length": "17", "complete": "True", "start_time": "1.51638955254e+12", "end_time": "1.51638958393e+12", "rt": "31389.0", "nodes_expanded": "999", "skipped": "False", "trial_number": "0"}
{"subject": "A2MYB6MLQW0IGN", "assignment": "3TYCR1GOTDRCCQYD1V64UK7OE48LZS", "instance": "prb3203", "optimal_length": "14", "human_length": "39", "complete": "False", "start_time": "1.51638958489e+12", "end_time": "1.51638965884e+12", "rt": "73951.0", "nodes_expanded": "999", "skipped": "False", "trial_number": "0"}
{"subject": "A2MYB6MLQW0IGN", "assignment": "3TYCR1GOTDRCCQYD1V64UK7OE48LZS", "instance": "prb3203", "optimal_length": "14", "human_length": "1", "complete": "False", "start_time": "1.51638966568e+12", "end_time": "1.51638966568e+12", "rt": "0.0", "nodes_expanded": "999", "skipped": "False", "trial_number": "1"}
{"subject": "A2MYB6MLQW0IGN", "assignment": "3TYCR1GOTDRCCQYD1V64UK7OE48LZS", "instance": "prb3203", "optimal_length": "14", "human_length": "3", "complete": "False", "start_time": "1.5163896657e+12", "end_time": "1.51638967286e+12", "rt": "7166.0", "nodes_expanded": "999", "skipped": "False", "trial_number": "2"}
{"subject": "A2MYB6MLQW0IGN", "assignment": "3TYCR1GOTDRCCQYD1V64UK7OE48LZS", "instance": "prb3203", "optimal_length": "14", "human_length": "1", "complete": "False", "start_time": "1.51638968657e+12", "end_time": "1.51638968657e+12", "rt": "0.0", "nodes_expanded": "999", "skipped": "False", "trial_number": "3"}
{"subject": "A2MYB6MLQW0IGN", "assignment": "3TYCR1GOTDRCCQYD1V64UK7OE48LZS", "instance": "prb3203", "optimal_length": "14", "human_length": "5", "complete": "False", "start_time": "1.5163896866e+12", "end_time": "1.51638970728e+12", "rt": "20680.0", "nodes_expanded": "999", "skipped": "False", "trial_number": "4"}
{"subject": "A2MYB6MLQW0IGN", "assignment": "3TYCR1GOTDRCCQYD1V64UK7OE48LZS", "instance": "prb3203", "optimal_length": "14", "human_length": "31", "complete": "True", "start_time": "1.51638971009e+12", "end_time": "1.51638977605e+12", "rt": "65962.0", "nodes_expanded": "999", "skipped": "False", "trial_number": "5"}
{"subject": "A2MYB6MLQW0IGN", "assignment": "3TYCR1GOTDRCCQYD1V64UK7OE48LZS", "instance": "prb48146", "optimal_length": "16", "human_length": "46", "complete": "True", "start_time": "1.51638978143e+12", "end_time": "1.51638988576e+12", "rt": "104325.0", "nodes_expanded": "999", "skipped": "False", "trial_number": "0"}
{"subject": "A2MYB6MLQW0IGN", "assignment": "3TYCR1GOTDRCCQYD1V64UK7OE48LZS", "instance": "prb57223", "optimal_length": "16", "human_length": "112", "complete": "True", "start_time": "1.51638988666e+12", "end_time": "1.51639015023e+12", "rt": "263571.0", "nodes_expanded": "999", "skipped": "False", "trial_number": "0"}
{"subject": "A2MYB6MLQW0IGN", "assignment": "3TYCR1GOTDRCCQYD1V64UK7OE48LZS", "instance": "prb38526", "optimal_length": "11", "human_length": "14", "complete": "True", "start_time": "1.51639015144e+12", "end_time": "1.51639017178e+12", "rt": "20346.0", "nodes_expanded": "999", "skipped": "False", "trial_number": "0"}
{"subject": "A2MYB6MLQW0IGN", "assignment": "3TYCR1GOTDRCCQYD1V64UK7OE48LZS", "instance": "prb58853", "optimal_length": "16", "human_length": "134", "complete": "True", "start_time": "1.51639017498e+12", "end_time": "1.51639047593e+12", "rt": "300958.0", "nodes_expanded": "999", "skipped": "False", "trial_number": "0"}
{"subject": "A2MYB6MLQW0IGN", "assignment": "3TYCR1GOTDRCCQYD1V64UK7OE48LZS", "instance": "prb68514", "optimal_length": "14", "human_length": "23", "complete": "True", "start_time": "1.51639049106e+12", "end_time": "1.51639053019e+12", "rt": "39131.0", "nodes_expanded": "999", "skipped": "False", "trial_number": "0"}
{"subject": "A2MYB6MLQW0IGN", "assignment": "3TYCR1GOTDRCCQYD1V64UK7OE48LZS", "instance": "prb14898", "optimal_length": "11", "human_length": "12", "complete": "True", "start_time": "1.516390542e+12", "end_time": "1.5163905595e+12", "rt": "17497.0", "nodes_expanded": "999", "skipped": "False", "trial_number": "0"}
{"subject": "A2MYB6MLQW0IGN", "assignment": "3TYCR1GOTDRCCQYD1V64UK7OE48LZS", "instance": "prb29414", "optimal_length": "11", "human_length": "14", "complete": "True", "start_time": "1.51639057284e+12", "end_time": "1.51639060659e+12", "rt": "33750.0", "nodes_expanded": "999", "skipped": "False", "trial_number": "0"}
{"subject": "A2MYB6MLQW0IGN", "assignment": "3TYCR1GOTDRCCQYD1V64UK7OE48LZS", "instance": "prb13171", "optimal_length": "7", "human_length": "9", "complete": "True", "start_time": "1.51639060920e+12", "end_time": "1.51639061915e+12", "rt": "9942.0", "nodes_expanded": "999", "skipped": "False", "trial_number": "0"}
{"subject": "A2MYB6MLQW0IGN", "assignment": "3TYCR1GOTDRCCQYD1V64UK7OE48LZS", "instance": "prb46580", "optimal_length": "16", "human_length": "98", "complete": "True", "start_time": "1.51639062779e+12", "end_time": "1.51639081454e+12", "rt": "186747.0", "nodes_expanded": "999", "skipped": "False", "trial_number": "0"}
{"subject": "A2MYB6MLQW0IGN", "assignment": "3TYCR1GOTDRCCQYD1V64UK7OE48LZS", "instance": "prb55384", "optimal_length": "14", "human_length": "24", "complete": "True", "start_time": "1.5163908369e+12", "end_time": "1.51639087866e+12", "rt": "41757.0", "nodes_expanded": "999", "skipped": "False", "trial_number": "0"}
{"subject": "A2MYB6MLQW0IGN", "assignment": "3TYCR1GOTDRCCQYD1V64UK7OE48LZS", "instance": "prb29600", "optimal_length": "14", "human_length": "22", "complete": "True", "start_time": "1.51639088963e+12", "end_time": "1.51639093504e+12", "rt": "45417.0", "nodes_expanded": "999", "skipped": "False", "trial_number": "0"}
{"subject": "A2MYB6MLQW0IGN", "assignment": "3TYCR1GOTDRCCQYD1V64UK7OE48LZS", "instance": "prb38725", "optimal_length": "14", "human_length": "46", "complete": "True", "start_time": "1.51639095114e+12", "end_time": "1.51639102708e+12", "rt": "75947.0", "nodes_expanded": "999", "skipped": "False", "trial_number": "0"}
{"subject": "A2MYB6MLQW0IGN", "assignment": "3TYCR1GOTDRCCQYD1V64UK7OE48LZS", "instance": "prb62222", "optimal_length": "11", "human_length": "32", "complete": "True", "start_time": "1.51639102972e+12", "end_time": "1.51639109248e+12", "rt": "62762.0", "nodes_expanded": "999", "skipped": "False", "trial_number": "0"}
{"subject": "A2MYB6MLQW0IGN", "assignment": "3TYCR1GOTDRCCQYD1V64UK7OE48LZS", "instance": "prb1267", "optimal_length": "16", "human_length": "133", "complete": "True", "start_time": "1.5163911019e+12", "end_time": "1.51639135555e+12", "rt": "253650.0", "nodes_expanded": "999", "skipped": "False", "trial_number": "0"}
{"subject": "A2MYB6MLQW0IGN", "assignment": "3TYCR1GOTDRCCQYD1V64UK7OE48LZS", "instance": "prb29027", "optimal_length": "16", "human_length": "31", "complete": "True", "start_time": "1.51639141088e+12", "end_time": "1.51639146581e+12", "rt": "54933.0", "nodes_expanded": "999", "skipped": "False", "trial_number": "0"}
