{"rt": "11166.0", "trial_number": "0", "skipped": "True", "complete": "False", "assignment": "3TYCR1GOTDRCCQYD1V64UK7OHTBZLQ", "start_time": "1.51753730442e+12", "human_length": "10", "nodes_expanded": "999", "instance": "prb15595", "end_time": "1.51753731558e+12", "optimal_length": "16", "subject": "A13BZCNJ0WR1T7"}
{"rt": "79714.0", "trial_number": "0", "skipped": "False", "complete": "True", "assignment": "3TS1AR6UQRM7SOIBWPBN8N9589Y7FV", "start_time": "1.51684382863e+12", "human_length": "55", "nodes_expanded": "999", "instance": "prb15595", "end_time": "1.51684390834e+12", "optimal_length": "16", "subject": "A15FXHC1CVNW31"}
{"rt": "66805.0", "trial_number": "0", "skipped": "False", "complete": "True", "assignment": "3PMBY0YE28B43VMUKKJ6EDF85RV9C8", "start_time": "1.516386371e+12", "human_length": "44", "nodes_expanded": "999", "instance": "prb15595", "end_time": "1.51638643781e+12", "optimal_length": "16", "subject": "A191V7PT3DQKDP"}
{"rt": "45829.0", "trial_number": "0", "skipped": "False", "complete": "True", "assignment": "3H0W84IWBLAP4T2UASPNVMF5ZH7ER9", "start_time": "1.51755343914e+12", "human_length": "43", "nodes_expanded": "999", "instance": "prb15595", "end_time": "1.51755348497e+12", "optimal_length": "16", "subject": "A1AKX1C8GCVCTP"}
{"rt": "41086.0", "trial_number": "0", "skipped": "False", "complete": "True", "assignment": "3ZSANO2JCGFTBM23KS9Y3E51YP4FSQ", "start_time": "1.51814353974e+12", "human_length": "43", "nodes_expanded": "999", "instance": "prb15595", "end_time": "1.51814358083e+12", "optimal_length": "16", "subject": "A1F42D4L22K5ND"}
{"rt": "57648.0", "trial_number": "0", "skipped": "False", "complete": "False", "assignment": "3TS1AR6UQRM7SOIBWPBN8N9589Y7FV", "start_time": "1.51684004053e+12", "human_length": "43", "nodes_expanded": "999", "instance": "prb15595", "end_time": "1.51684009818e+12", "optimal_length": "16", "subject": "A1F4N58CAX8IMK"}
{"rt": "30635.0", "trial_number": "1", "skipped": "False", "complete": "True", "assignment": "35DR22AR5ES6RR89U7EJ1DXW91AX3P", "start_time": "1.51795241492e+12", "human_length": "27", "nodes_expanded": "999", "instance": "prb15595", "end_time": "1.51795244555e+12", "optimal_length": "16", "subject": "A1F4N58CAX8IMK"}
{"rt": "84279.0", "trial_number": "0", "skipped": "False", "complete": "True", "assignment": "33F859I567LE8WC74WB3GA7E94XBHW", "start_time": "1.51797047412e+12", "human_length": "56", "nodes_expanded": "999", "instance": "prb15595", "end_time": "1.5179705584e+12", "optimal_length": "16", "subject": "A1GQS6USF2JEYG"}
{"rt": "32591.0", "trial_number": "0", "skipped": "False", "complete": "True", "assignment": "3XLBSAQ9Z5KDX59BX15UBFPNNHYZ7Q", "start_time": "1.51814747923e+12", "human_length": "33", "nodes_expanded": "999", "instance": "prb15595", "end_time": "1.51814751182e+12", "optimal_length": "16", "subject": "A1HFNOKU591WCY"}
{"rt": "50361.0", "trial_number": "0", "skipped": "False", "complete": "True", "assignment": "3FTF2T8WLSQDHTSZ1BJ7Q7MB14SW9H", "start_time": "1.5181369434e+12", "human_length": "31", "nodes_expanded": "999", "instance": "prb15595", "end_time": "1.51813699376e+12", "optimal_length": "16", "subject": "A1IUH9D7N69VS"}
{"rt": "17891.0", "trial_number": "0", "skipped": "True", "complete": "False", "assignment": "3YW4XOSQKRTI0K0Z2YPDTDJVFABU1I", "start_time": "1.51683378568e+12", "human_length": "9", "nodes_expanded": "999", "instance": "prb15595", "end_time": "1.51683380358e+12", "optimal_length": "16", "subject": "A1LR0VQIHQUJAM"}
{"rt": "22526.0", "trial_number": "0", "skipped": "False", "complete": "True", "assignment": "3R5F3LQFV3SKIB1AENMWM1BICT5OZB", "start_time": "1.51795845333e+12", "human_length": "22", "nodes_expanded": "999", "instance": "prb15595", "end_time": "1.51795847586e+12", "optimal_length": "16", "subject": "A1N1EF0MIRSEZZ"}
{"rt": "17767.0", "trial_number": "0", "skipped": "True", "complete": "False", "assignment": "31LM9EDVOM0C0BWUVMJXJINN3QPJNI", "start_time": "1.51752326967e+12", "human_length": "8", "nodes_expanded": "999", "instance": "prb15595", "end_time": "1.51752328744e+12", "optimal_length": "16", "subject": "A1NT8BT94ME6F5"}
{"rt": "37029.0", "trial_number": "0", "skipped": "False", "complete": "True", "assignment": "3SB5N7Y3O4CZODEMMAWWBTZU4C90GB", "start_time": "1.5181389903e+12", "human_length": "26", "nodes_expanded": "999", "instance": "prb15595", "end_time": "1.51813902733e+12", "optimal_length": "16", "subject": "A1RVMADIZE3BXK"}
{"rt": "46706.0", "trial_number": "0", "skipped": "False", "complete": "True", "assignment": "3M0BCWMB8W4W5M7WZVX3HDH1M3FBWL", "start_time": "1.51683907499e+12", "human_length": "20", "nodes_expanded": "999", "instance": "prb15595", "end_time": "1.51683912169e+12", "optimal_length": "16", "subject": "A1XDMS0KFSF5JW"}
{"rt": "67314.0", "trial_number": "0", "skipped": "False", "complete": "False", "assignment": "3XC1O3LBOTUGQEPEV3HM8W67X4RTLL", "start_time": "1.51813587901e+12", "human_length": "28", "nodes_expanded": "999", "instance": "prb15595", "end_time": "1.51813594633e+12", "optimal_length": "16", "subject": "A1ZTSCPETU3UJW"}
{"rt": "31571.0", "trial_number": "1", "skipped": "True", "complete": "False", "assignment": "3XC1O3LBOTUGQEPEV3HM8W67X4RTLL", "start_time": "1.51813594825e+12", "human_length": "18", "nodes_expanded": "999", "instance": "prb15595", "end_time": "1.51813597982e+12", "optimal_length": "16", "subject": "A1ZTSCPETU3UJW"}
{"rt": "31092.0", "trial_number": "0", "skipped": "False", "complete": "True", "assignment": "34BBWHLWHBJ6SUL255PK30LEGY5IWG", "start_time": "1.51639303566e+12", "human_length": "35", "nodes_expanded": "999", "instance": "prb15595", "end_time": "1.51639306676e+12", "optimal_length": "16", "subject": "A214HWAW1PYWO8"}
{"rt": "21354.0", "trial_number": "0", "skipped": "False", "complete": "False", "assignment": "3X87C8JFV7JQ2BSCY8KSFD9F2ILSQK", "start_time": "1.51674508857e+12", "human_length": "11", "nodes_expanded": "999", "instance": "prb15595", "end_time": "1.51674510993e+12", "optimal_length": "16", "subject": "A21S7MA9DCW95E"}
{"rt": "0.0", "trial_number": "1", "skipped": "False", "complete": "False", "assignment": "3X87C8JFV7JQ2BSCY8KSFD9F2ILSQK", "start_time": "1.51674511482e+12", "human_length": "1", "nodes_expanded": "999", "instance": "prb15595", "end_time": "1.51674511482e+12", "optimal_length": "16", "subject": "A21S7MA9DCW95E"}
{"rt": "0.0", "trial_number": "2", "skipped": "False", "complete": "False", "assignment": "3X87C8JFV7JQ2BSCY8KSFD9F2ILSQK", "start_time": "1.51674508857e+12", "human_length": "1", "nodes_expanded": "999", "instance": "prb15595", "end_time": "1.51674508857e+12", "optimal_length": "16", "subject": "A21S7MA9DCW95E"}
{"rt": "0.0", "trial_number": "3", "skipped": "False", "complete": "False", "assignment": "3X87C8JFV7JQ2BSCY8KSFD9F2ILSQK", "start_time": "1.51674511482e+12", "human_length": "1", "nodes_expanded": "999", "instance": "prb15595", "end_time": "1.51674511482e+12", "optimal_length": "16", "subject": "A21S7MA9DCW95E"}
{"rt": "0.0", "trial_number": "4", "skipped": "False", "complete": "False", "assignment": "3X87C8JFV7JQ2BSCY8KSFD9F2ILSQK", "start_time": "1.51674508857e+12", "human_length": "1", "nodes_expanded": "999", "instance": "prb15595", "end_time": "1.51674508857e+12", "optimal_length": "16", "subject": "A21S7MA9DCW95E"}
{"rt": "36445.0", "trial_number": "5", "skipped": "False", "complete": "True", "assignment": "3X87C8JFV7JQ2BSCY8KSFD9F2ILSQK", "start_time": "1.51674511482e+12", "human_length": "21", "nodes_expanded": "999", "instance": "prb15595", "end_time": "1.51674515127e+12", "optimal_length": "16", "subject": "A21S7MA9DCW95E"}
{"rt": "21354.0", "trial_number": "0", "skipped": "False", "complete": "False", "assignment": "3X87C8JFV7JQ2BSCY8KSFD9F2ILSQK", "start_time": "1.51674508857e+12", "human_length": "11", "nodes_expanded": "999", "instance": "prb15595", "end_time": "1.51674510993e+12", "optimal_length": "16", "subject": "A21S7MA9DCW95E"}
{"rt": "36445.0", "trial_number": "1", "skipped": "False", "complete": "True", "assignment": "3X87C8JFV7JQ2BSCY8KSFD9F2ILSQK", "start_time": "1.51674511482e+12", "human_length": "21", "nodes_expanded": "999", "instance": "prb15595", "end_time": "1.51674515127e+12", "optimal_length": "16", "subject": "A21S7MA9DCW95E"}
{"rt": "0.0", "trial_number": "0", "skipped": "False", "complete": "False", "assignment": "3IHR8NYAM89M0EPM8U9LH53ZJDTP4U", "start_time": "1.51682621459e+12", "human_length": "1", "nodes_expanded": "999", "instance": "prb15595", "end_time": "1.51682621459e+12", "optimal_length": "16", "subject": "A23437BMZ5T1FH"}
{"rt": "11116.0", "trial_number": "1", "skipped": "True", "complete": "False", "assignment": "3IHR8NYAM89M0EPM8U9LH53ZJDTP4U", "start_time": "1.51682621459e+12", "human_length": "11", "nodes_expanded": "999", "instance": "prb15595", "end_time": "1.51682622571e+12", "optimal_length": "16", "subject": "A23437BMZ5T1FH"}
{"rt": "36129.0", "trial_number": "0", "skipped": "False", "complete": "False", "assignment": "3CFVK00FWMTAOGE2ZQ9TXMETAPZ6LP", "start_time": "1.51675230395e+12", "human_length": "8", "nodes_expanded": "999", "instance": "prb15595", "end_time": "1.51675234008e+12", "optimal_length": "16", "subject": "A26RO8GGTQAXGG"}
{"rt": "13481.0", "trial_number": "1", "skipped": "False", "complete": "False", "assignment": "3CFVK00FWMTAOGE2ZQ9TXMETAPZ6LP", "start_time": "1.51675234513e+12", "human_length": "3", "nodes_expanded": "999", "instance": "prb15595", "end_time": "1.51675235861e+12", "optimal_length": "16", "subject": "A26RO8GGTQAXGG"}
{"rt": "0.0", "trial_number": "2", "skipped": "False", "complete": "False", "assignment": "3CFVK00FWMTAOGE2ZQ9TXMETAPZ6LP", "start_time": "1.51675236681e+12", "human_length": "1", "nodes_expanded": "999", "instance": "prb15595", "end_time": "1.51675236681e+12", "optimal_length": "16", "subject": "A26RO8GGTQAXGG"}
{"rt": "0.0", "trial_number": "3", "skipped": "False", "complete": "False", "assignment": "3CFVK00FWMTAOGE2ZQ9TXMETAPZ6LP", "start_time": "1.51675230395e+12", "human_length": "1", "nodes_expanded": "999", "instance": "prb15595", "end_time": "1.51675230395e+12", "optimal_length": "16", "subject": "A26RO8GGTQAXGG"}
{"rt": "0.0", "trial_number": "4", "skipped": "False", "complete": "False", "assignment": "3CFVK00FWMTAOGE2ZQ9TXMETAPZ6LP", "start_time": "1.51675234513e+12", "human_length": "1", "nodes_expanded": "999", "instance": "prb15595", "end_time": "1.51675234513e+12", "optimal_length": "16", "subject": "A26RO8GGTQAXGG"}
{"rt": "0.0", "trial_number": "5", "skipped": "False", "complete": "False", "assignment": "3CFVK00FWMTAOGE2ZQ9TXMETAPZ6LP", "start_time": "1.51675236681e+12", "human_length": "1", "nodes_expanded": "999", "instance": "prb15595", "end_time": "1.51675236681e+12", "optimal_length": "16", "subject": "A26RO8GGTQAXGG"}
{"rt": "0.0", "trial_number": "6", "skipped": "False", "complete": "False", "assignment": "3CFVK00FWMTAOGE2ZQ9TXMETAPZ6LP", "start_time": "1.51675230395e+12", "human_length": "1", "nodes_expanded": "999", "instance": "prb15595", "end_time": "1.51675230395e+12", "optimal_length": "16", "subject": "A26RO8GGTQAXGG"}
{"rt": "0.0", "trial_number": "7", "skipped": "False", "complete": "False", "assignment": "3CFVK00FWMTAOGE2ZQ9TXMETAPZ6LP", "start_time": "1.51675234513e+12", "human_length": "1", "nodes_expanded": "999", "instance": "prb15595", "end_time": "1.51675234513e+12", "optimal_length": "16", "subject": "A26RO8GGTQAXGG"}
{"rt": "20454.0", "trial_number": "8", "skipped": "True", "complete": "False", "assignment": "3CFVK00FWMTAOGE2ZQ9TXMETAPZ6LP", "start_time": "1.51675236681e+12", "human_length": "18", "nodes_expanded": "999", "instance": "prb15595", "end_time": "1.51675238726e+12", "optimal_length": "16", "subject": "A26RO8GGTQAXGG"}
{"rt": "36129.0", "trial_number": "0", "skipped": "False", "complete": "False", "assignment": "3CFVK00FWMTAOGE2ZQ9TXMETAPZ6LP", "start_time": "1.51675230395e+12", "human_length": "8", "nodes_expanded": "999", "instance": "prb15595", "end_time": "1.51675234008e+12", "optimal_length": "16", "subject": "A26RO8GGTQAXGG"}
{"rt": "13481.0", "trial_number": "1", "skipped": "False", "complete": "False", "assignment": "3CFVK00FWMTAOGE2ZQ9TXMETAPZ6LP", "start_time": "1.51675234513e+12", "human_length": "3", "nodes_expanded": "999", "instance": "prb15595", "end_time": "1.51675235861e+12", "optimal_length": "16", "subject": "A26RO8GGTQAXGG"}
{"rt": "23342.0", "trial_number": "2", "skipped": "True", "complete": "False", "assignment": "3CFVK00FWMTAOGE2ZQ9TXMETAPZ6LP", "start_time": "1.51675236681e+12", "human_length": "6", "nodes_expanded": "999", "instance": "prb15595", "end_time": "1.51675239015e+12", "optimal_length": "16", "subject": "A26RO8GGTQAXGG"}
{"rt": "165961.0", "trial_number": "0", "skipped": "False", "complete": "True", "assignment": "37WLF8U1WQYZ4AWKEQXSIM1ELVEK6W", "start_time": "1.51683263165e+12", "human_length": "74", "nodes_expanded": "999", "instance": "prb15595", "end_time": "1.51683279761e+12", "optimal_length": "16", "subject": "A2EPBSY0VPI38S"}
{"rt": "0.0", "trial_number": "0", "skipped": "False", "complete": "False", "assignment": "3X4MXAO0BHWJLTOLVSJTHSM54OHWRG", "start_time": "1.51682546174e+12", "human_length": "1", "nodes_expanded": "999", "instance": "prb15595", "end_time": "1.51682546174e+12", "optimal_length": "16", "subject": "A2IBQA01NR5N76"}
{"rt": "42949.0", "trial_number": "1", "skipped": "False", "complete": "True", "assignment": "3X4MXAO0BHWJLTOLVSJTHSM54OHWRG", "start_time": "1.51682546174e+12", "human_length": "41", "nodes_expanded": "999", "instance": "prb15595", "end_time": "1.51682550469e+12", "optimal_length": "16", "subject": "A2IBQA01NR5N76"}
{"rt": "31306.0", "trial_number": "0", "skipped": "False", "complete": "True", "assignment": "3TAYZSBPLMG9ASQRWXURJVBCPLN2SH", "start_time": "1.51813674377e+12", "human_length": "24", "nodes_expanded": "999", "instance": "prb15595", "end_time": "1.51813677508e+12", "optimal_length": "16", "subject": "A2RCYLKY072XXO"}
{"rt": "0.0", "trial_number": "0", "skipped": "False", "complete": "False", "assignment": "3IJXV6UZ1YR1KY4G6BFEG1DXP7SRI1", "start_time": "1.51674885405e+12", "human_length": "1", "nodes_expanded": "999", "instance": "prb15595", "end_time": "1.51674885405e+12", "optimal_length": "16", "subject": "A2RTJ6BDY0DZVZ"}
{"rt": "0.0", "trial_number": "1", "skipped": "False", "complete": "False", "assignment": "3IJXV6UZ1YR1KY4G6BFEG1DXP7SRI1", "start_time": "1.51674885405e+12", "human_length": "1", "nodes_expanded": "999", "instance": "prb15595", "end_time": "1.51674885405e+12", "optimal_length": "16", "subject": "A2RTJ6BDY0DZVZ"}
{"rt": "101459.0", "trial_number": "2", "skipped": "False", "complete": "True", "assignment": "3IJXV6UZ1YR1KY4G6BFEG1DXP7SRI1", "start_time": "1.51674885405e+12", "human_length": "48", "nodes_expanded": "999", "instance": "prb15595", "end_time": "1.51674895551e+12", "optimal_length": "16", "subject": "A2RTJ6BDY0DZVZ"}
{"rt": "101459.0", "trial_number": "0", "skipped": "False", "complete": "True", "assignment": "3IJXV6UZ1YR1KY4G6BFEG1DXP7SRI1", "start_time": "1.51674885405e+12", "human_length": "48", "nodes_expanded": "999", "instance": "prb15595", "end_time": "1.51674895551e+12", "optimal_length": "16", "subject": "A2RTJ6BDY0DZVZ"}
{"rt": "36524.0", "trial_number": "0", "skipped": "False", "complete": "False", "assignment": "3WSELTNVR4AZUVYAYCSWZIQW0J4ATB", "start_time": "1.51673922875e+12", "human_length": "24", "nodes_expanded": "999", "instance": "prb15595", "end_time": "1.51673926527e+12", "optimal_length": "16", "subject": "A2TQNX64349OZ9"}
{"rt": "0.0", "trial_number": "1", "skipped": "False", "complete": "False", "assignment": "3WSELTNVR4AZUVYAYCSWZIQW0J4ATB", "start_time": "1.51673926652e+12", "human_length": "1", "nodes_expanded": "999", "instance": "prb15595", "end_time": "1.51673926652e+12", "optimal_length": "16", "subject": "A2TQNX64349OZ9"}
{"rt": "0.0", "trial_number": "2", "skipped": "False", "complete": "False", "assignment": "3WSELTNVR4AZUVYAYCSWZIQW0J4ATB", "start_time": "1.51673922875e+12", "human_length": "1", "nodes_expanded": "999", "instance": "prb15595", "end_time": "1.51673922875e+12", "optimal_length": "16", "subject": "A2TQNX64349OZ9"}
{"rt": "0.0", "trial_number": "3", "skipped": "False", "complete": "False", "assignment": "3WSELTNVR4AZUVYAYCSWZIQW0J4ATB", "start_time": "1.51673926652e+12", "human_length": "1", "nodes_expanded": "999", "instance": "prb15595", "end_time": "1.51673926652e+12", "optimal_length": "16", "subject": "A2TQNX64349OZ9"}
{"rt": "0.0", "trial_number": "4", "skipped": "False", "complete": "False", "assignment": "3WSELTNVR4AZUVYAYCSWZIQW0J4ATB", "start_time": "1.51673922875e+12", "human_length": "1", "nodes_expanded": "999", "instance": "prb15595", "end_time": "1.51673922875e+12", "optimal_length": "16", "subject": "A2TQNX64349OZ9"}
{"rt": "26667.0", "trial_number": "5", "skipped": "False", "complete": "True", "assignment": "3WSELTNVR4AZUVYAYCSWZIQW0J4ATB", "start_time": "1.51673926652e+12", "human_length": "23", "nodes_expanded": "999", "instance": "prb15595", "end_time": "1.51673929319e+12", "optimal_length": "16", "subject": "A2TQNX64349OZ9"}
{"rt": "36524.0", "trial_number": "0", "skipped": "False", "complete": "False", "assignment": "3WSELTNVR4AZUVYAYCSWZIQW0J4ATB", "start_time": "1.51673922875e+12", "human_length": "24", "nodes_expanded": "999", "instance": "prb15595", "end_time": "1.51673926527e+12", "optimal_length": "16", "subject": "A2TQNX64349OZ9"}
{"rt": "26667.0", "trial_number": "1", "skipped": "False", "complete": "True", "assignment": "3WSELTNVR4AZUVYAYCSWZIQW0J4ATB", "start_time": "1.51673926652e+12", "human_length": "23", "nodes_expanded": "999", "instance": "prb15595", "end_time": "1.51673929319e+12", "optimal_length": "16", "subject": "A2TQNX64349OZ9"}
{"rt": "85256.0", "trial_number": "0", "skipped": "False", "complete": "True", "assignment": "3EWIJTFFVPF14ZIVGF68BQEIRXP0ER", "start_time": "1.51815000749e+12", "human_length": "41", "nodes_expanded": "999", "instance": "prb15595", "end_time": "1.51815009275e+12", "optimal_length": "16", "subject": "A30AGR5KF8IEL"}
{"rt": "53075.0", "trial_number": "0", "skipped": "False", "complete": "True", "assignment": "37TD41K0AIHM8AITTQJXV8KY05QCSB", "start_time": "1.51752688389e+12", "human_length": "27", "nodes_expanded": "999", "instance": "prb15595", "end_time": "1.51752693697e+12", "optimal_length": "16", "subject": "A30KYQGABO7JER"}
{"rt": "70933.0", "trial_number": "0", "skipped": "False", "complete": "True", "assignment": "3TXD01ZLD5PZSJXIPG8FRBQYTI9U4X", "start_time": "1.51794391753e+12", "human_length": "34", "nodes_expanded": "999", "instance": "prb15595", "end_time": "1.51794398846e+12", "optimal_length": "16", "subject": "A3BPRPN10HJD4B"}
{"rt": "25963.0", "trial_number": "0", "skipped": "True", "complete": "False", "assignment": "34HJIJKLP64Z5YMIU6IKNXSH7PDV4I", "start_time": "1.51794344400e+12", "human_length": "12", "nodes_expanded": "999", "instance": "prb15595", "end_time": "1.51794346997e+12", "optimal_length": "16", "subject": "A3CTXNQ2GXIQSP"}
{"rt": "122853.0", "trial_number": "0", "skipped": "False", "complete": "True", "assignment": "3TMFV4NEP9MD3O9PWJDTQBR0HZYW8I", "start_time": "1.51814429575e+12", "human_length": "39", "nodes_expanded": "999", "instance": "prb15595", "end_time": "1.5181444186e+12", "optimal_length": "16", "subject": "A3GOOI75XOF24V"}
{"rt": "32523.0", "trial_number": "0", "skipped": "False", "complete": "True", "assignment": "3TPWUS5F8A9FFRZ2DVTYSXNJ6BWWC6", "start_time": "1.51794033427e+12", "human_length": "18", "nodes_expanded": "999", "instance": "prb15595", "end_time": "1.5179403668e+12", "optimal_length": "16", "subject": "A3GXC3VG37CQ3G"}
{"rt": "41295.0", "trial_number": "0", "skipped": "False", "complete": "False", "assignment": "3STRJBFXOXZ5687WA35LTWTS7QZKTT", "start_time": "1.51794459842e+12", "human_length": "16", "nodes_expanded": "999", "instance": "prb15595", "end_time": "1.51794463971e+12", "optimal_length": "16", "subject": "A3OB6REG5CGHK1"}
{"rt": "77559.0", "trial_number": "1", "skipped": "False", "complete": "True", "assignment": "3STRJBFXOXZ5687WA35LTWTS7QZKTT", "start_time": "1.51794464321e+12", "human_length": "24", "nodes_expanded": "999", "instance": "prb15595", "end_time": "1.51794472077e+12", "optimal_length": "16", "subject": "A3OB6REG5CGHK1"}
{"rt": "0.0", "trial_number": "0", "skipped": "False", "complete": "False", "assignment": "3X87C8JFV7JQ2BSCY8KSFD9F2ILSQK", "start_time": "1.51674041687e+12", "human_length": "1", "nodes_expanded": "999", "instance": "prb15595", "end_time": "1.51674041687e+12", "optimal_length": "16", "subject": "A3Q0XAGQ7TD7MP"}
{"rt": "0.0", "trial_number": "1", "skipped": "False", "complete": "False", "assignment": "3X87C8JFV7JQ2BSCY8KSFD9F2ILSQK", "start_time": "1.51674041687e+12", "human_length": "1", "nodes_expanded": "999", "instance": "prb15595", "end_time": "1.51674041687e+12", "optimal_length": "16", "subject": "A3Q0XAGQ7TD7MP"}
{"rt": "25184.0", "trial_number": "2", "skipped": "False", "complete": "False", "assignment": "3X87C8JFV7JQ2BSCY8KSFD9F2ILSQK", "start_time": "1.51674041687e+12", "human_length": "26", "nodes_expanded": "999", "instance": "prb15595", "end_time": "1.51674044205e+12", "optimal_length": "16", "subject": "A3Q0XAGQ7TD7MP"}
{"rt": "65445.0", "trial_number": "3", "skipped": "False", "complete": "True", "assignment": "3GLB5JMZFY3TNXFGYMKRQ0JDXNTDGZ", "start_time": "1.51794666594e+12", "human_length": "29", "nodes_expanded": "999", "instance": "prb15595", "end_time": "1.51794673138e+12", "optimal_length": "16", "subject": "A3Q0XAGQ7TD7MP"}
{"rt": "25184.0", "trial_number": "0", "skipped": "False", "complete": "False", "assignment": "3X87C8JFV7JQ2BSCY8KSFD9F2ILSQK", "start_time": "1.51674041687e+12", "human_length": "10", "nodes_expanded": "999", "instance": "prb15595", "end_time": "1.51674044205e+12", "optimal_length": "16", "subject": "A3Q0XAGQ7TD7MP"}
{"rt": "65445.0", "trial_number": "1", "skipped": "False", "complete": "True", "assignment": "3GLB5JMZFY3TNXFGYMKRQ0JDXNTDGZ", "start_time": "1.51794666594e+12", "human_length": "29", "nodes_expanded": "999", "instance": "prb15595", "end_time": "1.51794673138e+12", "optimal_length": "16", "subject": "A3Q0XAGQ7TD7MP"}
{"rt": "46462.0", "trial_number": "0", "skipped": "False", "complete": "False", "assignment": "3M0BCWMB8W4W5M7WZVX3HDH1P53WB1", "start_time": "1.51815781356e+12", "human_length": "25", "nodes_expanded": "999", "instance": "prb15595", "end_time": "1.51815786002e+12", "optimal_length": "16", "subject": "A53S7J4JGWG38"}
{"rt": "72507.0", "trial_number": "1", "skipped": "False", "complete": "False", "assignment": "3M0BCWMB8W4W5M7WZVX3HDH1P53WB1", "start_time": "1.51815786396e+12", "human_length": "33", "nodes_expanded": "999", "instance": "prb15595", "end_time": "1.51815793646e+12", "optimal_length": "16", "subject": "A53S7J4JGWG38"}
{"rt": "27809.0", "trial_number": "2", "skipped": "False", "complete": "False", "assignment": "3M0BCWMB8W4W5M7WZVX3HDH1P53WB1", "start_time": "1.51815794116e+12", "human_length": "12", "nodes_expanded": "999", "instance": "prb15595", "end_time": "1.51815796896e+12", "optimal_length": "16", "subject": "A53S7J4JGWG38"}
{"rt": "42751.0", "trial_number": "3", "skipped": "False", "complete": "True", "assignment": "3M0BCWMB8W4W5M7WZVX3HDH1P53WB1", "start_time": "1.51815797154e+12", "human_length": "30", "nodes_expanded": "999", "instance": "prb15595", "end_time": "1.51815801429e+12", "optimal_length": "16", "subject": "A53S7J4JGWG38"}
{"rt": "45098.0", "trial_number": "0", "skipped": "False", "complete": "True", "assignment": "3IXEICO793RY7TM78ZBKJDOA7ADT6Q", "start_time": "1.518167766e+12", "human_length": "26", "nodes_expanded": "999", "instance": "prb15595", "end_time": "1.51816781109e+12", "optimal_length": "16", "subject": "ALH1K6ZAQQMN7"}
{"rt": "20440.0", "trial_number": "0", "skipped": "False", "complete": "False", "assignment": "36H9ULYP6320CJJDXY0KBDEE1Z3JFB", "start_time": "1.51753268385e+12", "human_length": "12", "nodes_expanded": "999", "instance": "prb15595", "end_time": "1.51753270429e+12", "optimal_length": "16", "subject": "AN098C29EGJ6"}
{"rt": "51750.0", "trial_number": "1", "skipped": "True", "complete": "False", "assignment": "36H9ULYP6320CJJDXY0KBDEE1Z3JFB", "start_time": "1.51753270786e+12", "human_length": "15", "nodes_expanded": "999", "instance": "prb15595", "end_time": "1.51753275961e+12", "optimal_length": "16", "subject": "AN098C29EGJ6"}
{"rt": "195317.0", "trial_number": "0", "skipped": "False", "complete": "True", "assignment": "3AZHRG4CU5SYU12YRVPCSZALW5003R", "start_time": "1.5163062636e+12", "human_length": "144", "nodes_expanded": "999", "instance": "prb15595", "end_time": "1.51630645891e+12", "optimal_length": "16", "subject": "ARWF605I7RWM7"}
{"rt": "44752.0", "trial_number": "0", "skipped": "False", "complete": "True", "assignment": "33PPO7FECWN7JOLBOAKUBCWTC0AIDL", "start_time": "1.51795062188e+12", "human_length": "19", "nodes_expanded": "999", "instance": "prb15595", "end_time": "1.51795066663e+12", "optimal_length": "16", "subject": "AXKM02NVXNGOM"}
{"rt": "98331.0", "trial_number": "0", "skipped": "False", "complete": "True", "assignment": "3ON104KXQL4CKNMNKGNG9ZBVBAB4WI", "start_time": "1.51631187647e+12", "human_length": "65", "nodes_expanded": "999", "instance": "prb15595", "end_time": "1.5163119748e+12", "optimal_length": "16", "subject": "AYPOAY43REHC8"}
