{"rt": "9731.0", "trial_number": "0", "skipped": "False", "complete": "True", "assignment": "36AHBNMV1SKT9O0GSS6XX0QHZV3YDN", "start_time": "1.51630437802e+12", "human_length": "11", "nodes_expanded": "999", "instance": "prb11647", "end_time": "1.51630438775e+12", "optimal_length": "7", "subject": "A39GADIK8RLMVC"}
{"rt": "33812.0", "trial_number": "0", "skipped": "False", "complete": "True", "assignment": "3AZHRG4CU5SYU12YRVPCSZALW5003R", "start_time": "1.51630448249e+12", "human_length": "19", "nodes_expanded": "999", "instance": "prb11647", "end_time": "1.5163045163e+12", "optimal_length": "7", "subject": "ARWF605I7RWM7"}
{"rt": "35105.0", "trial_number": "0", "skipped": "False", "complete": "True", "assignment": "3ZV9H2YQQEFR2R3JK2IXZUJPXAF3WW", "start_time": "1.51630732015e+12", "human_length": "9", "nodes_expanded": "999", "instance": "prb11647", "end_time": "1.51630735525e+12", "optimal_length": "7", "subject": "A289D98Z4GAZ28"}
{"rt": "7851.0", "trial_number": "0", "skipped": "False", "complete": "True", "assignment": "3PMBY0YE28B43VMUKKJ6EDF85RV9C8", "start_time": "1.51638610637e+12", "human_length": "8", "nodes_expanded": "999", "instance": "prb11647", "end_time": "1.51638611422e+12", "optimal_length": "7", "subject": "A191V7PT3DQKDP"}
{"rt": "16828.0", "trial_number": "0", "skipped": "False", "complete": "True", "assignment": "3ZSY5X72NYJBGKFJ46SJ0Y9J0RLROB", "start_time": "1.51638791485e+12", "human_length": "10", "nodes_expanded": "999", "instance": "prb11647", "end_time": "1.51638793167e+12", "optimal_length": "7", "subject": "AU4KK3OYS2UZF"}
{"rt": "12174.0", "trial_number": "0", "skipped": "False", "complete": "True", "assignment": "3TYCR1GOTDRCCQYD1V64UK7OE48LZS", "start_time": "1.51639223435e+12", "human_length": "8", "nodes_expanded": "999", "instance": "prb11647", "end_time": "1.51639224652e+12", "optimal_length": "7", "subject": "A2MYB6MLQW0IGN"}
{"rt": "12800.0", "trial_number": "0", "skipped": "False", "complete": "True", "assignment": "34BBWHLWHBJ6SUL255PK30LEGY5IWG", "start_time": "1.5163935233e+12", "human_length": "9", "nodes_expanded": "999", "instance": "prb11647", "end_time": "1.5163935361e+12", "optimal_length": "7", "subject": "A214HWAW1PYWO8"}
{"rt": "0.0", "trial_number": "0", "skipped": "False", "complete": "False", "assignment": "3VE8AYVF8N5BS2NU6U3TMN50JMNF8V", "start_time": "1.51673822095e+12", "human_length": "1", "nodes_expanded": "999", "instance": "prb11647", "end_time": "1.51673822095e+12", "optimal_length": "7", "subject": "A18QU0YQB6Q8DF"}
{"rt": "0.0", "trial_number": "1", "skipped": "False", "complete": "False", "assignment": "3VE8AYVF8N5BS2NU6U3TMN50JMNF8V", "start_time": "1.51673822095e+12", "human_length": "1", "nodes_expanded": "999", "instance": "prb11647", "end_time": "1.51673822095e+12", "optimal_length": "7", "subject": "A18QU0YQB6Q8DF"}
{"rt": "21915.0", "trial_number": "2", "skipped": "False", "complete": "True", "assignment": "3VE8AYVF8N5BS2NU6U3TMN50JMNF8V", "start_time": "1.51673822095e+12", "human_length": "12", "nodes_expanded": "999", "instance": "prb11647", "end_time": "1.51673824286e+12", "optimal_length": "7", "subject": "A18QU0YQB6Q8DF"}
{"rt": "0.0", "trial_number": "0", "skipped": "False", "complete": "False", "assignment": "3X87C8JFV7JQ2BSCY8KSFD9F2ILSQK", "start_time": "1.51673992464e+12", "human_length": "1", "nodes_expanded": "999", "instance": "prb11647", "end_time": "1.51673992464e+12", "optimal_length": "7", "subject": "A3Q0XAGQ7TD7MP"}
{"rt": "0.0", "trial_number": "1", "skipped": "False", "complete": "False", "assignment": "3X87C8JFV7JQ2BSCY8KSFD9F2ILSQK", "start_time": "1.51673992464e+12", "human_length": "1", "nodes_expanded": "999", "instance": "prb11647", "end_time": "1.51673992464e+12", "optimal_length": "7", "subject": "A3Q0XAGQ7TD7MP"}
{"rt": "15071.0", "trial_number": "2", "skipped": "False", "complete": "True", "assignment": "3X87C8JFV7JQ2BSCY8KSFD9F2ILSQK", "start_time": "1.51673992464e+12", "human_length": "8", "nodes_expanded": "999", "instance": "prb11647", "end_time": "1.51673993971e+12", "optimal_length": "7", "subject": "A3Q0XAGQ7TD7MP"}
{"rt": "12731.0", "trial_number": "3", "skipped": "False", "complete": "True", "assignment": "3GLB5JMZFY3TNXFGYMKRQ0JDXNTDGZ", "start_time": "1.51794618001e+12", "human_length": "8", "nodes_expanded": "999", "instance": "prb11647", "end_time": "1.51794619274e+12", "optimal_length": "7", "subject": "A3Q0XAGQ7TD7MP"}
{"rt": "22750.0", "trial_number": "0", "skipped": "False", "complete": "False", "assignment": "3WSELTNVR4AZUVYAYCSWZIQW0J4ATB", "start_time": "1.51673885582e+12", "human_length": "17", "nodes_expanded": "999", "instance": "prb11647", "end_time": "1.51673887857e+12", "optimal_length": "7", "subject": "A2TQNX64349OZ9"}
{"rt": "0.0", "trial_number": "1", "skipped": "False", "complete": "False", "assignment": "3WSELTNVR4AZUVYAYCSWZIQW0J4ATB", "start_time": "1.51673888058e+12", "human_length": "1", "nodes_expanded": "999", "instance": "prb11647", "end_time": "1.51673888058e+12", "optimal_length": "7", "subject": "A2TQNX64349OZ9"}
{"rt": "0.0", "trial_number": "2", "skipped": "False", "complete": "False", "assignment": "3WSELTNVR4AZUVYAYCSWZIQW0J4ATB", "start_time": "1.51673885582e+12", "human_length": "1", "nodes_expanded": "999", "instance": "prb11647", "end_time": "1.51673885582e+12", "optimal_length": "7", "subject": "A2TQNX64349OZ9"}
{"rt": "0.0", "trial_number": "3", "skipped": "False", "complete": "False", "assignment": "3WSELTNVR4AZUVYAYCSWZIQW0J4ATB", "start_time": "1.51673888058e+12", "human_length": "1", "nodes_expanded": "999", "instance": "prb11647", "end_time": "1.51673888058e+12", "optimal_length": "7", "subject": "A2TQNX64349OZ9"}
{"rt": "0.0", "trial_number": "4", "skipped": "False", "complete": "False", "assignment": "3WSELTNVR4AZUVYAYCSWZIQW0J4ATB", "start_time": "1.51673885582e+12", "human_length": "1", "nodes_expanded": "999", "instance": "prb11647", "end_time": "1.51673885582e+12", "optimal_length": "7", "subject": "A2TQNX64349OZ9"}
{"rt": "8716.0", "trial_number": "5", "skipped": "False", "complete": "True", "assignment": "3WSELTNVR4AZUVYAYCSWZIQW0J4ATB", "start_time": "1.51673888058e+12", "human_length": "9", "nodes_expanded": "999", "instance": "prb11647", "end_time": "1.5167388893e+12", "optimal_length": "7", "subject": "A2TQNX64349OZ9"}
{"rt": "0.0", "trial_number": "0", "skipped": "False", "complete": "False", "assignment": "3IJXV6UZ1YR1KY4G6BFEG1DXP7SRI1", "start_time": "1.51673996902e+12", "human_length": "1", "nodes_expanded": "999", "instance": "prb11647", "end_time": "1.51673996902e+12", "optimal_length": "7", "subject": "AEXF5EUX32U0M"}
{"rt": "0.0", "trial_number": "1", "skipped": "False", "complete": "False", "assignment": "3IJXV6UZ1YR1KY4G6BFEG1DXP7SRI1", "start_time": "1.51673996904e+12", "human_length": "1", "nodes_expanded": "999", "instance": "prb11647", "end_time": "1.51673996904e+12", "optimal_length": "7", "subject": "AEXF5EUX32U0M"}
{"rt": "0.0", "trial_number": "2", "skipped": "False", "complete": "False", "assignment": "3IJXV6UZ1YR1KY4G6BFEG1DXP7SRI1", "start_time": "1.51673996905e+12", "human_length": "1", "nodes_expanded": "999", "instance": "prb11647", "end_time": "1.51673996905e+12", "optimal_length": "7", "subject": "AEXF5EUX32U0M"}
{"rt": "22498.0", "trial_number": "3", "skipped": "False", "complete": "False", "assignment": "3IJXV6UZ1YR1KY4G6BFEG1DXP7SRI1", "start_time": "1.51673997349e+12", "human_length": "6", "nodes_expanded": "999", "instance": "prb11647", "end_time": "1.51673999599e+12", "optimal_length": "7", "subject": "AEXF5EUX32U0M"}
{"rt": "0.0", "trial_number": "4", "skipped": "False", "complete": "False", "assignment": "3IJXV6UZ1YR1KY4G6BFEG1DXP7SRI1", "start_time": "1.51674001721e+12", "human_length": "1", "nodes_expanded": "999", "instance": "prb11647", "end_time": "1.51674001721e+12", "optimal_length": "7", "subject": "AEXF5EUX32U0M"}
{"rt": "0.0", "trial_number": "5", "skipped": "False", "complete": "False", "assignment": "3IJXV6UZ1YR1KY4G6BFEG1DXP7SRI1", "start_time": "1.51673996902e+12", "human_length": "1", "nodes_expanded": "999", "instance": "prb11647", "end_time": "1.51673996902e+12", "optimal_length": "7", "subject": "AEXF5EUX32U0M"}
{"rt": "0.0", "trial_number": "6", "skipped": "False", "complete": "False", "assignment": "3IJXV6UZ1YR1KY4G6BFEG1DXP7SRI1", "start_time": "1.51673996904e+12", "human_length": "1", "nodes_expanded": "999", "instance": "prb11647", "end_time": "1.51673996904e+12", "optimal_length": "7", "subject": "AEXF5EUX32U0M"}
{"rt": "0.0", "trial_number": "7", "skipped": "False", "complete": "False", "assignment": "3IJXV6UZ1YR1KY4G6BFEG1DXP7SRI1", "start_time": "1.51673996905e+12", "human_length": "1", "nodes_expanded": "999", "instance": "prb11647", "end_time": "1.51673996905e+12", "optimal_length": "7", "subject": "AEXF5EUX32U0M"}
{"rt": "0.0", "trial_number": "8", "skipped": "False", "complete": "False", "assignment": "3IJXV6UZ1YR1KY4G6BFEG1DXP7SRI1", "start_time": "1.51673997349e+12", "human_length": "1", "nodes_expanded": "999", "instance": "prb11647", "end_time": "1.51673997349e+12", "optimal_length": "7", "subject": "AEXF5EUX32U0M"}
{"rt": "0.0", "trial_number": "9", "skipped": "False", "complete": "False", "assignment": "3IJXV6UZ1YR1KY4G6BFEG1DXP7SRI1", "start_time": "1.51674001721e+12", "human_length": "1", "nodes_expanded": "999", "instance": "prb11647", "end_time": "1.51674001721e+12", "optimal_length": "7", "subject": "AEXF5EUX32U0M"}
{"rt": "0.0", "trial_number": "10", "skipped": "False", "complete": "False", "assignment": "3IJXV6UZ1YR1KY4G6BFEG1DXP7SRI1", "start_time": "1.51673996902e+12", "human_length": "1", "nodes_expanded": "999", "instance": "prb11647", "end_time": "1.51673996902e+12", "optimal_length": "7", "subject": "AEXF5EUX32U0M"}
{"rt": "0.0", "trial_number": "11", "skipped": "False", "complete": "False", "assignment": "3IJXV6UZ1YR1KY4G6BFEG1DXP7SRI1", "start_time": "1.51673996904e+12", "human_length": "1", "nodes_expanded": "999", "instance": "prb11647", "end_time": "1.51673996904e+12", "optimal_length": "7", "subject": "AEXF5EUX32U0M"}
{"rt": "0.0", "trial_number": "12", "skipped": "False", "complete": "False", "assignment": "3IJXV6UZ1YR1KY4G6BFEG1DXP7SRI1", "start_time": "1.51673996905e+12", "human_length": "1", "nodes_expanded": "999", "instance": "prb11647", "end_time": "1.51673996905e+12", "optimal_length": "7", "subject": "AEXF5EUX32U0M"}
{"rt": "0.0", "trial_number": "13", "skipped": "False", "complete": "False", "assignment": "3IJXV6UZ1YR1KY4G6BFEG1DXP7SRI1", "start_time": "1.51673997349e+12", "human_length": "1", "nodes_expanded": "999", "instance": "prb11647", "end_time": "1.51673997349e+12", "optimal_length": "7", "subject": "AEXF5EUX32U0M"}
{"rt": "19715.0", "trial_number": "14", "skipped": "False", "complete": "True", "assignment": "3IJXV6UZ1YR1KY4G6BFEG1DXP7SRI1", "start_time": "1.51674001721e+12", "human_length": "9", "nodes_expanded": "999", "instance": "prb11647", "end_time": "1.51674003692e+12", "optimal_length": "7", "subject": "AEXF5EUX32U0M"}
{"rt": "0.0", "trial_number": "0", "skipped": "False", "complete": "False", "assignment": "3I2PTA7R3U2SESF4TZBQORI5LSJQKK", "start_time": "1.51675840586e+12", "human_length": "1", "nodes_expanded": "999", "instance": "prb11647", "end_time": "1.51675840586e+12", "optimal_length": "7", "subject": "A3NMQ3019X6YE0"}
{"rt": "0.0", "trial_number": "1", "skipped": "False", "complete": "False", "assignment": "3I2PTA7R3U2SESF4TZBQORI5LSJQKK", "start_time": "1.51675840586e+12", "human_length": "1", "nodes_expanded": "999", "instance": "prb11647", "end_time": "1.51675840586e+12", "optimal_length": "7", "subject": "A3NMQ3019X6YE0"}
{"rt": "19529.0", "trial_number": "2", "skipped": "False", "complete": "True", "assignment": "3I2PTA7R3U2SESF4TZBQORI5LSJQKK", "start_time": "1.51675840586e+12", "human_length": "8", "nodes_expanded": "999", "instance": "prb11647", "end_time": "1.51675842539e+12", "optimal_length": "7", "subject": "A3NMQ3019X6YE0"}
{"rt": "0.0", "trial_number": "0", "skipped": "False", "complete": "False", "assignment": "3YW4XOSQKRTI0K0Z2YPDTDJVFABU1I", "start_time": "1.51682345437e+12", "human_length": "1", "nodes_expanded": "999", "instance": "prb11647", "end_time": "1.51682345437e+12", "optimal_length": "7", "subject": "A15781PHGW377Y"}
{"rt": "65363.0", "trial_number": "1", "skipped": "False", "complete": "True", "assignment": "3YW4XOSQKRTI0K0Z2YPDTDJVFABU1I", "start_time": "1.51682345437e+12", "human_length": "7", "nodes_expanded": "999", "instance": "prb11647", "end_time": "1.51682351974e+12", "optimal_length": "7", "subject": "A15781PHGW377Y"}
{"rt": "0.0", "trial_number": "0", "skipped": "False", "complete": "False", "assignment": "3X4MXAO0BHWJLTOLVSJTHSM54OHWRG", "start_time": "1.51682301511e+12", "human_length": "1", "nodes_expanded": "999", "instance": "prb11647", "end_time": "1.51682301511e+12", "optimal_length": "7", "subject": "A2IBQA01NR5N76"}
{"rt": "9075.0", "trial_number": "1", "skipped": "False", "complete": "True", "assignment": "3X4MXAO0BHWJLTOLVSJTHSM54OHWRG", "start_time": "1.51682301511e+12", "human_length": "10", "nodes_expanded": "999", "instance": "prb11647", "end_time": "1.51682302419e+12", "optimal_length": "7", "subject": "A2IBQA01NR5N76"}
{"rt": "9075.0", "trial_number": "0", "skipped": "False", "complete": "True", "assignment": "3X4MXAO0BHWJLTOLVSJTHSM54OHWRG", "start_time": "1.51682301511e+12", "human_length": "10", "nodes_expanded": "999", "instance": "prb11647", "end_time": "1.51682302419e+12", "optimal_length": "7", "subject": "A2IBQA01NR5N76"}
{"rt": "0.0", "trial_number": "0", "skipped": "False", "complete": "False", "assignment": "3IHR8NYAM89M0EPM8U9LH53ZJDTP4U", "start_time": "1.51682476212e+12", "human_length": "1", "nodes_expanded": "999", "instance": "prb11647", "end_time": "1.51682476212e+12", "optimal_length": "7", "subject": "A23437BMZ5T1FH"}
{"rt": "26471.0", "trial_number": "1", "skipped": "False", "complete": "True", "assignment": "3IHR8NYAM89M0EPM8U9LH53ZJDTP4U", "start_time": "1.51682476212e+12", "human_length": "17", "nodes_expanded": "999", "instance": "prb11647", "end_time": "1.51682478859e+12", "optimal_length": "7", "subject": "A23437BMZ5T1FH"}
{"rt": "11488.0", "trial_number": "0", "skipped": "False", "complete": "True", "assignment": "37WLF8U1WQYZ4AWKEQXSIM1ELVEK6W", "start_time": "1.51683196603e+12", "human_length": "9", "nodes_expanded": "999", "instance": "prb11647", "end_time": "1.51683197752e+12", "optimal_length": "7", "subject": "A2EPBSY0VPI38S"}
{"rt": "0.0", "trial_number": "0", "skipped": "False", "complete": "False", "assignment": "3YW4XOSQKRTI0K0Z2YPDTDJVFABU1I", "start_time": "1.51683022176e+12", "human_length": "1", "nodes_expanded": "999", "instance": "prb11647", "end_time": "1.51683022176e+12", "optimal_length": "7", "subject": "A1LR0VQIHQUJAM"}
{"rt": "6858.0", "trial_number": "1", "skipped": "False", "complete": "True", "assignment": "3YW4XOSQKRTI0K0Z2YPDTDJVFABU1I", "start_time": "1.51683022176e+12", "human_length": "7", "nodes_expanded": "999", "instance": "prb11647", "end_time": "1.51683022862e+12", "optimal_length": "7", "subject": "A1LR0VQIHQUJAM"}
{"rt": "21915.0", "trial_number": "0", "skipped": "False", "complete": "True", "assignment": "3VE8AYVF8N5BS2NU6U3TMN50JMNF8V", "start_time": "1.51673822095e+12", "human_length": "12", "nodes_expanded": "999", "instance": "prb11647", "end_time": "1.51673824286e+12", "optimal_length": "7", "subject": "A18QU0YQB6Q8DF"}
{"rt": "15071.0", "trial_number": "0", "skipped": "False", "complete": "True", "assignment": "3X87C8JFV7JQ2BSCY8KSFD9F2ILSQK", "start_time": "1.51673992464e+12", "human_length": "8", "nodes_expanded": "999", "instance": "prb11647", "end_time": "1.51673993971e+12", "optimal_length": "7", "subject": "A3Q0XAGQ7TD7MP"}
{"rt": "12731.0", "trial_number": "1", "skipped": "False", "complete": "True", "assignment": "3GLB5JMZFY3TNXFGYMKRQ0JDXNTDGZ", "start_time": "1.51794618001e+12", "human_length": "8", "nodes_expanded": "999", "instance": "prb11647", "end_time": "1.51794619274e+12", "optimal_length": "7", "subject": "A3Q0XAGQ7TD7MP"}
{"rt": "22750.0", "trial_number": "0", "skipped": "False", "complete": "False", "assignment": "3WSELTNVR4AZUVYAYCSWZIQW0J4ATB", "start_time": "1.51673885582e+12", "human_length": "17", "nodes_expanded": "999", "instance": "prb11647", "end_time": "1.51673887857e+12", "optimal_length": "7", "subject": "A2TQNX64349OZ9"}
{"rt": "8716.0", "trial_number": "1", "skipped": "False", "complete": "True", "assignment": "3WSELTNVR4AZUVYAYCSWZIQW0J4ATB", "start_time": "1.51673888058e+12", "human_length": "9", "nodes_expanded": "999", "instance": "prb11647", "end_time": "1.5167388893e+12", "optimal_length": "7", "subject": "A2TQNX64349OZ9"}
{"rt": "0.0", "trial_number": "0", "skipped": "False", "complete": "False", "assignment": "3IJXV6UZ1YR1KY4G6BFEG1DXP7SRI1", "start_time": "1.51673996902e+12", "human_length": "1", "nodes_expanded": "999", "instance": "prb11647", "end_time": "1.51673996902e+12", "optimal_length": "7", "subject": "AEXF5EUX32U0M"}
{"rt": "0.0", "trial_number": "1", "skipped": "False", "complete": "False", "assignment": "3IJXV6UZ1YR1KY4G6BFEG1DXP7SRI1", "start_time": "1.51673996904e+12", "human_length": "1", "nodes_expanded": "999", "instance": "prb11647", "end_time": "1.51673996904e+12", "optimal_length": "7", "subject": "AEXF5EUX32U0M"}
{"rt": "0.0", "trial_number": "2", "skipped": "False", "complete": "False", "assignment": "3IJXV6UZ1YR1KY4G6BFEG1DXP7SRI1", "start_time": "1.51673996905e+12", "human_length": "1", "nodes_expanded": "999", "instance": "prb11647", "end_time": "1.51673996905e+12", "optimal_length": "7", "subject": "AEXF5EUX32U0M"}
{"rt": "22498.0", "trial_number": "3", "skipped": "False", "complete": "False", "assignment": "3IJXV6UZ1YR1KY4G6BFEG1DXP7SRI1", "start_time": "1.51673997349e+12", "human_length": "6", "nodes_expanded": "999", "instance": "prb11647", "end_time": "1.51673999599e+12", "optimal_length": "7", "subject": "AEXF5EUX32U0M"}
{"rt": "19715.0", "trial_number": "4", "skipped": "False", "complete": "True", "assignment": "3IJXV6UZ1YR1KY4G6BFEG1DXP7SRI1", "start_time": "1.51674001721e+12", "human_length": "9", "nodes_expanded": "999", "instance": "prb11647", "end_time": "1.51674003692e+12", "optimal_length": "7", "subject": "AEXF5EUX32U0M"}
{"rt": "19529.0", "trial_number": "0", "skipped": "False", "complete": "True", "assignment": "3I2PTA7R3U2SESF4TZBQORI5LSJQKK", "start_time": "1.51675840586e+12", "human_length": "8", "nodes_expanded": "999", "instance": "prb11647", "end_time": "1.51675842539e+12", "optimal_length": "7", "subject": "A3NMQ3019X6YE0"}
{"rt": "65363.0", "trial_number": "0", "skipped": "False", "complete": "True", "assignment": "3YW4XOSQKRTI0K0Z2YPDTDJVFABU1I", "start_time": "1.51682345437e+12", "human_length": "7", "nodes_expanded": "999", "instance": "prb11647", "end_time": "1.51682351974e+12", "optimal_length": "7", "subject": "A15781PHGW377Y"}
{"rt": "10388.0", "trial_number": "0", "skipped": "False", "complete": "True", "assignment": "3TS1AR6UQRM7SOIBWPBN8N9589Y7FV", "start_time": "1.51683728172e+12", "human_length": "9", "nodes_expanded": "999", "instance": "prb11647", "end_time": "1.51683729211e+12", "optimal_length": "7", "subject": "A1F4N58CAX8IMK"}
{"rt": "9663.0", "trial_number": "1", "skipped": "False", "complete": "True", "assignment": "35DR22AR5ES6RR89U7EJ1DXW91AX3P", "start_time": "1.51795307729e+12", "human_length": "10", "nodes_expanded": "999", "instance": "prb11647", "end_time": "1.51795308695e+12", "optimal_length": "7", "subject": "A1F4N58CAX8IMK"}
{"rt": "8941.0", "trial_number": "0", "skipped": "False", "complete": "True", "assignment": "31LM9EDVOM0C0BWUVMJXJINN3QPJNI", "start_time": "1.51752391276e+12", "human_length": "9", "nodes_expanded": "999", "instance": "prb11647", "end_time": "1.5175239217e+12", "optimal_length": "7", "subject": "A1NT8BT94ME6F5"}
{"rt": "13331.0", "trial_number": "0", "skipped": "False", "complete": "True", "assignment": "37TD41K0AIHM8AITTQJXV8KY05QCSB", "start_time": "1.51752620822e+12", "human_length": "7", "nodes_expanded": "999", "instance": "prb11647", "end_time": "1.51752622155e+12", "optimal_length": "7", "subject": "A30KYQGABO7JER"}
{"rt": "23833.0", "trial_number": "0", "skipped": "False", "complete": "True", "assignment": "36H9ULYP6320CJJDXY0KBDEE1Z3JFB", "start_time": "1.51753323141e+12", "human_length": "9", "nodes_expanded": "999", "instance": "prb11647", "end_time": "1.51753325525e+12", "optimal_length": "7", "subject": "AN098C29EGJ6"}
{"rt": "29355.0", "trial_number": "0", "skipped": "False", "complete": "True", "assignment": "3TYCR1GOTDRCCQYD1V64UK7OHTBZLQ", "start_time": "1.51753577583e+12", "human_length": "21", "nodes_expanded": "999", "instance": "prb11647", "end_time": "1.51753580518e+12", "optimal_length": "7", "subject": "A13BZCNJ0WR1T7"}
{"rt": "26323.0", "trial_number": "0", "skipped": "False", "complete": "True", "assignment": "3TPWUS5F8A9FFRZ2DVTYSXNJ6BWWC6", "start_time": "1.51794152834e+12", "human_length": "14", "nodes_expanded": "999", "instance": "prb11647", "end_time": "1.51794155466e+12", "optimal_length": "7", "subject": "A3GXC3VG37CQ3G"}
{"rt": "10179.0", "trial_number": "0", "skipped": "False", "complete": "True", "assignment": "34HJIJKLP64Z5YMIU6IKNXSH7PDV4I", "start_time": "1.51794030307e+12", "human_length": "7", "nodes_expanded": "999", "instance": "prb11647", "end_time": "1.51794031325e+12", "optimal_length": "7", "subject": "A3CTXNQ2GXIQSP"}
{"rt": "41312.0", "trial_number": "0", "skipped": "True", "complete": "False", "assignment": "3U84XHCDIDLGEIRSV37N835DV0K4ZS", "start_time": "1.51794030872e+12", "human_length": "14", "nodes_expanded": "999", "instance": "prb11647", "end_time": "1.51794035003e+12", "optimal_length": "7", "subject": "A8KX1HFH8NE2Q"}
{"rt": "0.0", "trial_number": "0", "skipped": "False", "complete": "False", "assignment": "30IQTZXKALEAAZ9CBKW0ZFZP6O5X07", "start_time": "1.51794671384e+12", "human_length": "1", "nodes_expanded": "999", "instance": "prb11647", "end_time": "1.51794671384e+12", "optimal_length": "7", "subject": "A23XJ8I86R0O3B"}
{"rt": "2450.0", "trial_number": "1", "skipped": "False", "complete": "False", "assignment": "30IQTZXKALEAAZ9CBKW0ZFZP6O5X07", "start_time": "1.51794671386e+12", "human_length": "2", "nodes_expanded": "999", "instance": "prb11647", "end_time": "1.51794671632e+12", "optimal_length": "7", "subject": "A23XJ8I86R0O3B"}
{"rt": "8964.0", "trial_number": "2", "skipped": "False", "complete": "True", "assignment": "30IQTZXKALEAAZ9CBKW0ZFZP6O5X07", "start_time": "1.51794671774e+12", "human_length": "8", "nodes_expanded": "999", "instance": "prb11647", "end_time": "1.5179467267e+12", "optimal_length": "7", "subject": "A23XJ8I86R0O3B"}
{"rt": "12041.0", "trial_number": "0", "skipped": "False", "complete": "True", "assignment": "3STRJBFXOXZ5687WA35LTWTS7QZKTT", "start_time": "1.51794356306e+12", "human_length": "9", "nodes_expanded": "999", "instance": "prb11647", "end_time": "1.51794357511e+12", "optimal_length": "7", "subject": "A3OB6REG5CGHK1"}
{"rt": "14005.0", "trial_number": "0", "skipped": "False", "complete": "True", "assignment": "33PPO7FECWN7JOLBOAKUBCWTC0AIDL", "start_time": "1.51794832694e+12", "human_length": "8", "nodes_expanded": "999", "instance": "prb11647", "end_time": "1.51794834094e+12", "optimal_length": "7", "subject": "AXKM02NVXNGOM"}
{"rt": "11396.0", "trial_number": "0", "skipped": "False", "complete": "True", "assignment": "33F859I567LE8WC74WB3GA7E94XBHW", "start_time": "1.51796933847e+12", "human_length": "12", "nodes_expanded": "999", "instance": "prb11647", "end_time": "1.51796934987e+12", "optimal_length": "7", "subject": "A1GQS6USF2JEYG"}
{"rt": "20305.0", "trial_number": "0", "skipped": "False", "complete": "True", "assignment": "3IJXV6UZ1YR1KY4G6BFEG1DXR47RIC", "start_time": "1.51797335384e+12", "human_length": "20", "nodes_expanded": "999", "instance": "prb11647", "end_time": "1.51797337415e+12", "optimal_length": "7", "subject": "A18T3WK7J16C1B"}
{"rt": "7761.0", "trial_number": "0", "skipped": "False", "complete": "True", "assignment": "3FTF2T8WLSQDHTSZ1BJ7Q7MB14SW9H", "start_time": "1.51813724951e+12", "human_length": "8", "nodes_expanded": "999", "instance": "prb11647", "end_time": "1.51813725727e+12", "optimal_length": "7", "subject": "A1IUH9D7N69VS"}
{"rt": "14030.0", "trial_number": "0", "skipped": "False", "complete": "True", "assignment": "3XC1O3LBOTUGQEPEV3HM8W67X4RTLL", "start_time": "1.51813676628e+12", "human_length": "7", "nodes_expanded": "999", "instance": "prb11647", "end_time": "1.51813678031e+12", "optimal_length": "7", "subject": "A1ZTSCPETU3UJW"}
{"rt": "19667.0", "trial_number": "0", "skipped": "False", "complete": "True", "assignment": "3TAYZSBPLMG9ASQRWXURJVBCPLN2SH", "start_time": "1.51813770254e+12", "human_length": "12", "nodes_expanded": "999", "instance": "prb11647", "end_time": "1.51813772221e+12", "optimal_length": "7", "subject": "A2RCYLKY072XXO"}
{"rt": "31537.0", "trial_number": "0", "skipped": "False", "complete": "True", "assignment": "3ZSANO2JCGFTBM23KS9Y3E51YP4FSQ", "start_time": "1.51814334834e+12", "human_length": "8", "nodes_expanded": "999", "instance": "prb11647", "end_time": "1.51814337988e+12", "optimal_length": "7", "subject": "A1F42D4L22K5ND"}
{"rt": "17495.0", "trial_number": "0", "skipped": "False", "complete": "True", "assignment": "3XLBSAQ9Z5KDX59BX15UBFPNNHYZ7Q", "start_time": "1.51814612981e+12", "human_length": "15", "nodes_expanded": "999", "instance": "prb11647", "end_time": "1.51814614731e+12", "optimal_length": "7", "subject": "A1HFNOKU591WCY"}
{"rt": "0.0", "trial_number": "0", "skipped": "False", "complete": "False", "assignment": "3EWIJTFFVPF14ZIVGF68BQEIRXP0ER", "start_time": "1.51814799165e+12", "human_length": "1", "nodes_expanded": "999", "instance": "prb11647", "end_time": "1.51814799165e+12", "optimal_length": "7", "subject": "A30AGR5KF8IEL"}
{"rt": "0.0", "trial_number": "1", "skipped": "False", "complete": "False", "assignment": "3EWIJTFFVPF14ZIVGF68BQEIRXP0ER", "start_time": "1.51814799167e+12", "human_length": "1", "nodes_expanded": "999", "instance": "prb11647", "end_time": "1.51814799167e+12", "optimal_length": "7", "subject": "A30AGR5KF8IEL"}
{"rt": "0.0", "trial_number": "2", "skipped": "False", "complete": "False", "assignment": "3EWIJTFFVPF14ZIVGF68BQEIRXP0ER", "start_time": "1.51814799168e+12", "human_length": "1", "nodes_expanded": "999", "instance": "prb11647", "end_time": "1.51814799168e+12", "optimal_length": "7", "subject": "A30AGR5KF8IEL"}
{"rt": "33707.0", "trial_number": "3", "skipped": "False", "complete": "False", "assignment": "3EWIJTFFVPF14ZIVGF68BQEIRXP0ER", "start_time": "1.51814799169e+12", "human_length": "7", "nodes_expanded": "999", "instance": "prb11647", "end_time": "1.51814802539e+12", "optimal_length": "7", "subject": "A30AGR5KF8IEL"}
{"rt": "0.0", "trial_number": "4", "skipped": "False", "complete": "False", "assignment": "3EWIJTFFVPF14ZIVGF68BQEIRXP0ER", "start_time": "1.51814805091e+12", "human_length": "1", "nodes_expanded": "999", "instance": "prb11647", "end_time": "1.51814805091e+12", "optimal_length": "7", "subject": "A30AGR5KF8IEL"}
{"rt": "0.0", "trial_number": "5", "skipped": "False", "complete": "False", "assignment": "3EWIJTFFVPF14ZIVGF68BQEIRXP0ER", "start_time": "1.51814805092e+12", "human_length": "1", "nodes_expanded": "999", "instance": "prb11647", "end_time": "1.51814805092e+12", "optimal_length": "7", "subject": "A30AGR5KF8IEL"}
{"rt": "0.0", "trial_number": "6", "skipped": "False", "complete": "False", "assignment": "3EWIJTFFVPF14ZIVGF68BQEIRXP0ER", "start_time": "1.51814805093e+12", "human_length": "1", "nodes_expanded": "999", "instance": "prb11647", "end_time": "1.51814805093e+12", "optimal_length": "7", "subject": "A30AGR5KF8IEL"}
{"rt": "0.0", "trial_number": "7", "skipped": "False", "complete": "False", "assignment": "3EWIJTFFVPF14ZIVGF68BQEIRXP0ER", "start_time": "1.51814805095e+12", "human_length": "1", "nodes_expanded": "999", "instance": "prb11647", "end_time": "1.51814805095e+12", "optimal_length": "7", "subject": "A30AGR5KF8IEL"}
{"rt": "0.0", "trial_number": "8", "skipped": "False", "complete": "False", "assignment": "3EWIJTFFVPF14ZIVGF68BQEIRXP0ER", "start_time": "1.51814805096e+12", "human_length": "1", "nodes_expanded": "999", "instance": "prb11647", "end_time": "1.51814805096e+12", "optimal_length": "7", "subject": "A30AGR5KF8IEL"}
{"rt": "26799.0", "trial_number": "9", "skipped": "False", "complete": "False", "assignment": "3EWIJTFFVPF14ZIVGF68BQEIRXP0ER", "start_time": "1.51814805096e+12", "human_length": "8", "nodes_expanded": "999", "instance": "prb11647", "end_time": "1.51814807776e+12", "optimal_length": "7", "subject": "A30AGR5KF8IEL"}
{"rt": "0.0", "trial_number": "10", "skipped": "False", "complete": "False", "assignment": "3EWIJTFFVPF14ZIVGF68BQEIRXP0ER", "start_time": "1.51814809968e+12", "human_length": "1", "nodes_expanded": "999", "instance": "prb11647", "end_time": "1.51814809968e+12", "optimal_length": "7", "subject": "A30AGR5KF8IEL"}
{"rt": "0.0", "trial_number": "11", "skipped": "False", "complete": "False", "assignment": "3EWIJTFFVPF14ZIVGF68BQEIRXP0ER", "start_time": "1.51814809969e+12", "human_length": "1", "nodes_expanded": "999", "instance": "prb11647", "end_time": "1.51814809969e+12", "optimal_length": "7", "subject": "A30AGR5KF8IEL"}
{"rt": "0.0", "trial_number": "12", "skipped": "False", "complete": "False", "assignment": "3EWIJTFFVPF14ZIVGF68BQEIRXP0ER", "start_time": "1.5181480997e+12", "human_length": "1", "nodes_expanded": "999", "instance": "prb11647", "end_time": "1.5181480997e+12", "optimal_length": "7", "subject": "A30AGR5KF8IEL"}
{"rt": "0.0", "trial_number": "13", "skipped": "False", "complete": "False", "assignment": "3EWIJTFFVPF14ZIVGF68BQEIRXP0ER", "start_time": "1.51814809973e+12", "human_length": "1", "nodes_expanded": "999", "instance": "prb11647", "end_time": "1.51814809973e+12", "optimal_length": "7", "subject": "A30AGR5KF8IEL"}
{"rt": "0.0", "trial_number": "14", "skipped": "False", "complete": "False", "assignment": "3EWIJTFFVPF14ZIVGF68BQEIRXP0ER", "start_time": "1.51814809974e+12", "human_length": "1", "nodes_expanded": "999", "instance": "prb11647", "end_time": "1.51814809974e+12", "optimal_length": "7", "subject": "A30AGR5KF8IEL"}
{"rt": "14247.0", "trial_number": "15", "skipped": "True", "complete": "False", "assignment": "3EWIJTFFVPF14ZIVGF68BQEIRXP0ER", "start_time": "1.51814809975e+12", "human_length": "5", "nodes_expanded": "999", "instance": "prb11647", "end_time": "1.518148114e+12", "optimal_length": "7", "subject": "A30AGR5KF8IEL"}
{"rt": "0.0", "trial_number": "0", "skipped": "False", "complete": "False", "assignment": "3RUIQRXJBCWS71H9MUFVM5WQ3SCLLJ", "start_time": "1.51815797509e+12", "human_length": "1", "nodes_expanded": "999", "instance": "prb11647", "end_time": "1.51815797509e+12", "optimal_length": "7", "subject": "A1SJRFJWFXSDH4"}
{"rt": "0.0", "trial_number": "1", "skipped": "False", "complete": "False", "assignment": "3RUIQRXJBCWS71H9MUFVM5WQ3SCLLJ", "start_time": "1.51815797512e+12", "human_length": "1", "nodes_expanded": "999", "instance": "prb11647", "end_time": "1.51815797512e+12", "optimal_length": "7", "subject": "A1SJRFJWFXSDH4"}
{"rt": "14653.0", "trial_number": "2", "skipped": "False", "complete": "True", "assignment": "3RUIQRXJBCWS71H9MUFVM5WQ3SCLLJ", "start_time": "1.51815797611e+12", "human_length": "10", "nodes_expanded": "999", "instance": "prb11647", "end_time": "1.51815799076e+12", "optimal_length": "7", "subject": "A1SJRFJWFXSDH4"}
{"rt": "28077.0", "trial_number": "0", "skipped": "False", "complete": "True", "assignment": "37QW5D2ZRHUKW7SGCE3STMOFBMK8SX", "start_time": "1.51815853916e+12", "human_length": "18", "nodes_expanded": "999", "instance": "prb11647", "end_time": "1.51815856723e+12", "optimal_length": "7", "subject": "AMW2XLD9443OH"}
{"rt": "57888.0", "trial_number": "0", "skipped": "False", "complete": "False", "assignment": "3M0BCWMB8W4W5M7WZVX3HDH1P53WB1", "start_time": "1.51815904148e+12", "human_length": "33", "nodes_expanded": "999", "instance": "prb11647", "end_time": "1.51815909937e+12", "optimal_length": "7", "subject": "A53S7J4JGWG38"}
{"rt": "31741.0", "trial_number": "1", "skipped": "False", "complete": "True", "assignment": "3M0BCWMB8W4W5M7WZVX3HDH1P53WB1", "start_time": "1.51815910144e+12", "human_length": "8", "nodes_expanded": "999", "instance": "prb11647", "end_time": "1.51815913318e+12", "optimal_length": "7", "subject": "A53S7J4JGWG38"}
{"rt": "12795.0", "trial_number": "0", "skipped": "False", "complete": "True", "assignment": "3SITXWYCNWHBUMCM90TPJWV8Y7AXBW", "start_time": "1.51816657154e+12", "human_length": "8", "nodes_expanded": "999", "instance": "prb11647", "end_time": "1.51816658433e+12", "optimal_length": "7", "subject": "A28RX7L0QZ993M"}
{"rt": "6028.0", "trial_number": "0", "skipped": "False", "complete": "True", "assignment": "3IXEICO793RY7TM78ZBKJDOA7ADT6Q", "start_time": "1.51816860537e+12", "human_length": "8", "nodes_expanded": "999", "instance": "prb11647", "end_time": "1.51816861139e+12", "optimal_length": "7", "subject": "ALH1K6ZAQQMN7"}
