{"rt": "161387.0", "trial_number": "0", "skipped": "False", "complete": "True", "assignment": "36AHBNMV1SKT9O0GSS6XX0QHZV3YDN", "start_time": "1.51630540483e+12", "human_length": "7", "nodes_expanded": "999", "instance": "prb13171", "end_time": "1.51630556622e+12", "optimal_length": "7", "subject": "A39GADIK8RLMVC"}
{"rt": "18884.0", "trial_number": "0", "skipped": "False", "complete": "True", "assignment": "3ZV9H2YQQEFR2R3JK2IXZUJPXAF3WW", "start_time": "1.51630735799e+12", "human_length": "9", "nodes_expanded": "999", "instance": "prb13171", "end_time": "1.51630737687e+12", "optimal_length": "7", "subject": "A289D98Z4GAZ28"}
{"rt": "12021.0", "trial_number": "0", "skipped": "False", "complete": "True", "assignment": "3ON104KXQL4CKNMNKGNG9ZBVBAB4WI", "start_time": "1.51631255637e+12", "human_length": "9", "nodes_expanded": "999", "instance": "prb13171", "end_time": "1.51631256839e+12", "optimal_length": "7", "subject": "AYPOAY43REHC8"}
{"rt": "11171.0", "trial_number": "0", "skipped": "False", "complete": "True", "assignment": "3PMBY0YE28B43VMUKKJ6EDF85RV9C8", "start_time": "1.51638686886e+12", "human_length": "11", "nodes_expanded": "999", "instance": "prb13171", "end_time": "1.51638688004e+12", "optimal_length": "7", "subject": "A191V7PT3DQKDP"}
{"rt": "9942.0", "trial_number": "0", "skipped": "False", "complete": "True", "assignment": "3TYCR1GOTDRCCQYD1V64UK7OE48LZS", "start_time": "1.51639060920e+12", "human_length": "9", "nodes_expanded": "999", "instance": "prb13171", "end_time": "1.51639061915e+12", "optimal_length": "7", "subject": "A2MYB6MLQW0IGN"}
{"rt": "6535.0", "trial_number": "0", "skipped": "False", "complete": "True", "assignment": "34BBWHLWHBJ6SUL255PK30LEGY5IWG", "start_time": "1.51639438788e+12", "human_length": "7", "nodes_expanded": "999", "instance": "prb13171", "end_time": "1.51639439442e+12", "optimal_length": "7", "subject": "A214HWAW1PYWO8"}
{"rt": "0.0", "trial_number": "0", "skipped": "False", "complete": "False", "assignment": "3VE8AYVF8N5BS2NU6U3TMN50JMNF8V", "start_time": "1.51673576423e+12", "human_length": "1", "nodes_expanded": "999", "instance": "prb13171", "end_time": "1.51673576423e+12", "optimal_length": "7", "subject": "A18QU0YQB6Q8DF"}
{"rt": "0.0", "trial_number": "1", "skipped": "False", "complete": "False", "assignment": "3VE8AYVF8N5BS2NU6U3TMN50JMNF8V", "start_time": "1.51673576423e+12", "human_length": "1", "nodes_expanded": "999", "instance": "prb13171", "end_time": "1.51673576423e+12", "optimal_length": "7", "subject": "A18QU0YQB6Q8DF"}
{"rt": "14761.0", "trial_number": "2", "skipped": "False", "complete": "True", "assignment": "3VE8AYVF8N5BS2NU6U3TMN50JMNF8V", "start_time": "1.51673576423e+12", "human_length": "7", "nodes_expanded": "999", "instance": "prb13171", "end_time": "1.51673577899e+12", "optimal_length": "7", "subject": "A18QU0YQB6Q8DF"}
{"rt": "0.0", "trial_number": "0", "skipped": "False", "complete": "False", "assignment": "3X87C8JFV7JQ2BSCY8KSFD9F2ILSQK", "start_time": "1.51674031621e+12", "human_length": "1", "nodes_expanded": "999", "instance": "prb13171", "end_time": "1.51674031621e+12", "optimal_length": "7", "subject": "A3Q0XAGQ7TD7MP"}
{"rt": "0.0", "trial_number": "1", "skipped": "False", "complete": "False", "assignment": "3X87C8JFV7JQ2BSCY8KSFD9F2ILSQK", "start_time": "1.51674031621e+12", "human_length": "1", "nodes_expanded": "999", "instance": "prb13171", "end_time": "1.51674031621e+12", "optimal_length": "7", "subject": "A3Q0XAGQ7TD7MP"}
{"rt": "11629.0", "trial_number": "2", "skipped": "False", "complete": "True", "assignment": "3X87C8JFV7JQ2BSCY8KSFD9F2ILSQK", "start_time": "1.51674031621e+12", "human_length": "7", "nodes_expanded": "999", "instance": "prb13171", "end_time": "1.51674032784e+12", "optimal_length": "7", "subject": "A3Q0XAGQ7TD7MP"}
{"rt": "11466.0", "trial_number": "3", "skipped": "False", "complete": "True", "assignment": "3GLB5JMZFY3TNXFGYMKRQ0JDXNTDGZ", "start_time": "1.51794524397e+12", "human_length": "7", "nodes_expanded": "999", "instance": "prb13171", "end_time": "1.51794525544e+12", "optimal_length": "7", "subject": "A3Q0XAGQ7TD7MP"}
{"rt": "0.0", "trial_number": "0", "skipped": "False", "complete": "False", "assignment": "3WSELTNVR4AZUVYAYCSWZIQW0J4ATB", "start_time": "1.51674049481e+12", "human_length": "1", "nodes_expanded": "999", "instance": "prb13171", "end_time": "1.51674049481e+12", "optimal_length": "7", "subject": "A2TQNX64349OZ9"}
{"rt": "0.0", "trial_number": "1", "skipped": "False", "complete": "False", "assignment": "3WSELTNVR4AZUVYAYCSWZIQW0J4ATB", "start_time": "1.51674049481e+12", "human_length": "1", "nodes_expanded": "999", "instance": "prb13171", "end_time": "1.51674049481e+12", "optimal_length": "7", "subject": "A2TQNX64349OZ9"}
{"rt": "7045.0", "trial_number": "2", "skipped": "False", "complete": "True", "assignment": "3WSELTNVR4AZUVYAYCSWZIQW0J4ATB", "start_time": "1.51674049481e+12", "human_length": "8", "nodes_expanded": "999", "instance": "prb13171", "end_time": "1.51674050186e+12", "optimal_length": "7", "subject": "A2TQNX64349OZ9"}
{"rt": "0.0", "trial_number": "0", "skipped": "False", "complete": "False", "assignment": "3X87C8JFV7JQ2BSCY8KSFD9F2ILSQK", "start_time": "1.51674805462e+12", "human_length": "1", "nodes_expanded": "999", "instance": "prb13171", "end_time": "1.51674805462e+12", "optimal_length": "7", "subject": "A21S7MA9DCW95E"}
{"rt": "0.0", "trial_number": "1", "skipped": "False", "complete": "False", "assignment": "3X87C8JFV7JQ2BSCY8KSFD9F2ILSQK", "start_time": "1.51674805462e+12", "human_length": "1", "nodes_expanded": "999", "instance": "prb13171", "end_time": "1.51674805462e+12", "optimal_length": "7", "subject": "A21S7MA9DCW95E"}
{"rt": "8331.0", "trial_number": "2", "skipped": "False", "complete": "True", "assignment": "3X87C8JFV7JQ2BSCY8KSFD9F2ILSQK", "start_time": "1.51674805462e+12", "human_length": "8", "nodes_expanded": "999", "instance": "prb13171", "end_time": "1.51674806295e+12", "optimal_length": "7", "subject": "A21S7MA9DCW95E"}
{"rt": "0.0", "trial_number": "0", "skipped": "False", "complete": "False", "assignment": "3IJXV6UZ1YR1KY4G6BFEG1DXP7SRI1", "start_time": "1.51675017892e+12", "human_length": "1", "nodes_expanded": "999", "instance": "prb13171", "end_time": "1.51675017892e+12", "optimal_length": "7", "subject": "A2RTJ6BDY0DZVZ"}
{"rt": "0.0", "trial_number": "1", "skipped": "False", "complete": "False", "assignment": "3IJXV6UZ1YR1KY4G6BFEG1DXP7SRI1", "start_time": "1.51675017892e+12", "human_length": "1", "nodes_expanded": "999", "instance": "prb13171", "end_time": "1.51675017892e+12", "optimal_length": "7", "subject": "A2RTJ6BDY0DZVZ"}
{"rt": "8953.0", "trial_number": "2", "skipped": "False", "complete": "True", "assignment": "3IJXV6UZ1YR1KY4G6BFEG1DXP7SRI1", "start_time": "1.51675017892e+12", "human_length": "7", "nodes_expanded": "999", "instance": "prb13171", "end_time": "1.51675018787e+12", "optimal_length": "7", "subject": "A2RTJ6BDY0DZVZ"}
{"rt": "0.0", "trial_number": "0", "skipped": "False", "complete": "False", "assignment": "3I2PTA7R3U2SESF4TZBQORI5LSJQKK", "start_time": "1.51676114585e+12", "human_length": "1", "nodes_expanded": "999", "instance": "prb13171", "end_time": "1.51676114585e+12", "optimal_length": "7", "subject": "A3NMQ3019X6YE0"}
{"rt": "0.0", "trial_number": "1", "skipped": "False", "complete": "False", "assignment": "3I2PTA7R3U2SESF4TZBQORI5LSJQKK", "start_time": "1.51676114592e+12", "human_length": "1", "nodes_expanded": "999", "instance": "prb13171", "end_time": "1.51676114592e+12", "optimal_length": "7", "subject": "A3NMQ3019X6YE0"}
{"rt": "0.0", "trial_number": "2", "skipped": "False", "complete": "False", "assignment": "3I2PTA7R3U2SESF4TZBQORI5LSJQKK", "start_time": "1.51676114598e+12", "human_length": "1", "nodes_expanded": "999", "instance": "prb13171", "end_time": "1.51676114598e+12", "optimal_length": "7", "subject": "A3NMQ3019X6YE0"}
{"rt": "0.0", "trial_number": "3", "skipped": "False", "complete": "False", "assignment": "3I2PTA7R3U2SESF4TZBQORI5LSJQKK", "start_time": "1.51676114607e+12", "human_length": "1", "nodes_expanded": "999", "instance": "prb13171", "end_time": "1.51676114607e+12", "optimal_length": "7", "subject": "A3NMQ3019X6YE0"}
{"rt": "0.0", "trial_number": "4", "skipped": "False", "complete": "False", "assignment": "3I2PTA7R3U2SESF4TZBQORI5LSJQKK", "start_time": "1.51676114618e+12", "human_length": "1", "nodes_expanded": "999", "instance": "prb13171", "end_time": "1.51676114618e+12", "optimal_length": "7", "subject": "A3NMQ3019X6YE0"}
{"rt": "7290.0", "trial_number": "5", "skipped": "False", "complete": "False", "assignment": "3I2PTA7R3U2SESF4TZBQORI5LSJQKK", "start_time": "1.51676114712e+12", "human_length": "4", "nodes_expanded": "999", "instance": "prb13171", "end_time": "1.51676115441e+12", "optimal_length": "7", "subject": "A3NMQ3019X6YE0"}
{"rt": "0.0", "trial_number": "6", "skipped": "False", "complete": "False", "assignment": "3I2PTA7R3U2SESF4TZBQORI5LSJQKK", "start_time": "1.51676120054e+12", "human_length": "1", "nodes_expanded": "999", "instance": "prb13171", "end_time": "1.51676120054e+12", "optimal_length": "7", "subject": "A3NMQ3019X6YE0"}
{"rt": "0.0", "trial_number": "7", "skipped": "False", "complete": "False", "assignment": "3I2PTA7R3U2SESF4TZBQORI5LSJQKK", "start_time": "1.51676114585e+12", "human_length": "1", "nodes_expanded": "999", "instance": "prb13171", "end_time": "1.51676114585e+12", "optimal_length": "7", "subject": "A3NMQ3019X6YE0"}
{"rt": "0.0", "trial_number": "8", "skipped": "False", "complete": "False", "assignment": "3I2PTA7R3U2SESF4TZBQORI5LSJQKK", "start_time": "1.51676114592e+12", "human_length": "1", "nodes_expanded": "999", "instance": "prb13171", "end_time": "1.51676114592e+12", "optimal_length": "7", "subject": "A3NMQ3019X6YE0"}
{"rt": "0.0", "trial_number": "9", "skipped": "False", "complete": "False", "assignment": "3I2PTA7R3U2SESF4TZBQORI5LSJQKK", "start_time": "1.51676114598e+12", "human_length": "1", "nodes_expanded": "999", "instance": "prb13171", "end_time": "1.51676114598e+12", "optimal_length": "7", "subject": "A3NMQ3019X6YE0"}
{"rt": "0.0", "trial_number": "10", "skipped": "False", "complete": "False", "assignment": "3I2PTA7R3U2SESF4TZBQORI5LSJQKK", "start_time": "1.51676114607e+12", "human_length": "1", "nodes_expanded": "999", "instance": "prb13171", "end_time": "1.51676114607e+12", "optimal_length": "7", "subject": "A3NMQ3019X6YE0"}
{"rt": "0.0", "trial_number": "11", "skipped": "False", "complete": "False", "assignment": "3I2PTA7R3U2SESF4TZBQORI5LSJQKK", "start_time": "1.51676114618e+12", "human_length": "1", "nodes_expanded": "999", "instance": "prb13171", "end_time": "1.51676114618e+12", "optimal_length": "7", "subject": "A3NMQ3019X6YE0"}
{"rt": "0.0", "trial_number": "12", "skipped": "False", "complete": "False", "assignment": "3I2PTA7R3U2SESF4TZBQORI5LSJQKK", "start_time": "1.51676114712e+12", "human_length": "1", "nodes_expanded": "999", "instance": "prb13171", "end_time": "1.51676114712e+12", "optimal_length": "7", "subject": "A3NMQ3019X6YE0"}
{"rt": "0.0", "trial_number": "13", "skipped": "False", "complete": "False", "assignment": "3I2PTA7R3U2SESF4TZBQORI5LSJQKK", "start_time": "1.51676120054e+12", "human_length": "1", "nodes_expanded": "999", "instance": "prb13171", "end_time": "1.51676120054e+12", "optimal_length": "7", "subject": "A3NMQ3019X6YE0"}
{"rt": "0.0", "trial_number": "14", "skipped": "False", "complete": "False", "assignment": "3I2PTA7R3U2SESF4TZBQORI5LSJQKK", "start_time": "1.51676114585e+12", "human_length": "1", "nodes_expanded": "999", "instance": "prb13171", "end_time": "1.51676114585e+12", "optimal_length": "7", "subject": "A3NMQ3019X6YE0"}
{"rt": "0.0", "trial_number": "15", "skipped": "False", "complete": "False", "assignment": "3I2PTA7R3U2SESF4TZBQORI5LSJQKK", "start_time": "1.51676114592e+12", "human_length": "1", "nodes_expanded": "999", "instance": "prb13171", "end_time": "1.51676114592e+12", "optimal_length": "7", "subject": "A3NMQ3019X6YE0"}
{"rt": "0.0", "trial_number": "16", "skipped": "False", "complete": "False", "assignment": "3I2PTA7R3U2SESF4TZBQORI5LSJQKK", "start_time": "1.51676114598e+12", "human_length": "1", "nodes_expanded": "999", "instance": "prb13171", "end_time": "1.51676114598e+12", "optimal_length": "7", "subject": "A3NMQ3019X6YE0"}
{"rt": "0.0", "trial_number": "17", "skipped": "False", "complete": "False", "assignment": "3I2PTA7R3U2SESF4TZBQORI5LSJQKK", "start_time": "1.51676114607e+12", "human_length": "1", "nodes_expanded": "999", "instance": "prb13171", "end_time": "1.51676114607e+12", "optimal_length": "7", "subject": "A3NMQ3019X6YE0"}
{"rt": "0.0", "trial_number": "18", "skipped": "False", "complete": "False", "assignment": "3I2PTA7R3U2SESF4TZBQORI5LSJQKK", "start_time": "1.51676114618e+12", "human_length": "1", "nodes_expanded": "999", "instance": "prb13171", "end_time": "1.51676114618e+12", "optimal_length": "7", "subject": "A3NMQ3019X6YE0"}
{"rt": "0.0", "trial_number": "19", "skipped": "False", "complete": "False", "assignment": "3I2PTA7R3U2SESF4TZBQORI5LSJQKK", "start_time": "1.51676114712e+12", "human_length": "1", "nodes_expanded": "999", "instance": "prb13171", "end_time": "1.51676114712e+12", "optimal_length": "7", "subject": "A3NMQ3019X6YE0"}
{"rt": "36635.0", "trial_number": "20", "skipped": "False", "complete": "True", "assignment": "3I2PTA7R3U2SESF4TZBQORI5LSJQKK", "start_time": "1.51676120054e+12", "human_length": "22", "nodes_expanded": "999", "instance": "prb13171", "end_time": "1.51676123717e+12", "optimal_length": "7", "subject": "A3NMQ3019X6YE0"}
{"rt": "10920.0", "trial_number": "21", "skipped": "False", "complete": "True", "assignment": "3V5Q80FXIYZ5QB5C6ITQBN30WY823U", "start_time": "1.51753334844e+12", "human_length": "8", "nodes_expanded": "999", "instance": "prb13171", "end_time": "1.51753335936e+12", "optimal_length": "7", "subject": "A3NMQ3019X6YE0"}
{"rt": "0.0", "trial_number": "0", "skipped": "False", "complete": "False", "assignment": "3X4MXAO0BHWJLTOLVSJTHSM54OHWRG", "start_time": "1.51682311752e+12", "human_length": "1", "nodes_expanded": "999", "instance": "prb13171", "end_time": "1.51682311752e+12", "optimal_length": "7", "subject": "A2IBQA01NR5N76"}
{"rt": "9959.0", "trial_number": "1", "skipped": "False", "complete": "True", "assignment": "3X4MXAO0BHWJLTOLVSJTHSM54OHWRG", "start_time": "1.51682311752e+12", "human_length": "8", "nodes_expanded": "999", "instance": "prb13171", "end_time": "1.51682312748e+12", "optimal_length": "7", "subject": "A2IBQA01NR5N76"}
{"rt": "9959.0", "trial_number": "0", "skipped": "False", "complete": "True", "assignment": "3X4MXAO0BHWJLTOLVSJTHSM54OHWRG", "start_time": "1.51682311752e+12", "human_length": "8", "nodes_expanded": "999", "instance": "prb13171", "end_time": "1.51682312748e+12", "optimal_length": "7", "subject": "A2IBQA01NR5N76"}
{"rt": "0.0", "trial_number": "0", "skipped": "False", "complete": "False", "assignment": "3IHR8NYAM89M0EPM8U9LH53ZJDTP4U", "start_time": "1.51682673138e+12", "human_length": "1", "nodes_expanded": "999", "instance": "prb13171", "end_time": "1.51682673138e+12", "optimal_length": "7", "subject": "A23437BMZ5T1FH"}
{"rt": "8585.0", "trial_number": "1", "skipped": "False", "complete": "True", "assignment": "3IHR8NYAM89M0EPM8U9LH53ZJDTP4U", "start_time": "1.51682673138e+12", "human_length": "11", "nodes_expanded": "999", "instance": "prb13171", "end_time": "1.51682673997e+12", "optimal_length": "7", "subject": "A23437BMZ5T1FH"}
{"rt": "0.0", "trial_number": "0", "skipped": "False", "complete": "False", "assignment": "3YW4XOSQKRTI0K0Z2YPDTDJVFABU1I", "start_time": "1.51683020295e+12", "human_length": "1", "nodes_expanded": "999", "instance": "prb13171", "end_time": "1.51683020295e+12", "optimal_length": "7", "subject": "A1LR0VQIHQUJAM"}
{"rt": "7586.0", "trial_number": "1", "skipped": "False", "complete": "True", "assignment": "3YW4XOSQKRTI0K0Z2YPDTDJVFABU1I", "start_time": "1.51683020295e+12", "human_length": "7", "nodes_expanded": "999", "instance": "prb13171", "end_time": "1.51683021054e+12", "optimal_length": "7", "subject": "A1LR0VQIHQUJAM"}
{"rt": "14761.0", "trial_number": "0", "skipped": "False", "complete": "True", "assignment": "3VE8AYVF8N5BS2NU6U3TMN50JMNF8V", "start_time": "1.51673576423e+12", "human_length": "7", "nodes_expanded": "999", "instance": "prb13171", "end_time": "1.51673577899e+12", "optimal_length": "7", "subject": "A18QU0YQB6Q8DF"}
{"rt": "11629.0", "trial_number": "0", "skipped": "False", "complete": "True", "assignment": "3X87C8JFV7JQ2BSCY8KSFD9F2ILSQK", "start_time": "1.51674031621e+12", "human_length": "7", "nodes_expanded": "999", "instance": "prb13171", "end_time": "1.51674032784e+12", "optimal_length": "7", "subject": "A3Q0XAGQ7TD7MP"}
{"rt": "11466.0", "trial_number": "1", "skipped": "False", "complete": "True", "assignment": "3GLB5JMZFY3TNXFGYMKRQ0JDXNTDGZ", "start_time": "1.51794524397e+12", "human_length": "7", "nodes_expanded": "999", "instance": "prb13171", "end_time": "1.51794525544e+12", "optimal_length": "7", "subject": "A3Q0XAGQ7TD7MP"}
{"rt": "7045.0", "trial_number": "0", "skipped": "False", "complete": "True", "assignment": "3WSELTNVR4AZUVYAYCSWZIQW0J4ATB", "start_time": "1.51674049481e+12", "human_length": "8", "nodes_expanded": "999", "instance": "prb13171", "end_time": "1.51674050186e+12", "optimal_length": "7", "subject": "A2TQNX64349OZ9"}
{"rt": "8331.0", "trial_number": "0", "skipped": "False", "complete": "True", "assignment": "3X87C8JFV7JQ2BSCY8KSFD9F2ILSQK", "start_time": "1.51674805462e+12", "human_length": "8", "nodes_expanded": "999", "instance": "prb13171", "end_time": "1.51674806295e+12", "optimal_length": "7", "subject": "A21S7MA9DCW95E"}
{"rt": "8953.0", "trial_number": "0", "skipped": "False", "complete": "True", "assignment": "3IJXV6UZ1YR1KY4G6BFEG1DXP7SRI1", "start_time": "1.51675017892e+12", "human_length": "7", "nodes_expanded": "999", "instance": "prb13171", "end_time": "1.51675018787e+12", "optimal_length": "7", "subject": "A2RTJ6BDY0DZVZ"}
{"rt": "0.0", "trial_number": "0", "skipped": "False", "complete": "False", "assignment": "3I2PTA7R3U2SESF4TZBQORI5LSJQKK", "start_time": "1.51676114585e+12", "human_length": "1", "nodes_expanded": "999", "instance": "prb13171", "end_time": "1.51676114585e+12", "optimal_length": "7", "subject": "A3NMQ3019X6YE0"}
{"rt": "0.0", "trial_number": "1", "skipped": "False", "complete": "False", "assignment": "3I2PTA7R3U2SESF4TZBQORI5LSJQKK", "start_time": "1.51676114592e+12", "human_length": "1", "nodes_expanded": "999", "instance": "prb13171", "end_time": "1.51676114592e+12", "optimal_length": "7", "subject": "A3NMQ3019X6YE0"}
{"rt": "0.0", "trial_number": "2", "skipped": "False", "complete": "False", "assignment": "3I2PTA7R3U2SESF4TZBQORI5LSJQKK", "start_time": "1.51676114598e+12", "human_length": "1", "nodes_expanded": "999", "instance": "prb13171", "end_time": "1.51676114598e+12", "optimal_length": "7", "subject": "A3NMQ3019X6YE0"}
{"rt": "0.0", "trial_number": "3", "skipped": "False", "complete": "False", "assignment": "3I2PTA7R3U2SESF4TZBQORI5LSJQKK", "start_time": "1.51676114607e+12", "human_length": "1", "nodes_expanded": "999", "instance": "prb13171", "end_time": "1.51676114607e+12", "optimal_length": "7", "subject": "A3NMQ3019X6YE0"}
{"rt": "0.0", "trial_number": "4", "skipped": "False", "complete": "False", "assignment": "3I2PTA7R3U2SESF4TZBQORI5LSJQKK", "start_time": "1.51676114618e+12", "human_length": "1", "nodes_expanded": "999", "instance": "prb13171", "end_time": "1.51676114618e+12", "optimal_length": "7", "subject": "A3NMQ3019X6YE0"}
{"rt": "7290.0", "trial_number": "5", "skipped": "False", "complete": "False", "assignment": "3I2PTA7R3U2SESF4TZBQORI5LSJQKK", "start_time": "1.51676114712e+12", "human_length": "4", "nodes_expanded": "999", "instance": "prb13171", "end_time": "1.51676115441e+12", "optimal_length": "7", "subject": "A3NMQ3019X6YE0"}
{"rt": "36635.0", "trial_number": "6", "skipped": "False", "complete": "True", "assignment": "3I2PTA7R3U2SESF4TZBQORI5LSJQKK", "start_time": "1.51676120054e+12", "human_length": "22", "nodes_expanded": "999", "instance": "prb13171", "end_time": "1.51676123717e+12", "optimal_length": "7", "subject": "A3NMQ3019X6YE0"}
{"rt": "10920.0", "trial_number": "7", "skipped": "False", "complete": "True", "assignment": "3V5Q80FXIYZ5QB5C6ITQBN30WY823U", "start_time": "1.51753334844e+12", "human_length": "8", "nodes_expanded": "999", "instance": "prb13171", "end_time": "1.51753335936e+12", "optimal_length": "7", "subject": "A3NMQ3019X6YE0"}
{"rt": "8694.0", "trial_number": "0", "skipped": "False", "complete": "True", "assignment": "3TS1AR6UQRM7SOIBWPBN8N9589Y7FV", "start_time": "1.51683770885e+12", "human_length": "8", "nodes_expanded": "999", "instance": "prb13171", "end_time": "1.51683771754e+12", "optimal_length": "7", "subject": "A1F4N58CAX8IMK"}
{"rt": "7020.0", "trial_number": "1", "skipped": "False", "complete": "True", "assignment": "35DR22AR5ES6RR89U7EJ1DXW91AX3P", "start_time": "1.51795245711e+12", "human_length": "8", "nodes_expanded": "999", "instance": "prb13171", "end_time": "1.51795246413e+12", "optimal_length": "7", "subject": "A1F4N58CAX8IMK"}
{"rt": "20210.0", "trial_number": "0", "skipped": "False", "complete": "True", "assignment": "3M0BCWMB8W4W5M7WZVX3HDH1M3FBWL", "start_time": "1.51683879246e+12", "human_length": "7", "nodes_expanded": "999", "instance": "prb13171", "end_time": "1.51683881267e+12", "optimal_length": "7", "subject": "A1XDMS0KFSF5JW"}
{"rt": "33881.0", "trial_number": "0", "skipped": "False", "complete": "True", "assignment": "3TS1AR6UQRM7SOIBWPBN8N9589Y7FV", "start_time": "1.51684483183e+12", "human_length": "12", "nodes_expanded": "999", "instance": "prb13171", "end_time": "1.51684486571e+12", "optimal_length": "7", "subject": "A15FXHC1CVNW31"}
{"rt": "9292.0", "trial_number": "0", "skipped": "False", "complete": "True", "assignment": "31LM9EDVOM0C0BWUVMJXJINN3QPJNI", "start_time": "1.51752335012e+12", "human_length": "8", "nodes_expanded": "999", "instance": "prb13171", "end_time": "1.51752335941e+12", "optimal_length": "7", "subject": "A1NT8BT94ME6F5"}
{"rt": "9196.0", "trial_number": "0", "skipped": "False", "complete": "True", "assignment": "37TD41K0AIHM8AITTQJXV8KY05QCSB", "start_time": "1.51752593158e+12", "human_length": "7", "nodes_expanded": "999", "instance": "prb13171", "end_time": "1.51752594078e+12", "optimal_length": "7", "subject": "A30KYQGABO7JER"}
{"rt": "21198.0", "trial_number": "0", "skipped": "False", "complete": "True", "assignment": "36H9ULYP6320CJJDXY0KBDEE1Z3JFB", "start_time": "1.51753314083e+12", "human_length": "8", "nodes_expanded": "999", "instance": "prb13171", "end_time": "1.51753316203e+12", "optimal_length": "7", "subject": "AN098C29EGJ6"}
{"rt": "14646.0", "trial_number": "0", "skipped": "False", "complete": "True", "assignment": "3TYCR1GOTDRCCQYD1V64UK7OHTBZLQ", "start_time": "1.5175365522e+12", "human_length": "9", "nodes_expanded": "999", "instance": "prb13171", "end_time": "1.51753656685e+12", "optimal_length": "7", "subject": "A13BZCNJ0WR1T7"}
{"rt": "6825.0", "trial_number": "0", "skipped": "False", "complete": "True", "assignment": "3H0W84IWBLAP4T2UASPNVMF5ZH7ER9", "start_time": "1.51755478826e+12", "human_length": "7", "nodes_expanded": "999", "instance": "prb13171", "end_time": "1.51755479508e+12", "optimal_length": "7", "subject": "A1AKX1C8GCVCTP"}
{"rt": "7165.0", "trial_number": "0", "skipped": "False", "complete": "True", "assignment": "3TPWUS5F8A9FFRZ2DVTYSXNJ6BWWC6", "start_time": "1.51794227376e+12", "human_length": "7", "nodes_expanded": "999", "instance": "prb13171", "end_time": "1.51794228092e+12", "optimal_length": "7", "subject": "A3GXC3VG37CQ3G"}
{"rt": "10236.0", "trial_number": "0", "skipped": "False", "complete": "True", "assignment": "34HJIJKLP64Z5YMIU6IKNXSH7PDV4I", "start_time": "1.5179435692e+12", "human_length": "7", "nodes_expanded": "999", "instance": "prb13171", "end_time": "1.51794357944e+12", "optimal_length": "7", "subject": "A3CTXNQ2GXIQSP"}
{"rt": "7943.0", "trial_number": "0", "skipped": "False", "complete": "True", "assignment": "3STRJBFXOXZ5687WA35LTWTS7QZKTT", "start_time": "1.51794555409e+12", "human_length": "7", "nodes_expanded": "999", "instance": "prb13171", "end_time": "1.51794556203e+12", "optimal_length": "7", "subject": "A3OB6REG5CGHK1"}
{"rt": "18322.0", "trial_number": "0", "skipped": "False", "complete": "True", "assignment": "33PPO7FECWN7JOLBOAKUBCWTC0AIDL", "start_time": "1.51794828463e+12", "human_length": "8", "nodes_expanded": "999", "instance": "prb13171", "end_time": "1.51794830295e+12", "optimal_length": "7", "subject": "AXKM02NVXNGOM"}
{"rt": "13747.0", "trial_number": "0", "skipped": "False", "complete": "True", "assignment": "3HYA4D452SR06NL5QDUSCWSXZI12FF", "start_time": "1.51795007585e+12", "human_length": "9", "nodes_expanded": "999", "instance": "prb13171", "end_time": "1.5179500896e+12", "optimal_length": "7", "subject": "A2OFWHV8IP7HK"}
{"rt": "10542.0", "trial_number": "0", "skipped": "False", "complete": "True", "assignment": "3PB5A5BD0WED6OE679H5Q89HBDGG71", "start_time": "1.51795265966e+12", "human_length": "9", "nodes_expanded": "999", "instance": "prb13171", "end_time": "1.5179526702e+12", "optimal_length": "7", "subject": "A1USR9JCAMDGM3"}
{"rt": "8753.0", "trial_number": "0", "skipped": "False", "complete": "True", "assignment": "3R5F3LQFV3SKIB1AENMWM1BICT5OZB", "start_time": "1.51796014655e+12", "human_length": "8", "nodes_expanded": "999", "instance": "prb13171", "end_time": "1.51796015531e+12", "optimal_length": "7", "subject": "A1N1EF0MIRSEZZ"}
{"rt": "16532.0", "trial_number": "0", "skipped": "False", "complete": "True", "assignment": "33F859I567LE8WC74WB3GA7E94XBHW", "start_time": "1.51797045546e+12", "human_length": "7", "nodes_expanded": "999", "instance": "prb13171", "end_time": "1.51797047199e+12", "optimal_length": "7", "subject": "A1GQS6USF2JEYG"}
{"rt": "10699.0", "trial_number": "0", "skipped": "False", "complete": "True", "assignment": "3IJXV6UZ1YR1KY4G6BFEG1DXR47RIC", "start_time": "1.51797340164e+12", "human_length": "9", "nodes_expanded": "999", "instance": "prb13171", "end_time": "1.51797341234e+12", "optimal_length": "7", "subject": "A18T3WK7J16C1B"}
{"rt": "14949.0", "trial_number": "0", "skipped": "False", "complete": "True", "assignment": "3FTF2T8WLSQDHTSZ1BJ7Q7MB14SW9H", "start_time": "1.51813718831e+12", "human_length": "13", "nodes_expanded": "999", "instance": "prb13171", "end_time": "1.51813720326e+12", "optimal_length": "7", "subject": "A1IUH9D7N69VS"}
{"rt": "11064.0", "trial_number": "0", "skipped": "False", "complete": "True", "assignment": "3XC1O3LBOTUGQEPEV3HM8W67X4RTLL", "start_time": "1.51813905339e+12", "human_length": "7", "nodes_expanded": "999", "instance": "prb13171", "end_time": "1.51813906445e+12", "optimal_length": "7", "subject": "A1ZTSCPETU3UJW"}
{"rt": "10417.0", "trial_number": "0", "skipped": "False", "complete": "True", "assignment": "3TAYZSBPLMG9ASQRWXURJVBCPLN2SH", "start_time": "1.51813726482e+12", "human_length": "7", "nodes_expanded": "999", "instance": "prb13171", "end_time": "1.51813727524e+12", "optimal_length": "7", "subject": "A2RCYLKY072XXO"}
{"rt": "11778.0", "trial_number": "0", "skipped": "False", "complete": "True", "assignment": "3ZSANO2JCGFTBM23KS9Y3E51YP4FSQ", "start_time": "1.51814338003e+12", "human_length": "7", "nodes_expanded": "999", "instance": "prb13171", "end_time": "1.51814339181e+12", "optimal_length": "7", "subject": "A1F42D4L22K5ND"}
{"rt": "8666.0", "trial_number": "0", "skipped": "False", "complete": "True", "assignment": "3VE8AYVF8N5BS2NU6U3TMN50MV38FP", "start_time": "1.5181426258e+12", "human_length": "8", "nodes_expanded": "999", "instance": "prb13171", "end_time": "1.51814263447e+12", "optimal_length": "7", "subject": "A1JN13098RIE78"}
{"rt": "8504.0", "trial_number": "0", "skipped": "False", "complete": "True", "assignment": "3TMFV4NEP9MD3O9PWJDTQBR0HZYW8I", "start_time": "1.51814588676e+12", "human_length": "7", "nodes_expanded": "999", "instance": "prb13171", "end_time": "1.51814589526e+12", "optimal_length": "7", "subject": "A3GOOI75XOF24V"}
{"rt": "7811.0", "trial_number": "0", "skipped": "False", "complete": "True", "assignment": "3XLBSAQ9Z5KDX59BX15UBFPNNHYZ7Q", "start_time": "1.51814585182e+12", "human_length": "8", "nodes_expanded": "999", "instance": "prb13171", "end_time": "1.51814585964e+12", "optimal_length": "7", "subject": "A1HFNOKU591WCY"}
{"rt": "51288.0", "trial_number": "0", "skipped": "False", "complete": "True", "assignment": "3EWIJTFFVPF14ZIVGF68BQEIRXP0ER", "start_time": "1.51814762633e+12", "human_length": "22", "nodes_expanded": "999", "instance": "prb13171", "end_time": "1.51814767762e+12", "optimal_length": "7", "subject": "A30AGR5KF8IEL"}
{"rt": "8209.0", "trial_number": "0", "skipped": "False", "complete": "True", "assignment": "3SITXWYCNWHBUMCM90TPJWV8Y7AXBW", "start_time": "1.51816652967e+12", "human_length": "8", "nodes_expanded": "999", "instance": "prb13171", "end_time": "1.51816653788e+12", "optimal_length": "7", "subject": "A28RX7L0QZ993M"}
{"rt": "6205.0", "trial_number": "0", "skipped": "False", "complete": "True", "assignment": "3IXEICO793RY7TM78ZBKJDOA7ADT6Q", "start_time": "1.51816829173e+12", "human_length": "7", "nodes_expanded": "999", "instance": "prb13171", "end_time": "1.51816829793e+12", "optimal_length": "7", "subject": "ALH1K6ZAQQMN7"}
