{"rt": "8854.0", "trial_number": "0", "skipped": "False", "complete": "True", "assignment": "3AZHRG4CU5SYU12YRVPCSZALW5003R", "start_time": "1.5163074107e+12", "human_length": "10", "nodes_expanded": "999", "instance": "prb10206", "end_time": "1.51630741955e+12", "optimal_length": "7", "subject": "ARWF605I7RWM7"}
{"rt": "8020.0", "trial_number": "0", "skipped": "False", "complete": "True", "assignment": "3ZV9H2YQQEFR2R3JK2IXZUJPXAF3WW", "start_time": "1.51630771289e+12", "human_length": "7", "nodes_expanded": "999", "instance": "prb10206", "end_time": "1.51630772091e+12", "optimal_length": "7", "subject": "A289D98Z4GAZ28"}
{"rt": "7150.0", "trial_number": "0", "skipped": "False", "complete": "True", "assignment": "3ON104KXQL4CKNMNKGNG9ZBVBAB4WI", "start_time": "1.5163124485e+12", "human_length": "8", "nodes_expanded": "999", "instance": "prb10206", "end_time": "1.51631245565e+12", "optimal_length": "7", "subject": "AYPOAY43REHC8"}
{"rt": "5769.0", "trial_number": "0", "skipped": "False", "complete": "True", "assignment": "3PMBY0YE28B43VMUKKJ6EDF85RV9C8", "start_time": "1.5163878089e+12", "human_length": "7", "nodes_expanded": "999", "instance": "prb10206", "end_time": "1.51638781467e+12", "optimal_length": "7", "subject": "A191V7PT3DQKDP"}
{"rt": "17892.0", "trial_number": "0", "skipped": "False", "complete": "True", "assignment": "3ZSY5X72NYJBGKFJ46SJ0Y9J0RLROB", "start_time": "1.51638781153e+12", "human_length": "10", "nodes_expanded": "999", "instance": "prb10206", "end_time": "1.51638782942e+12", "optimal_length": "7", "subject": "AU4KK3OYS2UZF"}
{"rt": "7026.0", "trial_number": "0", "skipped": "False", "complete": "True", "assignment": "3TYCR1GOTDRCCQYD1V64UK7OE48LZS", "start_time": "1.51639162149e+12", "human_length": "7", "nodes_expanded": "999", "instance": "prb10206", "end_time": "1.51639162852e+12", "optimal_length": "7", "subject": "A2MYB6MLQW0IGN"}
{"rt": "6779.0", "trial_number": "0", "skipped": "False", "complete": "True", "assignment": "34BBWHLWHBJ6SUL255PK30LEGY5IWG", "start_time": "1.51639437651e+12", "human_length": "7", "nodes_expanded": "999", "instance": "prb10206", "end_time": "1.51639438329e+12", "optimal_length": "7", "subject": "A214HWAW1PYWO8"}
{"rt": "0.0", "trial_number": "0", "skipped": "False", "complete": "False", "assignment": "34T446B1C1MM71YHKO0DL2EF3BLC0W", "start_time": "1.51673416741e+12", "human_length": "1", "nodes_expanded": "999", "instance": "prb10206", "end_time": "1.51673416741e+12", "optimal_length": "7", "subject": "ABL3H3O3BI8ZD"}
{"rt": "0.0", "trial_number": "1", "skipped": "False", "complete": "False", "assignment": "34T446B1C1MM71YHKO0DL2EF3BLC0W", "start_time": "1.51673416741e+12", "human_length": "1", "nodes_expanded": "999", "instance": "prb10206", "end_time": "1.51673416741e+12", "optimal_length": "7", "subject": "ABL3H3O3BI8ZD"}
{"rt": "562618.0", "trial_number": "2", "skipped": "False", "complete": "True", "assignment": "34T446B1C1MM71YHKO0DL2EF3BLC0W", "start_time": "1.51673416741e+12", "human_length": "23", "nodes_expanded": "999", "instance": "prb10206", "end_time": "1.51673473003e+12", "optimal_length": "7", "subject": "ABL3H3O3BI8ZD"}
{"rt": "0.0", "trial_number": "0", "skipped": "False", "complete": "False", "assignment": "3VE8AYVF8N5BS2NU6U3TMN50JMNF8V", "start_time": "1.51673584863e+12", "human_length": "1", "nodes_expanded": "999", "instance": "prb10206", "end_time": "1.51673584863e+12", "optimal_length": "7", "subject": "A18QU0YQB6Q8DF"}
{"rt": "0.0", "trial_number": "1", "skipped": "False", "complete": "False", "assignment": "3VE8AYVF8N5BS2NU6U3TMN50JMNF8V", "start_time": "1.51673584863e+12", "human_length": "1", "nodes_expanded": "999", "instance": "prb10206", "end_time": "1.51673584863e+12", "optimal_length": "7", "subject": "A18QU0YQB6Q8DF"}
{"rt": "55439.0", "trial_number": "2", "skipped": "False", "complete": "True", "assignment": "3VE8AYVF8N5BS2NU6U3TMN50JMNF8V", "start_time": "1.51673584863e+12", "human_length": "14", "nodes_expanded": "999", "instance": "prb10206", "end_time": "1.51673590407e+12", "optimal_length": "7", "subject": "A18QU0YQB6Q8DF"}
{"rt": "0.0", "trial_number": "0", "skipped": "False", "complete": "False", "assignment": "3X87C8JFV7JQ2BSCY8KSFD9F2ILSQK", "start_time": "1.51673879847e+12", "human_length": "1", "nodes_expanded": "999", "instance": "prb10206", "end_time": "1.51673879847e+12", "optimal_length": "7", "subject": "A3Q0XAGQ7TD7MP"}
{"rt": "0.0", "trial_number": "1", "skipped": "False", "complete": "False", "assignment": "3X87C8JFV7JQ2BSCY8KSFD9F2ILSQK", "start_time": "1.51673879847e+12", "human_length": "1", "nodes_expanded": "999", "instance": "prb10206", "end_time": "1.51673879847e+12", "optimal_length": "7", "subject": "A3Q0XAGQ7TD7MP"}
{"rt": "9475.0", "trial_number": "2", "skipped": "False", "complete": "True", "assignment": "3X87C8JFV7JQ2BSCY8KSFD9F2ILSQK", "start_time": "1.51673879847e+12", "human_length": "7", "nodes_expanded": "999", "instance": "prb10206", "end_time": "1.51673880794e+12", "optimal_length": "7", "subject": "A3Q0XAGQ7TD7MP"}
{"rt": "9942.0", "trial_number": "3", "skipped": "False", "complete": "True", "assignment": "3GLB5JMZFY3TNXFGYMKRQ0JDXNTDGZ", "start_time": "1.51794626946e+12", "human_length": "7", "nodes_expanded": "999", "instance": "prb10206", "end_time": "1.51794627940e+12", "optimal_length": "7", "subject": "A3Q0XAGQ7TD7MP"}
{"rt": "0.0", "trial_number": "0", "skipped": "False", "complete": "False", "assignment": "3WSELTNVR4AZUVYAYCSWZIQW0J4ATB", "start_time": "1.51674004893e+12", "human_length": "1", "nodes_expanded": "999", "instance": "prb10206", "end_time": "1.51674004893e+12", "optimal_length": "7", "subject": "A2TQNX64349OZ9"}
{"rt": "0.0", "trial_number": "1", "skipped": "False", "complete": "False", "assignment": "3WSELTNVR4AZUVYAYCSWZIQW0J4ATB", "start_time": "1.51674004893e+12", "human_length": "1", "nodes_expanded": "999", "instance": "prb10206", "end_time": "1.51674004893e+12", "optimal_length": "7", "subject": "A2TQNX64349OZ9"}
{"rt": "8996.0", "trial_number": "2", "skipped": "False", "complete": "True", "assignment": "3WSELTNVR4AZUVYAYCSWZIQW0J4ATB", "start_time": "1.51674004893e+12", "human_length": "12", "nodes_expanded": "999", "instance": "prb10206", "end_time": "1.51674005792e+12", "optimal_length": "7", "subject": "A2TQNX64349OZ9"}
{"rt": "0.0", "trial_number": "0", "skipped": "False", "complete": "False", "assignment": "3IJXV6UZ1YR1KY4G6BFEG1DXP7SRI1", "start_time": "1.51673959159e+12", "human_length": "1", "nodes_expanded": "999", "instance": "prb10206", "end_time": "1.51673959159e+12", "optimal_length": "7", "subject": "AEXF5EUX32U0M"}
{"rt": "0.0", "trial_number": "1", "skipped": "False", "complete": "False", "assignment": "3IJXV6UZ1YR1KY4G6BFEG1DXP7SRI1", "start_time": "1.51673959159e+12", "human_length": "1", "nodes_expanded": "999", "instance": "prb10206", "end_time": "1.51673959159e+12", "optimal_length": "7", "subject": "AEXF5EUX32U0M"}
{"rt": "11650.0", "trial_number": "2", "skipped": "False", "complete": "True", "assignment": "3IJXV6UZ1YR1KY4G6BFEG1DXP7SRI1", "start_time": "1.51673959159e+12", "human_length": "7", "nodes_expanded": "999", "instance": "prb10206", "end_time": "1.51673960324e+12", "optimal_length": "7", "subject": "AEXF5EUX32U0M"}
{"rt": "0.0", "trial_number": "0", "skipped": "False", "complete": "False", "assignment": "3U8YCDAGXQOQ1280P618573W7RSQ0N", "start_time": "1.51674351645e+12", "human_length": "1", "nodes_expanded": "999", "instance": "prb10206", "end_time": "1.51674351645e+12", "optimal_length": "7", "subject": "AWCO7MG0BHSTQ"}
{"rt": "0.0", "trial_number": "1", "skipped": "False", "complete": "False", "assignment": "3U8YCDAGXQOQ1280P618573W7RSQ0N", "start_time": "1.51674351645e+12", "human_length": "1", "nodes_expanded": "999", "instance": "prb10206", "end_time": "1.51674351645e+12", "optimal_length": "7", "subject": "AWCO7MG0BHSTQ"}
{"rt": "8733.0", "trial_number": "2", "skipped": "False", "complete": "True", "assignment": "3U8YCDAGXQOQ1280P618573W7RSQ0N", "start_time": "1.51674351645e+12", "human_length": "7", "nodes_expanded": "999", "instance": "prb10206", "end_time": "1.51674352518e+12", "optimal_length": "7", "subject": "AWCO7MG0BHSTQ"}
{"rt": "0.0", "trial_number": "0", "skipped": "False", "complete": "False", "assignment": "3I2PTA7R3U2SESF4TZBQORI5LSJQKK", "start_time": "1.51675994125e+12", "human_length": "1", "nodes_expanded": "999", "instance": "prb10206", "end_time": "1.51675994125e+12", "optimal_length": "7", "subject": "A3NMQ3019X6YE0"}
{"rt": "0.0", "trial_number": "1", "skipped": "False", "complete": "False", "assignment": "3I2PTA7R3U2SESF4TZBQORI5LSJQKK", "start_time": "1.51675994125e+12", "human_length": "1", "nodes_expanded": "999", "instance": "prb10206", "end_time": "1.51675994125e+12", "optimal_length": "7", "subject": "A3NMQ3019X6YE0"}
{"rt": "9188.0", "trial_number": "2", "skipped": "False", "complete": "True", "assignment": "3I2PTA7R3U2SESF4TZBQORI5LSJQKK", "start_time": "1.51675994125e+12", "human_length": "7", "nodes_expanded": "999", "instance": "prb10206", "end_time": "1.51675995044e+12", "optimal_length": "7", "subject": "A3NMQ3019X6YE0"}
{"rt": "227441.0", "trial_number": "3", "skipped": "False", "complete": "True", "assignment": "3V5Q80FXIYZ5QB5C6ITQBN30WY823U", "start_time": "1.51753495289e+12", "human_length": "10", "nodes_expanded": "999", "instance": "prb10206", "end_time": "1.51753518033e+12", "optimal_length": "7", "subject": "A3NMQ3019X6YE0"}
{"rt": "0.0", "trial_number": "0", "skipped": "False", "complete": "False", "assignment": "3X4MXAO0BHWJLTOLVSJTHSM54OHWRG", "start_time": "1.51682233362e+12", "human_length": "1", "nodes_expanded": "999", "instance": "prb10206", "end_time": "1.51682233362e+12", "optimal_length": "7", "subject": "A2IBQA01NR5N76"}
{"rt": "8949.0", "trial_number": "1", "skipped": "False", "complete": "True", "assignment": "3X4MXAO0BHWJLTOLVSJTHSM54OHWRG", "start_time": "1.51682233362e+12", "human_length": "8", "nodes_expanded": "999", "instance": "prb10206", "end_time": "1.51682234257e+12", "optimal_length": "7", "subject": "A2IBQA01NR5N76"}
{"rt": "8949.0", "trial_number": "0", "skipped": "False", "complete": "True", "assignment": "3X4MXAO0BHWJLTOLVSJTHSM54OHWRG", "start_time": "1.51682233362e+12", "human_length": "8", "nodes_expanded": "999", "instance": "prb10206", "end_time": "1.51682234257e+12", "optimal_length": "7", "subject": "A2IBQA01NR5N76"}
{"rt": "0.0", "trial_number": "0", "skipped": "False", "complete": "False", "assignment": "3IHR8NYAM89M0EPM8U9LH53ZJDTP4U", "start_time": "1.516826012e+12", "human_length": "1", "nodes_expanded": "999", "instance": "prb10206", "end_time": "1.516826012e+12", "optimal_length": "7", "subject": "A23437BMZ5T1FH"}
{"rt": "6178.0", "trial_number": "1", "skipped": "False", "complete": "True", "assignment": "3IHR8NYAM89M0EPM8U9LH53ZJDTP4U", "start_time": "1.516826012e+12", "human_length": "8", "nodes_expanded": "999", "instance": "prb10206", "end_time": "1.51682601818e+12", "optimal_length": "7", "subject": "A23437BMZ5T1FH"}
{"rt": "0.0", "trial_number": "0", "skipped": "False", "complete": "False", "assignment": "37WLF8U1WQYZ4AWKEQXSIM1ELVEK6W", "start_time": "1.5168302894e+12", "human_length": "1", "nodes_expanded": "999", "instance": "prb10206", "end_time": "1.5168302894e+12", "optimal_length": "7", "subject": "A2EPBSY0VPI38S"}
{"rt": "18753.0", "trial_number": "1", "skipped": "False", "complete": "True", "assignment": "37WLF8U1WQYZ4AWKEQXSIM1ELVEK6W", "start_time": "1.5168302894e+12", "human_length": "12", "nodes_expanded": "999", "instance": "prb10206", "end_time": "1.51683030815e+12", "optimal_length": "7", "subject": "A2EPBSY0VPI38S"}
{"rt": "562618.0", "trial_number": "0", "skipped": "False", "complete": "True", "assignment": "34T446B1C1MM71YHKO0DL2EF3BLC0W", "start_time": "1.51673416741e+12", "human_length": "23", "nodes_expanded": "999", "instance": "prb10206", "end_time": "1.51673473003e+12", "optimal_length": "7", "subject": "ABL3H3O3BI8ZD"}
{"rt": "55439.0", "trial_number": "0", "skipped": "False", "complete": "True", "assignment": "3VE8AYVF8N5BS2NU6U3TMN50JMNF8V", "start_time": "1.51673584863e+12", "human_length": "14", "nodes_expanded": "999", "instance": "prb10206", "end_time": "1.51673590407e+12", "optimal_length": "7", "subject": "A18QU0YQB6Q8DF"}
{"rt": "9475.0", "trial_number": "0", "skipped": "False", "complete": "True", "assignment": "3X87C8JFV7JQ2BSCY8KSFD9F2ILSQK", "start_time": "1.51673879847e+12", "human_length": "7", "nodes_expanded": "999", "instance": "prb10206", "end_time": "1.51673880794e+12", "optimal_length": "7", "subject": "A3Q0XAGQ7TD7MP"}
{"rt": "9942.0", "trial_number": "1", "skipped": "False", "complete": "True", "assignment": "3GLB5JMZFY3TNXFGYMKRQ0JDXNTDGZ", "start_time": "1.51794626946e+12", "human_length": "7", "nodes_expanded": "999", "instance": "prb10206", "end_time": "1.51794627940e+12", "optimal_length": "7", "subject": "A3Q0XAGQ7TD7MP"}
{"rt": "8996.0", "trial_number": "0", "skipped": "False", "complete": "True", "assignment": "3WSELTNVR4AZUVYAYCSWZIQW0J4ATB", "start_time": "1.51674004893e+12", "human_length": "12", "nodes_expanded": "999", "instance": "prb10206", "end_time": "1.51674005792e+12", "optimal_length": "7", "subject": "A2TQNX64349OZ9"}
{"rt": "11650.0", "trial_number": "0", "skipped": "False", "complete": "True", "assignment": "3IJXV6UZ1YR1KY4G6BFEG1DXP7SRI1", "start_time": "1.51673959159e+12", "human_length": "7", "nodes_expanded": "999", "instance": "prb10206", "end_time": "1.51673960324e+12", "optimal_length": "7", "subject": "AEXF5EUX32U0M"}
{"rt": "8733.0", "trial_number": "0", "skipped": "False", "complete": "True", "assignment": "3U8YCDAGXQOQ1280P618573W7RSQ0N", "start_time": "1.51674351645e+12", "human_length": "7", "nodes_expanded": "999", "instance": "prb10206", "end_time": "1.51674352518e+12", "optimal_length": "7", "subject": "AWCO7MG0BHSTQ"}
{"rt": "9188.0", "trial_number": "0", "skipped": "False", "complete": "True", "assignment": "3I2PTA7R3U2SESF4TZBQORI5LSJQKK", "start_time": "1.51675994125e+12", "human_length": "7", "nodes_expanded": "999", "instance": "prb10206", "end_time": "1.51675995044e+12", "optimal_length": "7", "subject": "A3NMQ3019X6YE0"}
{"rt": "227441.0", "trial_number": "1", "skipped": "False", "complete": "True", "assignment": "3V5Q80FXIYZ5QB5C6ITQBN30WY823U", "start_time": "1.51753495289e+12", "human_length": "10", "nodes_expanded": "999", "instance": "prb10206", "end_time": "1.51753518033e+12", "optimal_length": "7", "subject": "A3NMQ3019X6YE0"}
{"rt": "10974.0", "trial_number": "0", "skipped": "False", "complete": "True", "assignment": "3TS1AR6UQRM7SOIBWPBN8N9589Y7FV", "start_time": "1.51683750941e+12", "human_length": "11", "nodes_expanded": "999", "instance": "prb10206", "end_time": "1.51683752038e+12", "optimal_length": "7", "subject": "A1F4N58CAX8IMK"}
{"rt": "7446.0", "trial_number": "1", "skipped": "False", "complete": "True", "assignment": "35DR22AR5ES6RR89U7EJ1DXW91AX3P", "start_time": "1.51795443202e+12", "human_length": "9", "nodes_expanded": "999", "instance": "prb10206", "end_time": "1.51795443946e+12", "optimal_length": "7", "subject": "A1F4N58CAX8IMK"}
{"rt": "14994.0", "trial_number": "0", "skipped": "False", "complete": "True", "assignment": "3M0BCWMB8W4W5M7WZVX3HDH1M3FBWL", "start_time": "1.5168387704e+12", "human_length": "7", "nodes_expanded": "999", "instance": "prb10206", "end_time": "1.5168387854e+12", "optimal_length": "7", "subject": "A1XDMS0KFSF5JW"}
{"rt": "38230.0", "trial_number": "0", "skipped": "False", "complete": "True", "assignment": "3TS1AR6UQRM7SOIBWPBN8N9589Y7FV", "start_time": "1.5168418666e+12", "human_length": "23", "nodes_expanded": "999", "instance": "prb10206", "end_time": "1.51684190483e+12", "optimal_length": "7", "subject": "A15FXHC1CVNW31"}
{"rt": "8723.0", "trial_number": "0", "skipped": "True", "complete": "False", "assignment": "31LM9EDVOM0C0BWUVMJXJINN3QPJNI", "start_time": "1.51752464892e+12", "human_length": "6", "nodes_expanded": "999", "instance": "prb10206", "end_time": "1.51752465765e+12", "optimal_length": "7", "subject": "A1NT8BT94ME6F5"}
{"rt": "8038.0", "trial_number": "0", "skipped": "False", "complete": "True", "assignment": "37TD41K0AIHM8AITTQJXV8KY05QCSB", "start_time": "1.51752392433e+12", "human_length": "7", "nodes_expanded": "999", "instance": "prb10206", "end_time": "1.51752393237e+12", "optimal_length": "7", "subject": "A30KYQGABO7JER"}
{"rt": "8561.0", "trial_number": "0", "skipped": "False", "complete": "True", "assignment": "36H9ULYP6320CJJDXY0KBDEE1Z3JFB", "start_time": "1.51753326100e+12", "human_length": "7", "nodes_expanded": "999", "instance": "prb10206", "end_time": "1.51753326957e+12", "optimal_length": "7", "subject": "AN098C29EGJ6"}
{"rt": "5870.0", "trial_number": "0", "skipped": "False", "complete": "True", "assignment": "3TYCR1GOTDRCCQYD1V64UK7OHTBZLQ", "start_time": "1.51753729491e+12", "human_length": "7", "nodes_expanded": "999", "instance": "prb10206", "end_time": "1.51753730078e+12", "optimal_length": "7", "subject": "A13BZCNJ0WR1T7"}
{"rt": "8445.0", "trial_number": "0", "skipped": "False", "complete": "True", "assignment": "3TPWUS5F8A9FFRZ2DVTYSXNJ6BWWC6", "start_time": "1.51794047858e+12", "human_length": "7", "nodes_expanded": "999", "instance": "prb10206", "end_time": "1.51794048702e+12", "optimal_length": "7", "subject": "A3GXC3VG37CQ3G"}
{"rt": "9044.0", "trial_number": "0", "skipped": "False", "complete": "True", "assignment": "34HJIJKLP64Z5YMIU6IKNXSH7PDV4I", "start_time": "1.51794273402e+12", "human_length": "7", "nodes_expanded": "999", "instance": "prb10206", "end_time": "1.51794274306e+12", "optimal_length": "7", "subject": "A3CTXNQ2GXIQSP"}
{"rt": "10926.0", "trial_number": "0", "skipped": "False", "complete": "True", "assignment": "3U84XHCDIDLGEIRSV37N835DV0K4ZS", "start_time": "1.51794062341e+12", "human_length": "7", "nodes_expanded": "999", "instance": "prb10206", "end_time": "1.51794063434e+12", "optimal_length": "7", "subject": "A8KX1HFH8NE2Q"}
{"rt": "79442.0", "trial_number": "0", "skipped": "False", "complete": "True", "assignment": "3TXD01ZLD5PZSJXIPG8FRBQYTI9U4X", "start_time": "1.51794276766e+12", "human_length": "7", "nodes_expanded": "999", "instance": "prb10206", "end_time": "1.5179428471e+12", "optimal_length": "7", "subject": "A3BPRPN10HJD4B"}
{"rt": "12814.0", "trial_number": "0", "skipped": "False", "complete": "True", "assignment": "30IQTZXKALEAAZ9CBKW0ZFZP6O5X07", "start_time": "1.51794591142e+12", "human_length": "9", "nodes_expanded": "999", "instance": "prb10206", "end_time": "1.51794592423e+12", "optimal_length": "7", "subject": "A23XJ8I86R0O3B"}
{"rt": "10066.0", "trial_number": "0", "skipped": "False", "complete": "True", "assignment": "3STRJBFXOXZ5687WA35LTWTS7QZKTT", "start_time": "1.51794397898e+12", "human_length": "7", "nodes_expanded": "999", "instance": "prb10206", "end_time": "1.51794398904e+12", "optimal_length": "7", "subject": "A3OB6REG5CGHK1"}
{"rt": "11248.0", "trial_number": "0", "skipped": "False", "complete": "True", "assignment": "3JCG6DTRV4YEPVDZ64VNKDUEMPGQQ1", "start_time": "1.51794692764e+12", "human_length": "7", "nodes_expanded": "999", "instance": "prb10206", "end_time": "1.51794693889e+12", "optimal_length": "7", "subject": "A2V7KYLBCBTI3B"}
{"rt": "23081.0", "trial_number": "0", "skipped": "False", "complete": "True", "assignment": "33PPO7FECWN7JOLBOAKUBCWTC0AIDL", "start_time": "1.51794840141e+12", "human_length": "8", "nodes_expanded": "999", "instance": "prb10206", "end_time": "1.51794842449e+12", "optimal_length": "7", "subject": "AXKM02NVXNGOM"}
{"rt": "7139.0", "trial_number": "0", "skipped": "False", "complete": "True", "assignment": "3PB5A5BD0WED6OE679H5Q89HBDGG71", "start_time": "1.51795219519e+12", "human_length": "7", "nodes_expanded": "999", "instance": "prb10206", "end_time": "1.51795220233e+12", "optimal_length": "7", "subject": "A1USR9JCAMDGM3"}
{"rt": "10339.0", "trial_number": "0", "skipped": "False", "complete": "True", "assignment": "3R5F3LQFV3SKIB1AENMWM1BICT5OZB", "start_time": "1.51795723908e+12", "human_length": "7", "nodes_expanded": "999", "instance": "prb10206", "end_time": "1.51795724942e+12", "optimal_length": "7", "subject": "A1N1EF0MIRSEZZ"}
{"rt": "6226.0", "trial_number": "0", "skipped": "False", "complete": "True", "assignment": "33F859I567LE8WC74WB3GA7E94XBHW", "start_time": "1.51797019842e+12", "human_length": "7", "nodes_expanded": "999", "instance": "prb10206", "end_time": "1.51797020464e+12", "optimal_length": "7", "subject": "A1GQS6USF2JEYG"}
{"rt": "8111.0", "trial_number": "0", "skipped": "False", "complete": "True", "assignment": "3IJXV6UZ1YR1KY4G6BFEG1DXR47RIC", "start_time": "1.51797176711e+12", "human_length": "10", "nodes_expanded": "999", "instance": "prb10206", "end_time": "1.51797177522e+12", "optimal_length": "7", "subject": "A18T3WK7J16C1B"}
{"rt": "4976.0", "trial_number": "0", "skipped": "False", "complete": "True", "assignment": "3FTF2T8WLSQDHTSZ1BJ7Q7MB14SW9H", "start_time": "1.51813609817e+12", "human_length": "7", "nodes_expanded": "999", "instance": "prb10206", "end_time": "1.51813610314e+12", "optimal_length": "7", "subject": "A1IUH9D7N69VS"}
{"rt": "9106.0", "trial_number": "0", "skipped": "False", "complete": "True", "assignment": "3XC1O3LBOTUGQEPEV3HM8W67X4RTLL", "start_time": "1.51813605872e+12", "human_length": "7", "nodes_expanded": "999", "instance": "prb10206", "end_time": "1.51813606782e+12", "optimal_length": "7", "subject": "A1ZTSCPETU3UJW"}
{"rt": "18975.0", "trial_number": "0", "skipped": "False", "complete": "True", "assignment": "3TAYZSBPLMG9ASQRWXURJVBCPLN2SH", "start_time": "1.5181358106e+12", "human_length": "9", "nodes_expanded": "999", "instance": "prb10206", "end_time": "1.51813582958e+12", "optimal_length": "7", "subject": "A2RCYLKY072XXO"}
{"rt": "7410.0", "trial_number": "0", "skipped": "False", "complete": "True", "assignment": "3SB5N7Y3O4CZODEMMAWWBTZU4C90GB", "start_time": "1.51813903033e+12", "human_length": "7", "nodes_expanded": "999", "instance": "prb10206", "end_time": "1.51813903774e+12", "optimal_length": "7", "subject": "A1RVMADIZE3BXK"}
{"rt": "7829.0", "trial_number": "0", "skipped": "False", "complete": "True", "assignment": "3ZSANO2JCGFTBM23KS9Y3E51YP4FSQ", "start_time": "1.51814312087e+12", "human_length": "11", "nodes_expanded": "999", "instance": "prb10206", "end_time": "1.5181431287e+12", "optimal_length": "7", "subject": "A1F42D4L22K5ND"}
{"rt": "0.0", "trial_number": "0", "skipped": "False", "complete": "False", "assignment": "3VE8AYVF8N5BS2NU6U3TMN50MV38FP", "start_time": "1.51814347418e+12", "human_length": "1", "nodes_expanded": "999", "instance": "prb10206", "end_time": "1.51814347418e+12", "optimal_length": "7", "subject": "A1JN13098RIE78"}
{"rt": "0.0", "trial_number": "1", "skipped": "False", "complete": "False", "assignment": "3VE8AYVF8N5BS2NU6U3TMN50MV38FP", "start_time": "1.51814347419e+12", "human_length": "1", "nodes_expanded": "999", "instance": "prb10206", "end_time": "1.51814347419e+12", "optimal_length": "7", "subject": "A1JN13098RIE78"}
{"rt": "4239.0", "trial_number": "2", "skipped": "False", "complete": "False", "assignment": "3VE8AYVF8N5BS2NU6U3TMN50MV38FP", "start_time": "1.51814347495e+12", "human_length": "2", "nodes_expanded": "999", "instance": "prb10206", "end_time": "1.51814347918e+12", "optimal_length": "7", "subject": "A1JN13098RIE78"}
{"rt": "8968.0", "trial_number": "3", "skipped": "False", "complete": "True", "assignment": "3VE8AYVF8N5BS2NU6U3TMN50MV38FP", "start_time": "1.51814349970e+12", "human_length": "7", "nodes_expanded": "999", "instance": "prb10206", "end_time": "1.51814350867e+12", "optimal_length": "7", "subject": "A1JN13098RIE78"}
{"rt": "5517.0", "trial_number": "0", "skipped": "False", "complete": "True", "assignment": "3XLBSAQ9Z5KDX59BX15UBFPNNHYZ7Q", "start_time": "1.51814732764e+12", "human_length": "7", "nodes_expanded": "999", "instance": "prb10206", "end_time": "1.51814733316e+12", "optimal_length": "7", "subject": "A1HFNOKU591WCY"}
{"rt": "20408.0", "trial_number": "0", "skipped": "False", "complete": "True", "assignment": "3EWIJTFFVPF14ZIVGF68BQEIRXP0ER", "start_time": "1.5181476791e+12", "human_length": "7", "nodes_expanded": "999", "instance": "prb10206", "end_time": "1.51814769951e+12", "optimal_length": "7", "subject": "A30AGR5KF8IEL"}
{"rt": "0.0", "trial_number": "0", "skipped": "False", "complete": "False", "assignment": "3RUIQRXJBCWS71H9MUFVM5WQ3SCLLJ", "start_time": "1.51815794507e+12", "human_length": "1", "nodes_expanded": "999", "instance": "prb10206", "end_time": "1.51815794507e+12", "optimal_length": "7", "subject": "A1SJRFJWFXSDH4"}
{"rt": "9670.0", "trial_number": "1", "skipped": "False", "complete": "True", "assignment": "3RUIQRXJBCWS71H9MUFVM5WQ3SCLLJ", "start_time": "1.51815794807e+12", "human_length": "9", "nodes_expanded": "999", "instance": "prb10206", "end_time": "1.51815795774e+12", "optimal_length": "7", "subject": "A1SJRFJWFXSDH4"}
{"rt": "11352.0", "trial_number": "0", "skipped": "False", "complete": "True", "assignment": "3M0BCWMB8W4W5M7WZVX3HDH1P53WB1", "start_time": "1.51816099379e+12", "human_length": "7", "nodes_expanded": "999", "instance": "prb10206", "end_time": "1.51816100514e+12", "optimal_length": "7", "subject": "A53S7J4JGWG38"}
{"rt": "13045.0", "trial_number": "0", "skipped": "False", "complete": "True", "assignment": "3SITXWYCNWHBUMCM90TPJWV8Y7AXBW", "start_time": "1.51816363992e+12", "human_length": "7", "nodes_expanded": "999", "instance": "prb10206", "end_time": "1.51816365296e+12", "optimal_length": "7", "subject": "A28RX7L0QZ993M"}
{"rt": "5398.0", "trial_number": "0", "skipped": "False", "complete": "True", "assignment": "3IXEICO793RY7TM78ZBKJDOA7ADT6Q", "start_time": "1.51816765071e+12", "human_length": "7", "nodes_expanded": "999", "instance": "prb10206", "end_time": "1.51816765611e+12", "optimal_length": "7", "subject": "ALH1K6ZAQQMN7"}
