{"rt": "6273.0", "trial_number": "0", "skipped": "False", "complete": "True", "assignment": "3TYCR1GOTDRCCQYD1V64UK7OHTBZLQ", "start_time": "1.5175351441e+12", "human_length": "7", "nodes_expanded": "999", "instance": "prb15290", "end_time": "1.51753515037e+12", "optimal_length": "7", "subject": "A13BZCNJ0WR1T7"}
{"rt": "21042.0", "trial_number": "0", "skipped": "False", "complete": "True", "assignment": "3TS1AR6UQRM7SOIBWPBN8N9589Y7FV", "start_time": "1.51684196999e+12", "human_length": "16", "nodes_expanded": "999", "instance": "prb15290", "end_time": "1.51684199104e+12", "optimal_length": "7", "subject": "A15FXHC1CVNW31"}
{"rt": "0.0", "trial_number": "0", "skipped": "False", "complete": "False", "assignment": "3VE8AYVF8N5BS2NU6U3TMN50JMNF8V", "start_time": "1.51673738936e+12", "human_length": "1", "nodes_expanded": "999", "instance": "prb15290", "end_time": "1.51673738936e+12", "optimal_length": "7", "subject": "A18QU0YQB6Q8DF"}
{"rt": "0.0", "trial_number": "1", "skipped": "False", "complete": "False", "assignment": "3VE8AYVF8N5BS2NU6U3TMN50JMNF8V", "start_time": "1.51673738936e+12", "human_length": "1", "nodes_expanded": "999", "instance": "prb15290", "end_time": "1.51673738936e+12", "optimal_length": "7", "subject": "A18QU0YQB6Q8DF"}
{"rt": "15103.0", "trial_number": "2", "skipped": "False", "complete": "True", "assignment": "3VE8AYVF8N5BS2NU6U3TMN50JMNF8V", "start_time": "1.51673738936e+12", "human_length": "8", "nodes_expanded": "999", "instance": "prb15290", "end_time": "1.51673740447e+12", "optimal_length": "7", "subject": "A18QU0YQB6Q8DF"}
{"rt": "15103.0", "trial_number": "0", "skipped": "False", "complete": "True", "assignment": "3VE8AYVF8N5BS2NU6U3TMN50JMNF8V", "start_time": "1.51673738936e+12", "human_length": "8", "nodes_expanded": "999", "instance": "prb15290", "end_time": "1.51673740447e+12", "optimal_length": "7", "subject": "A18QU0YQB6Q8DF"}
{"rt": "7239.0", "trial_number": "0", "skipped": "False", "complete": "True", "assignment": "3PMBY0YE28B43VMUKKJ6EDF85RV9C8", "start_time": "1.51638667768e+12", "human_length": "8", "nodes_expanded": "999", "instance": "prb15290", "end_time": "1.51638668492e+12", "optimal_length": "7", "subject": "A191V7PT3DQKDP"}
{"rt": "11325.0", "trial_number": "0", "skipped": "False", "complete": "True", "assignment": "3ZSANO2JCGFTBM23KS9Y3E51YP4FSQ", "start_time": "1.51814343289e+12", "human_length": "11", "nodes_expanded": "999", "instance": "prb15290", "end_time": "1.51814344421e+12", "optimal_length": "7", "subject": "A1F42D4L22K5ND"}
{"rt": "7155.0", "trial_number": "0", "skipped": "False", "complete": "True", "assignment": "3TS1AR6UQRM7SOIBWPBN8N9589Y7FV", "start_time": "1.51684010092e+12", "human_length": "7", "nodes_expanded": "999", "instance": "prb15290", "end_time": "1.51684010807e+12", "optimal_length": "7", "subject": "A1F4N58CAX8IMK"}
{"rt": "6724.0", "trial_number": "1", "skipped": "False", "complete": "True", "assignment": "35DR22AR5ES6RR89U7EJ1DXW91AX3P", "start_time": "1.51795341159e+12", "human_length": "8", "nodes_expanded": "999", "instance": "prb15290", "end_time": "1.51795341832e+12", "optimal_length": "7", "subject": "A1F4N58CAX8IMK"}
{"rt": "14309.0", "trial_number": "0", "skipped": "False", "complete": "True", "assignment": "33F859I567LE8WC74WB3GA7E94XBHW", "start_time": "1.5179696123e+12", "human_length": "14", "nodes_expanded": "999", "instance": "prb15290", "end_time": "1.51796962661e+12", "optimal_length": "7", "subject": "A1GQS6USF2JEYG"}
{"rt": "18793.0", "trial_number": "0", "skipped": "False", "complete": "True", "assignment": "3XLBSAQ9Z5KDX59BX15UBFPNNHYZ7Q", "start_time": "1.51814571363e+12", "human_length": "8", "nodes_expanded": "999", "instance": "prb15290", "end_time": "1.51814573243e+12", "optimal_length": "7", "subject": "A1HFNOKU591WCY"}
{"rt": "5559.0", "trial_number": "0", "skipped": "False", "complete": "True", "assignment": "3FTF2T8WLSQDHTSZ1BJ7Q7MB14SW9H", "start_time": "1.51813671050e+12", "human_length": "7", "nodes_expanded": "999", "instance": "prb15290", "end_time": "1.51813671606e+12", "optimal_length": "7", "subject": "A1IUH9D7N69VS"}
{"rt": "0.0", "trial_number": "0", "skipped": "False", "complete": "False", "assignment": "3VE8AYVF8N5BS2NU6U3TMN50MV38FP", "start_time": "1.5181429631e+12", "human_length": "1", "nodes_expanded": "999", "instance": "prb15290", "end_time": "1.5181429631e+12", "optimal_length": "7", "subject": "A1JN13098RIE78"}
{"rt": "21744.0", "trial_number": "1", "skipped": "False", "complete": "False", "assignment": "3VE8AYVF8N5BS2NU6U3TMN50MV38FP", "start_time": "1.51814296311e+12", "human_length": "6", "nodes_expanded": "999", "instance": "prb15290", "end_time": "1.51814298485e+12", "optimal_length": "7", "subject": "A1JN13098RIE78"}
{"rt": "99170.0", "trial_number": "2", "skipped": "False", "complete": "True", "assignment": "3VE8AYVF8N5BS2NU6U3TMN50MV38FP", "start_time": "1.51814301063e+12", "human_length": "8", "nodes_expanded": "999", "instance": "prb15290", "end_time": "1.5181431098e+12", "optimal_length": "7", "subject": "A1JN13098RIE78"}
{"rt": "0.0", "trial_number": "0", "skipped": "False", "complete": "False", "assignment": "3YW4XOSQKRTI0K0Z2YPDTDJVFABU1I", "start_time": "1.51683021126e+12", "human_length": "1", "nodes_expanded": "999", "instance": "prb15290", "end_time": "1.51683021126e+12", "optimal_length": "7", "subject": "A1LR0VQIHQUJAM"}
{"rt": "9749.0", "trial_number": "1", "skipped": "False", "complete": "True", "assignment": "3YW4XOSQKRTI0K0Z2YPDTDJVFABU1I", "start_time": "1.51683021126e+12", "human_length": "8", "nodes_expanded": "999", "instance": "prb15290", "end_time": "1.51683022101e+12", "optimal_length": "7", "subject": "A1LR0VQIHQUJAM"}
{"rt": "13251.0", "trial_number": "0", "skipped": "False", "complete": "True", "assignment": "31LM9EDVOM0C0BWUVMJXJINN3QPJNI", "start_time": "1.51752410464e+12", "human_length": "14", "nodes_expanded": "999", "instance": "prb15290", "end_time": "1.51752411789e+12", "optimal_length": "7", "subject": "A1NT8BT94ME6F5"}
{"rt": "19358.0", "trial_number": "0", "skipped": "False", "complete": "True", "assignment": "3RUIQRXJBCWS71H9MUFVM5WQ3SCLLJ", "start_time": "1.51815562042e+12", "human_length": "7", "nodes_expanded": "999", "instance": "prb15290", "end_time": "1.51815563978e+12", "optimal_length": "7", "subject": "A1SJRFJWFXSDH4"}
{"rt": "13612.0", "trial_number": "0", "skipped": "False", "complete": "True", "assignment": "3XC1O3LBOTUGQEPEV3HM8W67X4RTLL", "start_time": "1.51813780543e+12", "human_length": "9", "nodes_expanded": "999", "instance": "prb15290", "end_time": "1.51813781904e+12", "optimal_length": "7", "subject": "A1ZTSCPETU3UJW"}
{"rt": "7520.0", "trial_number": "0", "skipped": "False", "complete": "True", "assignment": "34BBWHLWHBJ6SUL255PK30LEGY5IWG", "start_time": "1.51639440295e+12", "human_length": "7", "nodes_expanded": "999", "instance": "prb15290", "end_time": "1.51639441047e+12", "optimal_length": "7", "subject": "A214HWAW1PYWO8"}
{"rt": "0.0", "trial_number": "0", "skipped": "False", "complete": "False", "assignment": "3X87C8JFV7JQ2BSCY8KSFD9F2ILSQK", "start_time": "1.51674538462e+12", "human_length": "1", "nodes_expanded": "999", "instance": "prb15290", "end_time": "1.51674538462e+12", "optimal_length": "7", "subject": "A21S7MA9DCW95E"}
{"rt": "0.0", "trial_number": "1", "skipped": "False", "complete": "False", "assignment": "3X87C8JFV7JQ2BSCY8KSFD9F2ILSQK", "start_time": "1.51674538462e+12", "human_length": "1", "nodes_expanded": "999", "instance": "prb15290", "end_time": "1.51674538462e+12", "optimal_length": "7", "subject": "A21S7MA9DCW95E"}
{"rt": "16842.0", "trial_number": "2", "skipped": "False", "complete": "True", "assignment": "3X87C8JFV7JQ2BSCY8KSFD9F2ILSQK", "start_time": "1.51674538462e+12", "human_length": "10", "nodes_expanded": "999", "instance": "prb15290", "end_time": "1.51674540146e+12", "optimal_length": "7", "subject": "A21S7MA9DCW95E"}
{"rt": "16842.0", "trial_number": "0", "skipped": "False", "complete": "True", "assignment": "3X87C8JFV7JQ2BSCY8KSFD9F2ILSQK", "start_time": "1.51674538462e+12", "human_length": "10", "nodes_expanded": "999", "instance": "prb15290", "end_time": "1.51674540146e+12", "optimal_length": "7", "subject": "A21S7MA9DCW95E"}
{"rt": "0.0", "trial_number": "0", "skipped": "False", "complete": "False", "assignment": "3IHR8NYAM89M0EPM8U9LH53ZJDTP4U", "start_time": "1.51682730918e+12", "human_length": "1", "nodes_expanded": "999", "instance": "prb15290", "end_time": "1.51682730918e+12", "optimal_length": "7", "subject": "A23437BMZ5T1FH"}
{"rt": "8183.0", "trial_number": "1", "skipped": "False", "complete": "True", "assignment": "3IHR8NYAM89M0EPM8U9LH53ZJDTP4U", "start_time": "1.51682730918e+12", "human_length": "8", "nodes_expanded": "999", "instance": "prb15290", "end_time": "1.51682731736e+12", "optimal_length": "7", "subject": "A23437BMZ5T1FH"}
{"rt": "12805.0", "trial_number": "0", "skipped": "False", "complete": "False", "assignment": "30IQTZXKALEAAZ9CBKW0ZFZP6O5X07", "start_time": "1.51794539051e+12", "human_length": "8", "nodes_expanded": "999", "instance": "prb15290", "end_time": "1.51794540332e+12", "optimal_length": "7", "subject": "A23XJ8I86R0O3B"}
{"rt": "21132.0", "trial_number": "1", "skipped": "False", "complete": "False", "assignment": "30IQTZXKALEAAZ9CBKW0ZFZP6O5X07", "start_time": "1.51794540528e+12", "human_length": "14", "nodes_expanded": "999", "instance": "prb15290", "end_time": "1.51794542641e+12", "optimal_length": "7", "subject": "A23XJ8I86R0O3B"}
{"rt": "20117.0", "trial_number": "2", "skipped": "True", "complete": "False", "assignment": "30IQTZXKALEAAZ9CBKW0ZFZP6O5X07", "start_time": "1.5179454331e+12", "human_length": "11", "nodes_expanded": "999", "instance": "prb15290", "end_time": "1.51794545322e+12", "optimal_length": "7", "subject": "A23XJ8I86R0O3B"}
{"rt": "34291.0", "trial_number": "0", "skipped": "False", "complete": "True", "assignment": "3ZV9H2YQQEFR2R3JK2IXZUJPXAF3WW", "start_time": "1.51630822305e+12", "human_length": "14", "nodes_expanded": "999", "instance": "prb15290", "end_time": "1.51630825734e+12", "optimal_length": "7", "subject": "A289D98Z4GAZ28"}
{"rt": "0.0", "trial_number": "0", "skipped": "False", "complete": "False", "assignment": "3X4MXAO0BHWJLTOLVSJTHSM54OHWRG", "start_time": "1.51682289786e+12", "human_length": "1", "nodes_expanded": "999", "instance": "prb15290", "end_time": "1.51682289786e+12", "optimal_length": "7", "subject": "A2IBQA01NR5N76"}
{"rt": "20804.0", "trial_number": "1", "skipped": "False", "complete": "True", "assignment": "3X4MXAO0BHWJLTOLVSJTHSM54OHWRG", "start_time": "1.51682289786e+12", "human_length": "16", "nodes_expanded": "999", "instance": "prb15290", "end_time": "1.51682291866e+12", "optimal_length": "7", "subject": "A2IBQA01NR5N76"}
{"rt": "20804.0", "trial_number": "0", "skipped": "False", "complete": "True", "assignment": "3X4MXAO0BHWJLTOLVSJTHSM54OHWRG", "start_time": "1.51682289786e+12", "human_length": "16", "nodes_expanded": "999", "instance": "prb15290", "end_time": "1.51682291866e+12", "optimal_length": "7", "subject": "A2IBQA01NR5N76"}
{"rt": "12922.0", "trial_number": "0", "skipped": "False", "complete": "True", "assignment": "3FUI0JHJPY6UBT1VAI7VUX8S3KH33W", "start_time": "1.51815210714e+12", "human_length": "12", "nodes_expanded": "999", "instance": "prb15290", "end_time": "1.51815212006e+12", "optimal_length": "7", "subject": "A2QIZ31TMHU0GD"}
{"rt": "12230.0", "trial_number": "0", "skipped": "False", "complete": "True", "assignment": "3TAYZSBPLMG9ASQRWXURJVBCPLN2SH", "start_time": "1.51813808416e+12", "human_length": "9", "nodes_expanded": "999", "instance": "prb15290", "end_time": "1.51813809639e+12", "optimal_length": "7", "subject": "A2RCYLKY072XXO"}
{"rt": "0.0", "trial_number": "0", "skipped": "False", "complete": "False", "assignment": "3IJXV6UZ1YR1KY4G6BFEG1DXP7SRI1", "start_time": "1.51674961904e+12", "human_length": "1", "nodes_expanded": "999", "instance": "prb15290", "end_time": "1.51674961904e+12", "optimal_length": "7", "subject": "A2RTJ6BDY0DZVZ"}
{"rt": "0.0", "trial_number": "1", "skipped": "False", "complete": "False", "assignment": "3IJXV6UZ1YR1KY4G6BFEG1DXP7SRI1", "start_time": "1.51674961904e+12", "human_length": "1", "nodes_expanded": "999", "instance": "prb15290", "end_time": "1.51674961904e+12", "optimal_length": "7", "subject": "A2RTJ6BDY0DZVZ"}
{"rt": "23990.0", "trial_number": "2", "skipped": "False", "complete": "True", "assignment": "3IJXV6UZ1YR1KY4G6BFEG1DXP7SRI1", "start_time": "1.51674961904e+12", "human_length": "13", "nodes_expanded": "999", "instance": "prb15290", "end_time": "1.51674964303e+12", "optimal_length": "7", "subject": "A2RTJ6BDY0DZVZ"}
{"rt": "23990.0", "trial_number": "0", "skipped": "False", "complete": "True", "assignment": "3IJXV6UZ1YR1KY4G6BFEG1DXP7SRI1", "start_time": "1.51674961904e+12", "human_length": "13", "nodes_expanded": "999", "instance": "prb15290", "end_time": "1.51674964303e+12", "optimal_length": "7", "subject": "A2RTJ6BDY0DZVZ"}
{"rt": "0.0", "trial_number": "0", "skipped": "False", "complete": "False", "assignment": "3WSELTNVR4AZUVYAYCSWZIQW0J4ATB", "start_time": "1.51673865972e+12", "human_length": "1", "nodes_expanded": "999", "instance": "prb15290", "end_time": "1.51673865972e+12", "optimal_length": "7", "subject": "A2TQNX64349OZ9"}
{"rt": "0.0", "trial_number": "1", "skipped": "False", "complete": "False", "assignment": "3WSELTNVR4AZUVYAYCSWZIQW0J4ATB", "start_time": "1.51673865972e+12", "human_length": "1", "nodes_expanded": "999", "instance": "prb15290", "end_time": "1.51673865972e+12", "optimal_length": "7", "subject": "A2TQNX64349OZ9"}
{"rt": "13055.0", "trial_number": "2", "skipped": "False", "complete": "True", "assignment": "3WSELTNVR4AZUVYAYCSWZIQW0J4ATB", "start_time": "1.51673865972e+12", "human_length": "13", "nodes_expanded": "999", "instance": "prb15290", "end_time": "1.51673867277e+12", "optimal_length": "7", "subject": "A2TQNX64349OZ9"}
{"rt": "13055.0", "trial_number": "0", "skipped": "False", "complete": "True", "assignment": "3WSELTNVR4AZUVYAYCSWZIQW0J4ATB", "start_time": "1.51673865972e+12", "human_length": "13", "nodes_expanded": "999", "instance": "prb15290", "end_time": "1.51673867277e+12", "optimal_length": "7", "subject": "A2TQNX64349OZ9"}
{"rt": "11267.0", "trial_number": "0", "skipped": "False", "complete": "True", "assignment": "37TD41K0AIHM8AITTQJXV8KY05QCSB", "start_time": "1.51752422466e+12", "human_length": "8", "nodes_expanded": "999", "instance": "prb15290", "end_time": "1.51752423593e+12", "optimal_length": "7", "subject": "A30KYQGABO7JER"}
{"rt": "7573.0", "trial_number": "0", "skipped": "False", "complete": "True", "assignment": "34HJIJKLP64Z5YMIU6IKNXSH7PDV4I", "start_time": "1.51794176248e+12", "human_length": "7", "nodes_expanded": "999", "instance": "prb15290", "end_time": "1.51794177006e+12", "optimal_length": "7", "subject": "A3CTXNQ2GXIQSP"}
{"rt": "43955.0", "trial_number": "0", "skipped": "False", "complete": "True", "assignment": "3TMFV4NEP9MD3O9PWJDTQBR0HZYW8I", "start_time": "1.51814657165e+12", "human_length": "25", "nodes_expanded": "999", "instance": "prb15290", "end_time": "1.51814661561e+12", "optimal_length": "7", "subject": "A3GOOI75XOF24V"}
{"rt": "7208.0", "trial_number": "0", "skipped": "False", "complete": "True", "assignment": "3TPWUS5F8A9FFRZ2DVTYSXNJ6BWWC6", "start_time": "1.51794079936e+12", "human_length": "7", "nodes_expanded": "999", "instance": "prb15290", "end_time": "1.51794080657e+12", "optimal_length": "7", "subject": "A3GXC3VG37CQ3G"}
{"rt": "0.0", "trial_number": "0", "skipped": "False", "complete": "False", "assignment": "3I2PTA7R3U2SESF4TZBQORI5LSJQKK", "start_time": "1.51675868325e+12", "human_length": "1", "nodes_expanded": "999", "instance": "prb15290", "end_time": "1.51675868325e+12", "optimal_length": "7", "subject": "A3NMQ3019X6YE0"}
{"rt": "0.0", "trial_number": "1", "skipped": "False", "complete": "False", "assignment": "3I2PTA7R3U2SESF4TZBQORI5LSJQKK", "start_time": "1.51675868325e+12", "human_length": "1", "nodes_expanded": "999", "instance": "prb15290", "end_time": "1.51675868325e+12", "optimal_length": "7", "subject": "A3NMQ3019X6YE0"}
{"rt": "26954.0", "trial_number": "2", "skipped": "False", "complete": "True", "assignment": "3I2PTA7R3U2SESF4TZBQORI5LSJQKK", "start_time": "1.51675868325e+12", "human_length": "14", "nodes_expanded": "999", "instance": "prb15290", "end_time": "1.51675871021e+12", "optimal_length": "7", "subject": "A3NMQ3019X6YE0"}
{"rt": "26954.0", "trial_number": "0", "skipped": "False", "complete": "True", "assignment": "3I2PTA7R3U2SESF4TZBQORI5LSJQKK", "start_time": "1.51675868325e+12", "human_length": "14", "nodes_expanded": "999", "instance": "prb15290", "end_time": "1.51675871021e+12", "optimal_length": "7", "subject": "A3NMQ3019X6YE0"}
{"rt": "14828.0", "trial_number": "0", "skipped": "False", "complete": "True", "assignment": "3STRJBFXOXZ5687WA35LTWTS7QZKTT", "start_time": "1.51794332554e+12", "human_length": "13", "nodes_expanded": "999", "instance": "prb15290", "end_time": "1.51794334037e+12", "optimal_length": "7", "subject": "A3OB6REG5CGHK1"}
{"rt": "0.0", "trial_number": "0", "skipped": "False", "complete": "False", "assignment": "3X87C8JFV7JQ2BSCY8KSFD9F2ILSQK", "start_time": "1.51674033243e+12", "human_length": "1", "nodes_expanded": "999", "instance": "prb15290", "end_time": "1.51674033243e+12", "optimal_length": "7", "subject": "A3Q0XAGQ7TD7MP"}
{"rt": "0.0", "trial_number": "1", "skipped": "False", "complete": "False", "assignment": "3X87C8JFV7JQ2BSCY8KSFD9F2ILSQK", "start_time": "1.51674033243e+12", "human_length": "1", "nodes_expanded": "999", "instance": "prb15290", "end_time": "1.51674033243e+12", "optimal_length": "7", "subject": "A3Q0XAGQ7TD7MP"}
{"rt": "10789.0", "trial_number": "2", "skipped": "False", "complete": "True", "assignment": "3X87C8JFV7JQ2BSCY8KSFD9F2ILSQK", "start_time": "1.51674033243e+12", "human_length": "7", "nodes_expanded": "999", "instance": "prb15290", "end_time": "1.51674034322e+12", "optimal_length": "7", "subject": "A3Q0XAGQ7TD7MP"}
{"rt": "15371.0", "trial_number": "3", "skipped": "False", "complete": "True", "assignment": "3GLB5JMZFY3TNXFGYMKRQ0JDXNTDGZ", "start_time": "1.51794782273e+12", "human_length": "7", "nodes_expanded": "999", "instance": "prb15290", "end_time": "1.5179478381e+12", "optimal_length": "7", "subject": "A3Q0XAGQ7TD7MP"}
{"rt": "10789.0", "trial_number": "0", "skipped": "False", "complete": "True", "assignment": "3X87C8JFV7JQ2BSCY8KSFD9F2ILSQK", "start_time": "1.51674033243e+12", "human_length": "7", "nodes_expanded": "999", "instance": "prb15290", "end_time": "1.51674034322e+12", "optimal_length": "7", "subject": "A3Q0XAGQ7TD7MP"}
{"rt": "15371.0", "trial_number": "1", "skipped": "False", "complete": "True", "assignment": "3GLB5JMZFY3TNXFGYMKRQ0JDXNTDGZ", "start_time": "1.51794782273e+12", "human_length": "7", "nodes_expanded": "999", "instance": "prb15290", "end_time": "1.5179478381e+12", "optimal_length": "7", "subject": "A3Q0XAGQ7TD7MP"}
{"rt": "12327.0", "trial_number": "0", "skipped": "False", "complete": "True", "assignment": "3M0BCWMB8W4W5M7WZVX3HDH1P53WB1", "start_time": "1.51816089823e+12", "human_length": "8", "nodes_expanded": "999", "instance": "prb15290", "end_time": "1.51816091056e+12", "optimal_length": "7", "subject": "A53S7J4JGWG38"}
{"rt": "6001.0", "trial_number": "0", "skipped": "False", "complete": "True", "assignment": "3IXEICO793RY7TM78ZBKJDOA7ADT6Q", "start_time": "1.51816830014e+12", "human_length": "8", "nodes_expanded": "999", "instance": "prb15290", "end_time": "1.51816830614e+12", "optimal_length": "7", "subject": "ALH1K6ZAQQMN7"}
{"rt": "17362.0", "trial_number": "0", "skipped": "False", "complete": "True", "assignment": "37QW5D2ZRHUKW7SGCE3STMOFBMK8SX", "start_time": "1.51815671307e+12", "human_length": "11", "nodes_expanded": "999", "instance": "prb15290", "end_time": "1.51815673043e+12", "optimal_length": "7", "subject": "AMW2XLD9443OH"}
{"rt": "15637.0", "trial_number": "0", "skipped": "False", "complete": "True", "assignment": "3HWRJOOET6A15827PHPSLWK1MOYSEU", "start_time": "1.51814559898e+12", "human_length": "12", "nodes_expanded": "999", "instance": "prb15290", "end_time": "1.51814561461e+12", "optimal_length": "7", "subject": "AO1QGAUZ85T6L"}
{"rt": "0.0", "trial_number": "0", "skipped": "False", "complete": "False", "assignment": "3ZSY5X72NYJBGKFJ46SJ0Y9J0RLROB", "start_time": "1.51638810689e+12", "human_length": "1", "nodes_expanded": "999", "instance": "prb15290", "end_time": "1.51638810689e+12", "optimal_length": "7", "subject": "AU4KK3OYS2UZF"}
{"rt": "8660.0", "trial_number": "1", "skipped": "False", "complete": "False", "assignment": "3ZSY5X72NYJBGKFJ46SJ0Y9J0RLROB", "start_time": "1.5163881069e+12", "human_length": "5", "nodes_expanded": "999", "instance": "prb15290", "end_time": "1.51638811556e+12", "optimal_length": "7", "subject": "AU4KK3OYS2UZF"}
{"rt": "0.0", "trial_number": "2", "skipped": "False", "complete": "False", "assignment": "3ZSY5X72NYJBGKFJ46SJ0Y9J0RLROB", "start_time": "1.5163881283e+12", "human_length": "1", "nodes_expanded": "999", "instance": "prb15290", "end_time": "1.5163881283e+12", "optimal_length": "7", "subject": "AU4KK3OYS2UZF"}
{"rt": "0.0", "trial_number": "3", "skipped": "False", "complete": "False", "assignment": "3ZSY5X72NYJBGKFJ46SJ0Y9J0RLROB", "start_time": "1.51638812831e+12", "human_length": "1", "nodes_expanded": "999", "instance": "prb15290", "end_time": "1.51638812831e+12", "optimal_length": "7", "subject": "AU4KK3OYS2UZF"}
{"rt": "7440.0", "trial_number": "4", "skipped": "False", "complete": "True", "assignment": "3ZSY5X72NYJBGKFJ46SJ0Y9J0RLROB", "start_time": "1.51638812848e+12", "human_length": "10", "nodes_expanded": "999", "instance": "prb15290", "end_time": "1.51638813592e+12", "optimal_length": "7", "subject": "AU4KK3OYS2UZF"}
{"rt": "20139.0", "trial_number": "0", "skipped": "False", "complete": "True", "assignment": "33PPO7FECWN7JOLBOAKUBCWTC0AIDL", "start_time": "1.51795084951e+12", "human_length": "9", "nodes_expanded": "999", "instance": "prb15290", "end_time": "1.51795086965e+12", "optimal_length": "7", "subject": "AXKM02NVXNGOM"}
