{"rt": "71450.0", "trial_number": "0", "skipped": "False", "complete": "True", "assignment": "3AZHRG4CU5SYU12YRVPCSZALW5003R", "start_time": "1.51630788753e+12", "human_length": "80", "nodes_expanded": "999", "instance": "prb14898", "end_time": "1.51630795898e+12", "optimal_length": "11", "subject": "ARWF605I7RWM7"}
{"rt": "186165.0", "trial_number": "0", "skipped": "False", "complete": "True", "assignment": "3ZV9H2YQQEFR2R3JK2IXZUJPXAF3WW", "start_time": "1.51630696139e+12", "human_length": "66", "nodes_expanded": "999", "instance": "prb14898", "end_time": "1.51630714756e+12", "optimal_length": "11", "subject": "A289D98Z4GAZ28"}
{"rt": "50086.0", "trial_number": "0", "skipped": "False", "complete": "True", "assignment": "3PMBY0YE28B43VMUKKJ6EDF85RV9C8", "start_time": "1.5163867103e+12", "human_length": "27", "nodes_expanded": "999", "instance": "prb14898", "end_time": "1.51638676039e+12", "optimal_length": "11", "subject": "A191V7PT3DQKDP"}
{"rt": "53063.0", "trial_number": "0", "skipped": "False", "complete": "True", "assignment": "3ZSY5X72NYJBGKFJ46SJ0Y9J0RLROB", "start_time": "1.51638793617e+12", "human_length": "29", "nodes_expanded": "999", "instance": "prb14898", "end_time": "1.51638798924e+12", "optimal_length": "11", "subject": "AU4KK3OYS2UZF"}
{"rt": "17497.0", "trial_number": "0", "skipped": "False", "complete": "True", "assignment": "3TYCR1GOTDRCCQYD1V64UK7OE48LZS", "start_time": "1.516390542e+12", "human_length": "12", "nodes_expanded": "999", "instance": "prb14898", "end_time": "1.5163905595e+12", "optimal_length": "11", "subject": "A2MYB6MLQW0IGN"}
{"rt": "32808.0", "trial_number": "0", "skipped": "False", "complete": "True", "assignment": "34BBWHLWHBJ6SUL255PK30LEGY5IWG", "start_time": "1.51639276041e+12", "human_length": "31", "nodes_expanded": "999", "instance": "prb14898", "end_time": "1.51639279322e+12", "optimal_length": "11", "subject": "A214HWAW1PYWO8"}
{"rt": "0.0", "trial_number": "0", "skipped": "False", "complete": "False", "assignment": "3VE8AYVF8N5BS2NU6U3TMN50JMNF8V", "start_time": "1.51673602662e+12", "human_length": "1", "nodes_expanded": "999", "instance": "prb14898", "end_time": "1.51673602662e+12", "optimal_length": "11", "subject": "A18QU0YQB6Q8DF"}
{"rt": "0.0", "trial_number": "1", "skipped": "False", "complete": "False", "assignment": "3VE8AYVF8N5BS2NU6U3TMN50JMNF8V", "start_time": "1.51673602662e+12", "human_length": "1", "nodes_expanded": "999", "instance": "prb14898", "end_time": "1.51673602662e+12", "optimal_length": "11", "subject": "A18QU0YQB6Q8DF"}
{"rt": "45820.0", "trial_number": "2", "skipped": "False", "complete": "True", "assignment": "3VE8AYVF8N5BS2NU6U3TMN50JMNF8V", "start_time": "1.51673602662e+12", "human_length": "20", "nodes_expanded": "999", "instance": "prb14898", "end_time": "1.51673607244e+12", "optimal_length": "11", "subject": "A18QU0YQB6Q8DF"}
{"rt": "0.0", "trial_number": "0", "skipped": "False", "complete": "False", "assignment": "3X87C8JFV7JQ2BSCY8KSFD9F2ILSQK", "start_time": "1.51673817354e+12", "human_length": "1", "nodes_expanded": "999", "instance": "prb14898", "end_time": "1.51673817354e+12", "optimal_length": "11", "subject": "A3Q0XAGQ7TD7MP"}
{"rt": "0.0", "trial_number": "1", "skipped": "False", "complete": "False", "assignment": "3X87C8JFV7JQ2BSCY8KSFD9F2ILSQK", "start_time": "1.51673817354e+12", "human_length": "1", "nodes_expanded": "999", "instance": "prb14898", "end_time": "1.51673817354e+12", "optimal_length": "11", "subject": "A3Q0XAGQ7TD7MP"}
{"rt": "78925.0", "trial_number": "2", "skipped": "False", "complete": "True", "assignment": "3X87C8JFV7JQ2BSCY8KSFD9F2ILSQK", "start_time": "1.51673817354e+12", "human_length": "26", "nodes_expanded": "999", "instance": "prb14898", "end_time": "1.51673825246e+12", "optimal_length": "11", "subject": "A3Q0XAGQ7TD7MP"}
{"rt": "31262.0", "trial_number": "3", "skipped": "False", "complete": "True", "assignment": "3GLB5JMZFY3TNXFGYMKRQ0JDXNTDGZ", "start_time": "1.51794559261e+12", "human_length": "16", "nodes_expanded": "999", "instance": "prb14898", "end_time": "1.51794562387e+12", "optimal_length": "11", "subject": "A3Q0XAGQ7TD7MP"}
{"rt": "23266.0", "trial_number": "0", "skipped": "False", "complete": "False", "assignment": "3WSELTNVR4AZUVYAYCSWZIQW0J4ATB", "start_time": "1.51673833887e+12", "human_length": "16", "nodes_expanded": "999", "instance": "prb14898", "end_time": "1.51673836214e+12", "optimal_length": "11", "subject": "A2TQNX64349OZ9"}
{"rt": "11891.0", "trial_number": "1", "skipped": "False", "complete": "False", "assignment": "3WSELTNVR4AZUVYAYCSWZIQW0J4ATB", "start_time": "1.51673836614e+12", "human_length": "6", "nodes_expanded": "999", "instance": "prb14898", "end_time": "1.51673837803e+12", "optimal_length": "11", "subject": "A2TQNX64349OZ9"}
{"rt": "40981.0", "trial_number": "2", "skipped": "False", "complete": "False", "assignment": "3WSELTNVR4AZUVYAYCSWZIQW0J4ATB", "start_time": "1.51673837969e+12", "human_length": "18", "nodes_expanded": "999", "instance": "prb14898", "end_time": "1.51673842067e+12", "optimal_length": "11", "subject": "A2TQNX64349OZ9"}
{"rt": "0.0", "trial_number": "3", "skipped": "False", "complete": "False", "assignment": "3WSELTNVR4AZUVYAYCSWZIQW0J4ATB", "start_time": "1.5167384224e+12", "human_length": "1", "nodes_expanded": "999", "instance": "prb14898", "end_time": "1.5167384224e+12", "optimal_length": "11", "subject": "A2TQNX64349OZ9"}
{"rt": "0.0", "trial_number": "4", "skipped": "False", "complete": "False", "assignment": "3WSELTNVR4AZUVYAYCSWZIQW0J4ATB", "start_time": "1.51673833887e+12", "human_length": "1", "nodes_expanded": "999", "instance": "prb14898", "end_time": "1.51673833887e+12", "optimal_length": "11", "subject": "A2TQNX64349OZ9"}
{"rt": "0.0", "trial_number": "5", "skipped": "False", "complete": "False", "assignment": "3WSELTNVR4AZUVYAYCSWZIQW0J4ATB", "start_time": "1.51673836614e+12", "human_length": "1", "nodes_expanded": "999", "instance": "prb14898", "end_time": "1.51673836614e+12", "optimal_length": "11", "subject": "A2TQNX64349OZ9"}
{"rt": "0.0", "trial_number": "6", "skipped": "False", "complete": "False", "assignment": "3WSELTNVR4AZUVYAYCSWZIQW0J4ATB", "start_time": "1.51673837969e+12", "human_length": "1", "nodes_expanded": "999", "instance": "prb14898", "end_time": "1.51673837969e+12", "optimal_length": "11", "subject": "A2TQNX64349OZ9"}
{"rt": "0.0", "trial_number": "7", "skipped": "False", "complete": "False", "assignment": "3WSELTNVR4AZUVYAYCSWZIQW0J4ATB", "start_time": "1.5167384224e+12", "human_length": "1", "nodes_expanded": "999", "instance": "prb14898", "end_time": "1.5167384224e+12", "optimal_length": "11", "subject": "A2TQNX64349OZ9"}
{"rt": "0.0", "trial_number": "8", "skipped": "False", "complete": "False", "assignment": "3WSELTNVR4AZUVYAYCSWZIQW0J4ATB", "start_time": "1.51673833887e+12", "human_length": "1", "nodes_expanded": "999", "instance": "prb14898", "end_time": "1.51673833887e+12", "optimal_length": "11", "subject": "A2TQNX64349OZ9"}
{"rt": "0.0", "trial_number": "9", "skipped": "False", "complete": "False", "assignment": "3WSELTNVR4AZUVYAYCSWZIQW0J4ATB", "start_time": "1.51673836614e+12", "human_length": "1", "nodes_expanded": "999", "instance": "prb14898", "end_time": "1.51673836614e+12", "optimal_length": "11", "subject": "A2TQNX64349OZ9"}
{"rt": "0.0", "trial_number": "10", "skipped": "False", "complete": "False", "assignment": "3WSELTNVR4AZUVYAYCSWZIQW0J4ATB", "start_time": "1.51673837969e+12", "human_length": "1", "nodes_expanded": "999", "instance": "prb14898", "end_time": "1.51673837969e+12", "optimal_length": "11", "subject": "A2TQNX64349OZ9"}
{"rt": "21527.0", "trial_number": "11", "skipped": "True", "complete": "False", "assignment": "3WSELTNVR4AZUVYAYCSWZIQW0J4ATB", "start_time": "1.5167384224e+12", "human_length": "122", "nodes_expanded": "999", "instance": "prb14898", "end_time": "1.51673844393e+12", "optimal_length": "11", "subject": "A2TQNX64349OZ9"}
{"rt": "19600.0", "trial_number": "0", "skipped": "False", "complete": "False", "assignment": "3X87C8JFV7JQ2BSCY8KSFD9F2ILSQK", "start_time": "1.51674607577e+12", "human_length": "5", "nodes_expanded": "999", "instance": "prb14898", "end_time": "1.51674609537e+12", "optimal_length": "11", "subject": "A21S7MA9DCW95E"}
{"rt": "0.0", "trial_number": "1", "skipped": "False", "complete": "False", "assignment": "3X87C8JFV7JQ2BSCY8KSFD9F2ILSQK", "start_time": "1.51674610015e+12", "human_length": "1", "nodes_expanded": "999", "instance": "prb14898", "end_time": "1.51674610015e+12", "optimal_length": "11", "subject": "A21S7MA9DCW95E"}
{"rt": "0.0", "trial_number": "2", "skipped": "False", "complete": "False", "assignment": "3X87C8JFV7JQ2BSCY8KSFD9F2ILSQK", "start_time": "1.51674607577e+12", "human_length": "1", "nodes_expanded": "999", "instance": "prb14898", "end_time": "1.51674607577e+12", "optimal_length": "11", "subject": "A21S7MA9DCW95E"}
{"rt": "0.0", "trial_number": "3", "skipped": "False", "complete": "False", "assignment": "3X87C8JFV7JQ2BSCY8KSFD9F2ILSQK", "start_time": "1.51674610015e+12", "human_length": "1", "nodes_expanded": "999", "instance": "prb14898", "end_time": "1.51674610015e+12", "optimal_length": "11", "subject": "A21S7MA9DCW95E"}
{"rt": "0.0", "trial_number": "4", "skipped": "False", "complete": "False", "assignment": "3X87C8JFV7JQ2BSCY8KSFD9F2ILSQK", "start_time": "1.51674607577e+12", "human_length": "1", "nodes_expanded": "999", "instance": "prb14898", "end_time": "1.51674607577e+12", "optimal_length": "11", "subject": "A21S7MA9DCW95E"}
{"rt": "27094.0", "trial_number": "5", "skipped": "False", "complete": "True", "assignment": "3X87C8JFV7JQ2BSCY8KSFD9F2ILSQK", "start_time": "1.51674610015e+12", "human_length": "14", "nodes_expanded": "999", "instance": "prb14898", "end_time": "1.51674612724e+12", "optimal_length": "11", "subject": "A21S7MA9DCW95E"}
{"rt": "0.0", "trial_number": "0", "skipped": "False", "complete": "False", "assignment": "3IJXV6UZ1YR1KY4G6BFEG1DXP7SRI1", "start_time": "1.51674941549e+12", "human_length": "1", "nodes_expanded": "999", "instance": "prb14898", "end_time": "1.51674941549e+12", "optimal_length": "11", "subject": "A2RTJ6BDY0DZVZ"}
{"rt": "0.0", "trial_number": "1", "skipped": "False", "complete": "False", "assignment": "3IJXV6UZ1YR1KY4G6BFEG1DXP7SRI1", "start_time": "1.51674941549e+12", "human_length": "1", "nodes_expanded": "999", "instance": "prb14898", "end_time": "1.51674941549e+12", "optimal_length": "11", "subject": "A2RTJ6BDY0DZVZ"}
{"rt": "28368.0", "trial_number": "2", "skipped": "False", "complete": "True", "assignment": "3IJXV6UZ1YR1KY4G6BFEG1DXP7SRI1", "start_time": "1.51674941549e+12", "human_length": "13", "nodes_expanded": "999", "instance": "prb14898", "end_time": "1.51674944386e+12", "optimal_length": "11", "subject": "A2RTJ6BDY0DZVZ"}
{"rt": "28357.0", "trial_number": "0", "skipped": "False", "complete": "True", "assignment": "3V5Q80FXIYZ5QB5C6ITQBN30WY823U", "start_time": "1.51753441617e+12", "human_length": "22", "nodes_expanded": "999", "instance": "prb14898", "end_time": "1.51753444453e+12", "optimal_length": "11", "subject": "A3NMQ3019X6YE0"}
{"rt": "0.0", "trial_number": "0", "skipped": "False", "complete": "False", "assignment": "3IHR8NYAM89M0EPM8U9LH53ZJDTP4U", "start_time": "1.51682570644e+12", "human_length": "1", "nodes_expanded": "999", "instance": "prb14898", "end_time": "1.51682570644e+12", "optimal_length": "11", "subject": "A23437BMZ5T1FH"}
{"rt": "13906.0", "trial_number": "1", "skipped": "False", "complete": "True", "assignment": "3IHR8NYAM89M0EPM8U9LH53ZJDTP4U", "start_time": "1.51682570644e+12", "human_length": "16", "nodes_expanded": "999", "instance": "prb14898", "end_time": "1.51682572034e+12", "optimal_length": "11", "subject": "A23437BMZ5T1FH"}
{"rt": "30740.0", "trial_number": "0", "skipped": "False", "complete": "True", "assignment": "3YW4XOSQKRTI0K0Z2YPDTDJVFABU1I", "start_time": "1.51683361481e+12", "human_length": "26", "nodes_expanded": "999", "instance": "prb14898", "end_time": "1.51683364555e+12", "optimal_length": "11", "subject": "A1LR0VQIHQUJAM"}
{"rt": "45820.0", "trial_number": "0", "skipped": "False", "complete": "True", "assignment": "3VE8AYVF8N5BS2NU6U3TMN50JMNF8V", "start_time": "1.51673602662e+12", "human_length": "20", "nodes_expanded": "999", "instance": "prb14898", "end_time": "1.51673607244e+12", "optimal_length": "11", "subject": "A18QU0YQB6Q8DF"}
{"rt": "78925.0", "trial_number": "0", "skipped": "False", "complete": "True", "assignment": "3X87C8JFV7JQ2BSCY8KSFD9F2ILSQK", "start_time": "1.51673817354e+12", "human_length": "26", "nodes_expanded": "999", "instance": "prb14898", "end_time": "1.51673825246e+12", "optimal_length": "11", "subject": "A3Q0XAGQ7TD7MP"}
{"rt": "31262.0", "trial_number": "1", "skipped": "False", "complete": "True", "assignment": "3GLB5JMZFY3TNXFGYMKRQ0JDXNTDGZ", "start_time": "1.51794559261e+12", "human_length": "16", "nodes_expanded": "999", "instance": "prb14898", "end_time": "1.51794562387e+12", "optimal_length": "11", "subject": "A3Q0XAGQ7TD7MP"}
{"rt": "23266.0", "trial_number": "0", "skipped": "False", "complete": "False", "assignment": "3WSELTNVR4AZUVYAYCSWZIQW0J4ATB", "start_time": "1.51673833887e+12", "human_length": "16", "nodes_expanded": "999", "instance": "prb14898", "end_time": "1.51673836214e+12", "optimal_length": "11", "subject": "A2TQNX64349OZ9"}
{"rt": "11891.0", "trial_number": "1", "skipped": "False", "complete": "False", "assignment": "3WSELTNVR4AZUVYAYCSWZIQW0J4ATB", "start_time": "1.51673836614e+12", "human_length": "6", "nodes_expanded": "999", "instance": "prb14898", "end_time": "1.51673837803e+12", "optimal_length": "11", "subject": "A2TQNX64349OZ9"}
{"rt": "40981.0", "trial_number": "2", "skipped": "False", "complete": "False", "assignment": "3WSELTNVR4AZUVYAYCSWZIQW0J4ATB", "start_time": "1.51673837969e+12", "human_length": "18", "nodes_expanded": "999", "instance": "prb14898", "end_time": "1.51673842067e+12", "optimal_length": "11", "subject": "A2TQNX64349OZ9"}
{"rt": "21527.0", "trial_number": "3", "skipped": "True", "complete": "False", "assignment": "3WSELTNVR4AZUVYAYCSWZIQW0J4ATB", "start_time": "1.5167384224e+12", "human_length": "18", "nodes_expanded": "999", "instance": "prb14898", "end_time": "1.51673844393e+12", "optimal_length": "11", "subject": "A2TQNX64349OZ9"}
{"rt": "19600.0", "trial_number": "0", "skipped": "False", "complete": "False", "assignment": "3X87C8JFV7JQ2BSCY8KSFD9F2ILSQK", "start_time": "1.51674607577e+12", "human_length": "5", "nodes_expanded": "999", "instance": "prb14898", "end_time": "1.51674609537e+12", "optimal_length": "11", "subject": "A21S7MA9DCW95E"}
{"rt": "27094.0", "trial_number": "1", "skipped": "False", "complete": "True", "assignment": "3X87C8JFV7JQ2BSCY8KSFD9F2ILSQK", "start_time": "1.51674610015e+12", "human_length": "14", "nodes_expanded": "999", "instance": "prb14898", "end_time": "1.51674612724e+12", "optimal_length": "11", "subject": "A21S7MA9DCW95E"}
{"rt": "28368.0", "trial_number": "0", "skipped": "False", "complete": "True", "assignment": "3IJXV6UZ1YR1KY4G6BFEG1DXP7SRI1", "start_time": "1.51674941549e+12", "human_length": "13", "nodes_expanded": "999", "instance": "prb14898", "end_time": "1.51674944386e+12", "optimal_length": "11", "subject": "A2RTJ6BDY0DZVZ"}
{"rt": "28357.0", "trial_number": "0", "skipped": "False", "complete": "True", "assignment": "3V5Q80FXIYZ5QB5C6ITQBN30WY823U", "start_time": "1.51753441617e+12", "human_length": "22", "nodes_expanded": "999", "instance": "prb14898", "end_time": "1.51753444453e+12", "optimal_length": "11", "subject": "A3NMQ3019X6YE0"}
{"rt": "38656.0", "trial_number": "0", "skipped": "True", "complete": "False", "assignment": "34Q075JO1YL2KYOJ4RBT46VOZM710O", "start_time": "1.51683575159e+12", "human_length": "21", "nodes_expanded": "999", "instance": "prb14898", "end_time": "1.51683579024e+12", "optimal_length": "11", "subject": "A1A2XH9JVSN8Z0"}
{"rt": "57283.0", "trial_number": "0", "skipped": "False", "complete": "False", "assignment": "3TS1AR6UQRM7SOIBWPBN8N9589Y7FV", "start_time": "1.51683782812e+12", "human_length": "30", "nodes_expanded": "999", "instance": "prb14898", "end_time": "1.5168378854e+12", "optimal_length": "11", "subject": "A1F4N58CAX8IMK"}
{"rt": "70201.0", "trial_number": "1", "skipped": "True", "complete": "False", "assignment": "35DR22AR5ES6RR89U7EJ1DXW91AX3P", "start_time": "1.5179527042e+12", "human_length": "50", "nodes_expanded": "999", "instance": "prb14898", "end_time": "1.5179527744e+12", "optimal_length": "11", "subject": "A1F4N58CAX8IMK"}
{"rt": "88041.0", "trial_number": "0", "skipped": "False", "complete": "True", "assignment": "3TS1AR6UQRM7SOIBWPBN8N9589Y7FV", "start_time": "1.5168420295e+12", "human_length": "37", "nodes_expanded": "999", "instance": "prb14898", "end_time": "1.51684211754e+12", "optimal_length": "11", "subject": "A15FXHC1CVNW31"}
{"rt": "21992.0", "trial_number": "0", "skipped": "False", "complete": "False", "assignment": "31LM9EDVOM0C0BWUVMJXJINN3QPJNI", "start_time": "1.51752394336e+12", "human_length": "15", "nodes_expanded": "999", "instance": "prb14898", "end_time": "1.51752396535e+12", "optimal_length": "11", "subject": "A1NT8BT94ME6F5"}
{"rt": "9143.0", "trial_number": "1", "skipped": "True", "complete": "False", "assignment": "31LM9EDVOM0C0BWUVMJXJINN3QPJNI", "start_time": "1.51752396954e+12", "human_length": "6", "nodes_expanded": "999", "instance": "prb14898", "end_time": "1.51752397868e+12", "optimal_length": "11", "subject": "A1NT8BT94ME6F5"}
{"rt": "31742.0", "trial_number": "0", "skipped": "False", "complete": "True", "assignment": "37TD41K0AIHM8AITTQJXV8KY05QCSB", "start_time": "1.51752628349e+12", "human_length": "14", "nodes_expanded": "999", "instance": "prb14898", "end_time": "1.51752631523e+12", "optimal_length": "11", "subject": "A30KYQGABO7JER"}
{"rt": "25155.0", "trial_number": "0", "skipped": "False", "complete": "True", "assignment": "36H9ULYP6320CJJDXY0KBDEE1Z3JFB", "start_time": "1.51753388866e+12", "human_length": "16", "nodes_expanded": "999", "instance": "prb14898", "end_time": "1.51753391381e+12", "optimal_length": "11", "subject": "AN098C29EGJ6"}
{"rt": "46550.0", "trial_number": "0", "skipped": "True", "complete": "False", "assignment": "3TYCR1GOTDRCCQYD1V64UK7OHTBZLQ", "start_time": "1.51753612556e+12", "human_length": "28", "nodes_expanded": "999", "instance": "prb14898", "end_time": "1.51753617211e+12", "optimal_length": "11", "subject": "A13BZCNJ0WR1T7"}
{"rt": "12005.0", "trial_number": "0", "skipped": "False", "complete": "False", "assignment": "3H0W84IWBLAP4T2UASPNVMF5ZH7ER9", "start_time": "1.51755306458e+12", "human_length": "8", "nodes_expanded": "999", "instance": "prb14898", "end_time": "1.51755307659e+12", "optimal_length": "11", "subject": "A1AKX1C8GCVCTP"}
{"rt": "32513.0", "trial_number": "1", "skipped": "False", "complete": "False", "assignment": "3H0W84IWBLAP4T2UASPNVMF5ZH7ER9", "start_time": "1.51755308229e+12", "human_length": "18", "nodes_expanded": "999", "instance": "prb14898", "end_time": "1.5175531148e+12", "optimal_length": "11", "subject": "A1AKX1C8GCVCTP"}
{"rt": "13472.0", "trial_number": "2", "skipped": "True", "complete": "False", "assignment": "3H0W84IWBLAP4T2UASPNVMF5ZH7ER9", "start_time": "1.51755311617e+12", "human_length": "5", "nodes_expanded": "999", "instance": "prb14898", "end_time": "1.51755312964e+12", "optimal_length": "11", "subject": "A1AKX1C8GCVCTP"}
{"rt": "33252.0", "trial_number": "0", "skipped": "False", "complete": "False", "assignment": "3TPWUS5F8A9FFRZ2DVTYSXNJ6BWWC6", "start_time": "1.51794061122e+12", "human_length": "11", "nodes_expanded": "999", "instance": "prb14898", "end_time": "1.51794064447e+12", "optimal_length": "11", "subject": "A3GXC3VG37CQ3G"}
{"rt": "39357.0", "trial_number": "1", "skipped": "False", "complete": "True", "assignment": "3TPWUS5F8A9FFRZ2DVTYSXNJ6BWWC6", "start_time": "1.51794064887e+12", "human_length": "18", "nodes_expanded": "999", "instance": "prb14898", "end_time": "1.51794068823e+12", "optimal_length": "11", "subject": "A3GXC3VG37CQ3G"}
{"rt": "97992.0", "trial_number": "0", "skipped": "False", "complete": "True", "assignment": "3IAS3U3I0GOAT69PLB8WT61CKJ22BO", "start_time": "1.51793983334e+12", "human_length": "37", "nodes_expanded": "999", "instance": "prb14898", "end_time": "1.51793993133e+12", "optimal_length": "11", "subject": "A2C84POENS2UNY"}
{"rt": "25307.0", "trial_number": "0", "skipped": "False", "complete": "False", "assignment": "34HJIJKLP64Z5YMIU6IKNXSH7PDV4I", "start_time": "1.51794311653e+12", "human_length": "12", "nodes_expanded": "999", "instance": "prb14898", "end_time": "1.51794314184e+12", "optimal_length": "11", "subject": "A3CTXNQ2GXIQSP"}
{"rt": "51520.0", "trial_number": "1", "skipped": "True", "complete": "False", "assignment": "34HJIJKLP64Z5YMIU6IKNXSH7PDV4I", "start_time": "1.51794314734e+12", "human_length": "29", "nodes_expanded": "999", "instance": "prb14898", "end_time": "1.51794319886e+12", "optimal_length": "11", "subject": "A3CTXNQ2GXIQSP"}
{"rt": "78076.0", "trial_number": "0", "skipped": "False", "complete": "False", "assignment": "33PPO7FECWN7JOLBOAKUBCWTC0AIDL", "start_time": "1.51794108964e+12", "human_length": "37", "nodes_expanded": "999", "instance": "prb14898", "end_time": "1.51794116772e+12", "optimal_length": "11", "subject": "AB5IVPS4OP9M8"}
{"rt": "57285.0", "trial_number": "1", "skipped": "False", "complete": "True", "assignment": "33PPO7FECWN7JOLBOAKUBCWTC0AIDL", "start_time": "1.51794119312e+12", "human_length": "32", "nodes_expanded": "999", "instance": "prb14898", "end_time": "1.51794125040e+12", "optimal_length": "11", "subject": "AB5IVPS4OP9M8"}
{"rt": "84592.0", "trial_number": "0", "skipped": "False", "complete": "True", "assignment": "3TXD01ZLD5PZSJXIPG8FRBQYTI9U4X", "start_time": "1.51794487031e+12", "human_length": "41", "nodes_expanded": "999", "instance": "prb14898", "end_time": "1.5179449549e+12", "optimal_length": "11", "subject": "A3BPRPN10HJD4B"}
{"rt": "4716.0", "trial_number": "0", "skipped": "False", "complete": "False", "assignment": "3STRJBFXOXZ5687WA35LTWTS7QZKTT", "start_time": "1.51794484592e+12", "human_length": "4", "nodes_expanded": "999", "instance": "prb14898", "end_time": "1.51794485063e+12", "optimal_length": "11", "subject": "A3OB6REG5CGHK1"}
{"rt": "17298.0", "trial_number": "1", "skipped": "False", "complete": "False", "assignment": "3STRJBFXOXZ5687WA35LTWTS7QZKTT", "start_time": "1.51794485226e+12", "human_length": "6", "nodes_expanded": "999", "instance": "prb14898", "end_time": "1.51794486955e+12", "optimal_length": "11", "subject": "A3OB6REG5CGHK1"}
{"rt": "9563.0", "trial_number": "2", "skipped": "False", "complete": "False", "assignment": "3STRJBFXOXZ5687WA35LTWTS7QZKTT", "start_time": "1.51794487082e+12", "human_length": "3", "nodes_expanded": "999", "instance": "prb14898", "end_time": "1.51794488039e+12", "optimal_length": "11", "subject": "A3OB6REG5CGHK1"}
{"rt": "18951.0", "trial_number": "3", "skipped": "True", "complete": "False", "assignment": "3STRJBFXOXZ5687WA35LTWTS7QZKTT", "start_time": "1.51794488448e+12", "human_length": "9", "nodes_expanded": "999", "instance": "prb14898", "end_time": "1.51794490343e+12", "optimal_length": "11", "subject": "A3OB6REG5CGHK1"}
{"rt": "13967.0", "trial_number": "0", "skipped": "True", "complete": "False", "assignment": "3JCG6DTRV4YEPVDZ64VNKDUEMPGQQ1", "start_time": "1.51794787607e+12", "human_length": "8", "nodes_expanded": "999", "instance": "prb14898", "end_time": "1.51794789003e+12", "optimal_length": "11", "subject": "A2V7KYLBCBTI3B"}
{"rt": "23041.0", "trial_number": "0", "skipped": "False", "complete": "True", "assignment": "33PPO7FECWN7JOLBOAKUBCWTC0AIDL", "start_time": "1.51795092062e+12", "human_length": "12", "nodes_expanded": "999", "instance": "prb14898", "end_time": "1.51795094366e+12", "optimal_length": "11", "subject": "AXKM02NVXNGOM"}
{"rt": "12970.0", "trial_number": "0", "skipped": "False", "complete": "False", "assignment": "3HYA4D452SR06NL5QDUSCWSXZI12FF", "start_time": "1.51795030164e+12", "human_length": "7", "nodes_expanded": "999", "instance": "prb14898", "end_time": "1.51795031461e+12", "optimal_length": "11", "subject": "A2OFWHV8IP7HK"}
{"rt": "21100.0", "trial_number": "1", "skipped": "False", "complete": "False", "assignment": "3HYA4D452SR06NL5QDUSCWSXZI12FF", "start_time": "1.51795031796e+12", "human_length": "8", "nodes_expanded": "999", "instance": "prb14898", "end_time": "1.51795033906e+12", "optimal_length": "11", "subject": "A2OFWHV8IP7HK"}
{"rt": "17553.0", "trial_number": "2", "skipped": "False", "complete": "False", "assignment": "3HYA4D452SR06NL5QDUSCWSXZI12FF", "start_time": "1.51795034759e+12", "human_length": "9", "nodes_expanded": "999", "instance": "prb14898", "end_time": "1.51795036514e+12", "optimal_length": "11", "subject": "A2OFWHV8IP7HK"}
{"rt": "26674.0", "trial_number": "3", "skipped": "False", "complete": "False", "assignment": "3HYA4D452SR06NL5QDUSCWSXZI12FF", "start_time": "1.51795037429e+12", "human_length": "8", "nodes_expanded": "999", "instance": "prb14898", "end_time": "1.51795040096e+12", "optimal_length": "11", "subject": "A2OFWHV8IP7HK"}
{"rt": "21264.0", "trial_number": "4", "skipped": "False", "complete": "False", "assignment": "3HYA4D452SR06NL5QDUSCWSXZI12FF", "start_time": "1.51795040526e+12", "human_length": "3", "nodes_expanded": "999", "instance": "prb14898", "end_time": "1.51795042653e+12", "optimal_length": "11", "subject": "A2OFWHV8IP7HK"}
{"rt": "64687.0", "trial_number": "5", "skipped": "True", "complete": "False", "assignment": "3HYA4D452SR06NL5QDUSCWSXZI12FF", "start_time": "1.51795043438e+12", "human_length": "17", "nodes_expanded": "999", "instance": "prb14898", "end_time": "1.51795049906e+12", "optimal_length": "11", "subject": "A2OFWHV8IP7HK"}
{"rt": "30860.0", "trial_number": "0", "skipped": "False", "complete": "True", "assignment": "3PB5A5BD0WED6OE679H5Q89HBDGG71", "start_time": "1.51795371998e+12", "human_length": "22", "nodes_expanded": "999", "instance": "prb14898", "end_time": "1.51795375084e+12", "optimal_length": "11", "subject": "A1USR9JCAMDGM3"}
{"rt": "28154.0", "trial_number": "0", "skipped": "False", "complete": "True", "assignment": "3R5F3LQFV3SKIB1AENMWM1BICT5OZB", "start_time": "1.51795933034e+12", "human_length": "14", "nodes_expanded": "999", "instance": "prb14898", "end_time": "1.5179593585e+12", "optimal_length": "11", "subject": "A1N1EF0MIRSEZZ"}
{"rt": "20818.0", "trial_number": "0", "skipped": "False", "complete": "True", "assignment": "33F859I567LE8WC74WB3GA7E94XBHW", "start_time": "1.51796716102e+12", "human_length": "15", "nodes_expanded": "999", "instance": "prb14898", "end_time": "1.51796718183e+12", "optimal_length": "11", "subject": "A1GQS6USF2JEYG"}
{"rt": "13356.0", "trial_number": "0", "skipped": "False", "complete": "True", "assignment": "3IJXV6UZ1YR1KY4G6BFEG1DXR47RIC", "start_time": "1.51797297721e+12", "human_length": "13", "nodes_expanded": "999", "instance": "prb14898", "end_time": "1.51797299056e+12", "optimal_length": "11", "subject": "A18T3WK7J16C1B"}
{"rt": "35839.0", "trial_number": "0", "skipped": "False", "complete": "True", "assignment": "3FTF2T8WLSQDHTSZ1BJ7Q7MB14SW9H", "start_time": "1.51813599718e+12", "human_length": "17", "nodes_expanded": "999", "instance": "prb14898", "end_time": "1.51813603302e+12", "optimal_length": "11", "subject": "A1IUH9D7N69VS"}
{"rt": "35032.0", "trial_number": "0", "skipped": "False", "complete": "True", "assignment": "3XC1O3LBOTUGQEPEV3HM8W67X4RTLL", "start_time": "1.51813828354e+12", "human_length": "19", "nodes_expanded": "999", "instance": "prb14898", "end_time": "1.51813831857e+12", "optimal_length": "11", "subject": "A1ZTSCPETU3UJW"}
{"rt": "32466.0", "trial_number": "0", "skipped": "True", "complete": "False", "assignment": "3TAYZSBPLMG9ASQRWXURJVBCPLN2SH", "start_time": "1.51813791786e+12", "human_length": "13", "nodes_expanded": "999", "instance": "prb14898", "end_time": "1.51813795032e+12", "optimal_length": "11", "subject": "A2RCYLKY072XXO"}
{"rt": "50588.0", "trial_number": "0", "skipped": "False", "complete": "False", "assignment": "3SB5N7Y3O4CZODEMMAWWBTZU4C90GB", "start_time": "1.51813937274e+12", "human_length": "13", "nodes_expanded": "999", "instance": "prb14898", "end_time": "1.51813942333e+12", "optimal_length": "11", "subject": "A1RVMADIZE3BXK"}
{"rt": "32355.0", "trial_number": "1", "skipped": "False", "complete": "False", "assignment": "3SB5N7Y3O4CZODEMMAWWBTZU4C90GB", "start_time": "1.51813942877e+12", "human_length": "7", "nodes_expanded": "999", "instance": "prb14898", "end_time": "1.51813946113e+12", "optimal_length": "11", "subject": "A1RVMADIZE3BXK"}
{"rt": "22184.0", "trial_number": "2", "skipped": "False", "complete": "False", "assignment": "3SB5N7Y3O4CZODEMMAWWBTZU4C90GB", "start_time": "1.51813946441e+12", "human_length": "12", "nodes_expanded": "999", "instance": "prb14898", "end_time": "1.51813948659e+12", "optimal_length": "11", "subject": "A1RVMADIZE3BXK"}
{"rt": "100814.0", "trial_number": "3", "skipped": "False", "complete": "True", "assignment": "3SB5N7Y3O4CZODEMMAWWBTZU4C90GB", "start_time": "1.51813949468e+12", "human_length": "57", "nodes_expanded": "999", "instance": "prb14898", "end_time": "1.5181395955e+12", "optimal_length": "11", "subject": "A1RVMADIZE3BXK"}
{"rt": "13607.0", "trial_number": "0", "skipped": "False", "complete": "True", "assignment": "3ZSANO2JCGFTBM23KS9Y3E51YP4FSQ", "start_time": "1.51814389924e+12", "human_length": "13", "nodes_expanded": "999", "instance": "prb14898", "end_time": "1.51814391285e+12", "optimal_length": "11", "subject": "A1F42D4L22K5ND"}
{"rt": "69740.0", "trial_number": "0", "skipped": "False", "complete": "True", "assignment": "3VE8AYVF8N5BS2NU6U3TMN50MV38FP", "start_time": "1.51814268103e+12", "human_length": "35", "nodes_expanded": "999", "instance": "prb14898", "end_time": "1.51814275077e+12", "optimal_length": "11", "subject": "A1JN13098RIE78"}
{"rt": "39020.0", "trial_number": "0", "skipped": "False", "complete": "False", "assignment": "3TMFV4NEP9MD3O9PWJDTQBR0HZYW8I", "start_time": "1.51814752488e+12", "human_length": "18", "nodes_expanded": "999", "instance": "prb14898", "end_time": "1.5181475639e+12", "optimal_length": "11", "subject": "A3GOOI75XOF24V"}
{"rt": "58398.0", "trial_number": "1", "skipped": "False", "complete": "False", "assignment": "3TMFV4NEP9MD3O9PWJDTQBR0HZYW8I", "start_time": "1.51814756706e+12", "human_length": "27", "nodes_expanded": "999", "instance": "prb14898", "end_time": "1.51814762546e+12", "optimal_length": "11", "subject": "A3GOOI75XOF24V"}
{"rt": "162683.0", "trial_number": "2", "skipped": "False", "complete": "True", "assignment": "3TMFV4NEP9MD3O9PWJDTQBR0HZYW8I", "start_time": "1.51814762829e+12", "human_length": "56", "nodes_expanded": "999", "instance": "prb14898", "end_time": "1.51814779098e+12", "optimal_length": "11", "subject": "A3GOOI75XOF24V"}
{"rt": "26376.0", "trial_number": "0", "skipped": "False", "complete": "True", "assignment": "3XLBSAQ9Z5KDX59BX15UBFPNNHYZ7Q", "start_time": "1.51814619679e+12", "human_length": "23", "nodes_expanded": "999", "instance": "prb14898", "end_time": "1.51814622317e+12", "optimal_length": "11", "subject": "A1HFNOKU591WCY"}
{"rt": "0.0", "trial_number": "0", "skipped": "False", "complete": "False", "assignment": "3RUIQRXJBCWS71H9MUFVM5WQ3SCLLJ", "start_time": "1.51815703505e+12", "human_length": "1", "nodes_expanded": "999", "instance": "prb14898", "end_time": "1.51815703505e+12", "optimal_length": "11", "subject": "A1SJRFJWFXSDH4"}
{"rt": "18265.0", "trial_number": "1", "skipped": "False", "complete": "False", "assignment": "3RUIQRXJBCWS71H9MUFVM5WQ3SCLLJ", "start_time": "1.51815703506e+12", "human_length": "3", "nodes_expanded": "999", "instance": "prb14898", "end_time": "1.51815705332e+12", "optimal_length": "11", "subject": "A1SJRFJWFXSDH4"}
{"rt": "33295.0", "trial_number": "2", "skipped": "False", "complete": "True", "assignment": "3RUIQRXJBCWS71H9MUFVM5WQ3SCLLJ", "start_time": "1.518157057e+12", "human_length": "17", "nodes_expanded": "999", "instance": "prb14898", "end_time": "1.51815709029e+12", "optimal_length": "11", "subject": "A1SJRFJWFXSDH4"}
{"rt": "12255.0", "trial_number": "0", "skipped": "False", "complete": "False", "assignment": "3M0BCWMB8W4W5M7WZVX3HDH1P53WB1", "start_time": "1.5181587626e+12", "human_length": "5", "nodes_expanded": "999", "instance": "prb14898", "end_time": "1.51815877485e+12", "optimal_length": "11", "subject": "A53S7J4JGWG38"}
{"rt": "31767.0", "trial_number": "1", "skipped": "False", "complete": "True", "assignment": "3M0BCWMB8W4W5M7WZVX3HDH1P53WB1", "start_time": "1.51815878008e+12", "human_length": "11", "nodes_expanded": "999", "instance": "prb14898", "end_time": "1.51815881185e+12", "optimal_length": "11", "subject": "A53S7J4JGWG38"}
{"rt": "56533.0", "trial_number": "0", "skipped": "False", "complete": "False", "assignment": "3SITXWYCNWHBUMCM90TPJWV8Y7AXBW", "start_time": "1.51816552173e+12", "human_length": "20", "nodes_expanded": "999", "instance": "prb14898", "end_time": "1.51816557826e+12", "optimal_length": "11", "subject": "A28RX7L0QZ993M"}
{"rt": "122422.0", "trial_number": "1", "skipped": "True", "complete": "False", "assignment": "3SITXWYCNWHBUMCM90TPJWV8Y7AXBW", "start_time": "1.5181655801e+12", "human_length": "43", "nodes_expanded": "999", "instance": "prb14898", "end_time": "1.51816570252e+12", "optimal_length": "11", "subject": "A28RX7L0QZ993M"}
{"rt": "35341.0", "trial_number": "0", "skipped": "False", "complete": "True", "assignment": "3IXEICO793RY7TM78ZBKJDOA7ADT6Q", "start_time": "1.51816817693e+12", "human_length": "25", "nodes_expanded": "999", "instance": "prb14898", "end_time": "1.51816821227e+12", "optimal_length": "11", "subject": "ALH1K6ZAQQMN7"}
