{"rt": "10145.0", "trial_number": "0", "skipped": "True", "complete": "False", "assignment": "3TYCR1GOTDRCCQYD1V64UK7OHTBZLQ", "start_time": "1.51753710822e+12", "human_length": "9", "nodes_expanded": "999", "instance": "prb12604", "end_time": "1.51753711836e+12", "optimal_length": "7", "subject": "A13BZCNJ0WR1T7"}
{"rt": "0.0", "trial_number": "0", "skipped": "False", "complete": "False", "assignment": "3YW4XOSQKRTI0K0Z2YPDTDJVFABU1I", "start_time": "1.51682366313e+12", "human_length": "1", "nodes_expanded": "999", "instance": "prb12604", "end_time": "1.51682366313e+12", "optimal_length": "7", "subject": "A15781PHGW377Y"}
{"rt": "152616.0", "trial_number": "1", "skipped": "False", "complete": "True", "assignment": "3YW4XOSQKRTI0K0Z2YPDTDJVFABU1I", "start_time": "1.51682366313e+12", "human_length": "34", "nodes_expanded": "999", "instance": "prb12604", "end_time": "1.51682381574e+12", "optimal_length": "7", "subject": "A15781PHGW377Y"}
{"rt": "152616.0", "trial_number": "0", "skipped": "False", "complete": "True", "assignment": "3YW4XOSQKRTI0K0Z2YPDTDJVFABU1I", "start_time": "1.51682366313e+12", "human_length": "34", "nodes_expanded": "999", "instance": "prb12604", "end_time": "1.51682381574e+12", "optimal_length": "7", "subject": "A15781PHGW377Y"}
{"rt": "26263.0", "trial_number": "0", "skipped": "False", "complete": "True", "assignment": "3TS1AR6UQRM7SOIBWPBN8N9589Y7FV", "start_time": "1.51684478334e+12", "human_length": "18", "nodes_expanded": "999", "instance": "prb12604", "end_time": "1.51684480961e+12", "optimal_length": "7", "subject": "A15FXHC1CVNW31"}
{"rt": "0.0", "trial_number": "0", "skipped": "False", "complete": "False", "assignment": "3VE8AYVF8N5BS2NU6U3TMN50JMNF8V", "start_time": "1.51673549794e+12", "human_length": "1", "nodes_expanded": "999", "instance": "prb12604", "end_time": "1.51673549794e+12", "optimal_length": "7", "subject": "A18QU0YQB6Q8DF"}
{"rt": "0.0", "trial_number": "1", "skipped": "False", "complete": "False", "assignment": "3VE8AYVF8N5BS2NU6U3TMN50JMNF8V", "start_time": "1.51673549794e+12", "human_length": "1", "nodes_expanded": "999", "instance": "prb12604", "end_time": "1.51673549794e+12", "optimal_length": "7", "subject": "A18QU0YQB6Q8DF"}
{"rt": "22018.0", "trial_number": "2", "skipped": "False", "complete": "True", "assignment": "3VE8AYVF8N5BS2NU6U3TMN50JMNF8V", "start_time": "1.51673549794e+12", "human_length": "7", "nodes_expanded": "999", "instance": "prb12604", "end_time": "1.51673551995e+12", "optimal_length": "7", "subject": "A18QU0YQB6Q8DF"}
{"rt": "22018.0", "trial_number": "0", "skipped": "False", "complete": "True", "assignment": "3VE8AYVF8N5BS2NU6U3TMN50JMNF8V", "start_time": "1.51673549794e+12", "human_length": "7", "nodes_expanded": "999", "instance": "prb12604", "end_time": "1.51673551995e+12", "optimal_length": "7", "subject": "A18QU0YQB6Q8DF"}
{"rt": "6609.0", "trial_number": "0", "skipped": "False", "complete": "True", "assignment": "3IJXV6UZ1YR1KY4G6BFEG1DXR47RIC", "start_time": "1.51797234646e+12", "human_length": "8", "nodes_expanded": "999", "instance": "prb12604", "end_time": "1.51797235307e+12", "optimal_length": "7", "subject": "A18T3WK7J16C1B"}
{"rt": "5340.0", "trial_number": "0", "skipped": "False", "complete": "True", "assignment": "3PMBY0YE28B43VMUKKJ6EDF85RV9C8", "start_time": "1.51638654627e+12", "human_length": "7", "nodes_expanded": "999", "instance": "prb12604", "end_time": "1.51638655161e+12", "optimal_length": "7", "subject": "A191V7PT3DQKDP"}
{"rt": "33896.0", "trial_number": "0", "skipped": "False", "complete": "True", "assignment": "3ZSANO2JCGFTBM23KS9Y3E51YP4FSQ", "start_time": "1.51814404277e+12", "human_length": "34", "nodes_expanded": "999", "instance": "prb12604", "end_time": "1.51814407667e+12", "optimal_length": "7", "subject": "A1F42D4L22K5ND"}
{"rt": "11530.0", "trial_number": "0", "skipped": "False", "complete": "True", "assignment": "3TS1AR6UQRM7SOIBWPBN8N9589Y7FV", "start_time": "1.51684029462e+12", "human_length": "12", "nodes_expanded": "999", "instance": "prb12604", "end_time": "1.51684030615e+12", "optimal_length": "7", "subject": "A1F4N58CAX8IMK"}
{"rt": "8485.0", "trial_number": "1", "skipped": "False", "complete": "True", "assignment": "35DR22AR5ES6RR89U7EJ1DXW91AX3P", "start_time": "1.51795420308e+12", "human_length": "9", "nodes_expanded": "999", "instance": "prb12604", "end_time": "1.51795421156e+12", "optimal_length": "7", "subject": "A1F4N58CAX8IMK"}
{"rt": "4718.0", "trial_number": "0", "skipped": "False", "complete": "True", "assignment": "33F859I567LE8WC74WB3GA7E94XBHW", "start_time": "1.51796986746e+12", "human_length": "7", "nodes_expanded": "999", "instance": "prb12604", "end_time": "1.51796987217e+12", "optimal_length": "7", "subject": "A1GQS6USF2JEYG"}
{"rt": "6233.0", "trial_number": "0", "skipped": "False", "complete": "True", "assignment": "3XLBSAQ9Z5KDX59BX15UBFPNNHYZ7Q", "start_time": "1.51814699494e+12", "human_length": "7", "nodes_expanded": "999", "instance": "prb12604", "end_time": "1.51814700117e+12", "optimal_length": "7", "subject": "A1HFNOKU591WCY"}
{"rt": "4957.0", "trial_number": "0", "skipped": "False", "complete": "True", "assignment": "3FTF2T8WLSQDHTSZ1BJ7Q7MB14SW9H", "start_time": "1.51813678626e+12", "human_length": "7", "nodes_expanded": "999", "instance": "prb12604", "end_time": "1.51813679121e+12", "optimal_length": "7", "subject": "A1IUH9D7N69VS"}
{"rt": "30591.0", "trial_number": "0", "skipped": "False", "complete": "True", "assignment": "3VE8AYVF8N5BS2NU6U3TMN50MV38FP", "start_time": "1.51814403687e+12", "human_length": "9", "nodes_expanded": "999", "instance": "prb12604", "end_time": "1.51814406746e+12", "optimal_length": "7", "subject": "A1JN13098RIE78"}
{"rt": "18518.0", "trial_number": "0", "skipped": "False", "complete": "True", "assignment": "3YW4XOSQKRTI0K0Z2YPDTDJVFABU1I", "start_time": "1.51683232592e+12", "human_length": "11", "nodes_expanded": "999", "instance": "prb12604", "end_time": "1.51683234444e+12", "optimal_length": "7", "subject": "A1LR0VQIHQUJAM"}
{"rt": "14100.0", "trial_number": "0", "skipped": "False", "complete": "True", "assignment": "31LM9EDVOM0C0BWUVMJXJINN3QPJNI", "start_time": "1.51752408966e+12", "human_length": "9", "nodes_expanded": "999", "instance": "prb12604", "end_time": "1.51752410376e+12", "optimal_length": "7", "subject": "A1NT8BT94ME6F5"}
{"rt": "7112.0", "trial_number": "0", "skipped": "False", "complete": "True", "assignment": "3SB5N7Y3O4CZODEMMAWWBTZU4C90GB", "start_time": "1.51813898183e+12", "human_length": "7", "nodes_expanded": "999", "instance": "prb12604", "end_time": "1.51813898894e+12", "optimal_length": "7", "subject": "A1RVMADIZE3BXK"}
{"rt": "0.0", "trial_number": "0", "skipped": "False", "complete": "False", "assignment": "3RUIQRXJBCWS71H9MUFVM5WQ3SCLLJ", "start_time": "1.5181576157e+12", "human_length": "1", "nodes_expanded": "999", "instance": "prb12604", "end_time": "1.5181576157e+12", "optimal_length": "7", "subject": "A1SJRFJWFXSDH4"}
{"rt": "0.0", "trial_number": "1", "skipped": "False", "complete": "False", "assignment": "3RUIQRXJBCWS71H9MUFVM5WQ3SCLLJ", "start_time": "1.51815761572e+12", "human_length": "1", "nodes_expanded": "999", "instance": "prb12604", "end_time": "1.51815761572e+12", "optimal_length": "7", "subject": "A1SJRFJWFXSDH4"}
{"rt": "8358.0", "trial_number": "2", "skipped": "False", "complete": "False", "assignment": "3RUIQRXJBCWS71H9MUFVM5WQ3SCLLJ", "start_time": "1.51815761573e+12", "human_length": "3", "nodes_expanded": "999", "instance": "prb12604", "end_time": "1.51815762409e+12", "optimal_length": "7", "subject": "A1SJRFJWFXSDH4"}
{"rt": "13156.0", "trial_number": "3", "skipped": "False", "complete": "True", "assignment": "3RUIQRXJBCWS71H9MUFVM5WQ3SCLLJ", "start_time": "1.51815763166e+12", "human_length": "7", "nodes_expanded": "999", "instance": "prb12604", "end_time": "1.51815764481e+12", "optimal_length": "7", "subject": "A1SJRFJWFXSDH4"}
{"rt": "8994.0", "trial_number": "0", "skipped": "False", "complete": "True", "assignment": "3XC1O3LBOTUGQEPEV3HM8W67X4RTLL", "start_time": "1.51813690301e+12", "human_length": "8", "nodes_expanded": "999", "instance": "prb12604", "end_time": "1.518136912e+12", "optimal_length": "7", "subject": "A1ZTSCPETU3UJW"}
{"rt": "10170.0", "trial_number": "0", "skipped": "False", "complete": "True", "assignment": "34BBWHLWHBJ6SUL255PK30LEGY5IWG", "start_time": "1.51639263126e+12", "human_length": "10", "nodes_expanded": "999", "instance": "prb12604", "end_time": "1.51639264143e+12", "optimal_length": "7", "subject": "A214HWAW1PYWO8"}
{"rt": "0.0", "trial_number": "0", "skipped": "False", "complete": "False", "assignment": "3X87C8JFV7JQ2BSCY8KSFD9F2ILSQK", "start_time": "1.51674393231e+12", "human_length": "1", "nodes_expanded": "999", "instance": "prb12604", "end_time": "1.51674393231e+12", "optimal_length": "7", "subject": "A21S7MA9DCW95E"}
{"rt": "0.0", "trial_number": "1", "skipped": "False", "complete": "False", "assignment": "3X87C8JFV7JQ2BSCY8KSFD9F2ILSQK", "start_time": "1.51674393231e+12", "human_length": "1", "nodes_expanded": "999", "instance": "prb12604", "end_time": "1.51674393231e+12", "optimal_length": "7", "subject": "A21S7MA9DCW95E"}
{"rt": "17014.0", "trial_number": "2", "skipped": "False", "complete": "True", "assignment": "3X87C8JFV7JQ2BSCY8KSFD9F2ILSQK", "start_time": "1.51674393231e+12", "human_length": "8", "nodes_expanded": "999", "instance": "prb12604", "end_time": "1.51674394932e+12", "optimal_length": "7", "subject": "A21S7MA9DCW95E"}
{"rt": "17014.0", "trial_number": "0", "skipped": "False", "complete": "True", "assignment": "3X87C8JFV7JQ2BSCY8KSFD9F2ILSQK", "start_time": "1.51674393231e+12", "human_length": "8", "nodes_expanded": "999", "instance": "prb12604", "end_time": "1.51674394932e+12", "optimal_length": "7", "subject": "A21S7MA9DCW95E"}
{"rt": "0.0", "trial_number": "0", "skipped": "False", "complete": "False", "assignment": "3IHR8NYAM89M0EPM8U9LH53ZJDTP4U", "start_time": "1.51682603945e+12", "human_length": "1", "nodes_expanded": "999", "instance": "prb12604", "end_time": "1.51682603945e+12", "optimal_length": "7", "subject": "A23437BMZ5T1FH"}
{"rt": "5681.0", "trial_number": "1", "skipped": "False", "complete": "True", "assignment": "3IHR8NYAM89M0EPM8U9LH53ZJDTP4U", "start_time": "1.51682603945e+12", "human_length": "7", "nodes_expanded": "999", "instance": "prb12604", "end_time": "1.51682604513e+12", "optimal_length": "7", "subject": "A23437BMZ5T1FH"}
{"rt": "26898.0", "trial_number": "0", "skipped": "False", "complete": "True", "assignment": "3ZV9H2YQQEFR2R3JK2IXZUJPXAF3WW", "start_time": "1.5163084675e+12", "human_length": "9", "nodes_expanded": "999", "instance": "prb12604", "end_time": "1.5163084944e+12", "optimal_length": "7", "subject": "A289D98Z4GAZ28"}
{"rt": "37265.0", "trial_number": "0", "skipped": "False", "complete": "True", "assignment": "3SITXWYCNWHBUMCM90TPJWV8Y7AXBW", "start_time": "1.5181662385e+12", "human_length": "7", "nodes_expanded": "999", "instance": "prb12604", "end_time": "1.51816627577e+12", "optimal_length": "7", "subject": "A28RX7L0QZ993M"}
{"rt": "126406.0", "trial_number": "0", "skipped": "False", "complete": "True", "assignment": "37WLF8U1WQYZ4AWKEQXSIM1ELVEK6W", "start_time": "1.51683217874e+12", "human_length": "61", "nodes_expanded": "999", "instance": "prb12604", "end_time": "1.51683230515e+12", "optimal_length": "7", "subject": "A2EPBSY0VPI38S"}
{"rt": "0.0", "trial_number": "0", "skipped": "False", "complete": "False", "assignment": "3X4MXAO0BHWJLTOLVSJTHSM54OHWRG", "start_time": "1.51682192993e+12", "human_length": "1", "nodes_expanded": "999", "instance": "prb12604", "end_time": "1.51682192993e+12", "optimal_length": "7", "subject": "A2IBQA01NR5N76"}
{"rt": "18786.0", "trial_number": "1", "skipped": "False", "complete": "True", "assignment": "3X4MXAO0BHWJLTOLVSJTHSM54OHWRG", "start_time": "1.51682192993e+12", "human_length": "7", "nodes_expanded": "999", "instance": "prb12604", "end_time": "1.51682194871e+12", "optimal_length": "7", "subject": "A2IBQA01NR5N76"}
{"rt": "18786.0", "trial_number": "0", "skipped": "False", "complete": "True", "assignment": "3X4MXAO0BHWJLTOLVSJTHSM54OHWRG", "start_time": "1.51682192993e+12", "human_length": "7", "nodes_expanded": "999", "instance": "prb12604", "end_time": "1.51682194871e+12", "optimal_length": "7", "subject": "A2IBQA01NR5N76"}
{"rt": "10136.0", "trial_number": "0", "skipped": "False", "complete": "True", "assignment": "3FUI0JHJPY6UBT1VAI7VUX8S3KH33W", "start_time": "1.51815071062e+12", "human_length": "7", "nodes_expanded": "999", "instance": "prb12604", "end_time": "1.51815072076e+12", "optimal_length": "7", "subject": "A2QIZ31TMHU0GD"}
{"rt": "15703.0", "trial_number": "0", "skipped": "False", "complete": "True", "assignment": "3TAYZSBPLMG9ASQRWXURJVBCPLN2SH", "start_time": "1.51813629457e+12", "human_length": "7", "nodes_expanded": "999", "instance": "prb12604", "end_time": "1.51813631028e+12", "optimal_length": "7", "subject": "A2RCYLKY072XXO"}
{"rt": "0.0", "trial_number": "0", "skipped": "False", "complete": "False", "assignment": "3IJXV6UZ1YR1KY4G6BFEG1DXP7SRI1", "start_time": "1.51675008357e+12", "human_length": "1", "nodes_expanded": "999", "instance": "prb12604", "end_time": "1.51675008357e+12", "optimal_length": "7", "subject": "A2RTJ6BDY0DZVZ"}
{"rt": "0.0", "trial_number": "1", "skipped": "False", "complete": "False", "assignment": "3IJXV6UZ1YR1KY4G6BFEG1DXP7SRI1", "start_time": "1.51675008357e+12", "human_length": "1", "nodes_expanded": "999", "instance": "prb12604", "end_time": "1.51675008357e+12", "optimal_length": "7", "subject": "A2RTJ6BDY0DZVZ"}
{"rt": "8329.0", "trial_number": "2", "skipped": "False", "complete": "True", "assignment": "3IJXV6UZ1YR1KY4G6BFEG1DXP7SRI1", "start_time": "1.51675008357e+12", "human_length": "7", "nodes_expanded": "999", "instance": "prb12604", "end_time": "1.5167500919e+12", "optimal_length": "7", "subject": "A2RTJ6BDY0DZVZ"}
{"rt": "8329.0", "trial_number": "0", "skipped": "False", "complete": "True", "assignment": "3IJXV6UZ1YR1KY4G6BFEG1DXP7SRI1", "start_time": "1.51675008357e+12", "human_length": "7", "nodes_expanded": "999", "instance": "prb12604", "end_time": "1.5167500919e+12", "optimal_length": "7", "subject": "A2RTJ6BDY0DZVZ"}
{"rt": "0.0", "trial_number": "0", "skipped": "False", "complete": "False", "assignment": "3WSELTNVR4AZUVYAYCSWZIQW0J4ATB", "start_time": "1.51673937943e+12", "human_length": "1", "nodes_expanded": "999", "instance": "prb12604", "end_time": "1.51673937943e+12", "optimal_length": "7", "subject": "A2TQNX64349OZ9"}
{"rt": "0.0", "trial_number": "1", "skipped": "False", "complete": "False", "assignment": "3WSELTNVR4AZUVYAYCSWZIQW0J4ATB", "start_time": "1.51673937943e+12", "human_length": "1", "nodes_expanded": "999", "instance": "prb12604", "end_time": "1.51673937943e+12", "optimal_length": "7", "subject": "A2TQNX64349OZ9"}
{"rt": "27599.0", "trial_number": "2", "skipped": "False", "complete": "True", "assignment": "3WSELTNVR4AZUVYAYCSWZIQW0J4ATB", "start_time": "1.51673937943e+12", "human_length": "21", "nodes_expanded": "999", "instance": "prb12604", "end_time": "1.51673940703e+12", "optimal_length": "7", "subject": "A2TQNX64349OZ9"}
{"rt": "27599.0", "trial_number": "0", "skipped": "False", "complete": "True", "assignment": "3WSELTNVR4AZUVYAYCSWZIQW0J4ATB", "start_time": "1.51673937943e+12", "human_length": "21", "nodes_expanded": "999", "instance": "prb12604", "end_time": "1.51673940703e+12", "optimal_length": "7", "subject": "A2TQNX64349OZ9"}
{"rt": "25199.0", "trial_number": "0", "skipped": "False", "complete": "True", "assignment": "3JCG6DTRV4YEPVDZ64VNKDUEMPGQQ1", "start_time": "1.51794669302e+12", "human_length": "11", "nodes_expanded": "999", "instance": "prb12604", "end_time": "1.51794671822e+12", "optimal_length": "7", "subject": "A2V7KYLBCBTI3B"}
{"rt": "35554.0", "trial_number": "0", "skipped": "False", "complete": "True", "assignment": "3TXD01ZLD5PZSJXIPG8FRBQYTI9U4X", "start_time": "1.51794384988e+12", "human_length": "19", "nodes_expanded": "999", "instance": "prb12604", "end_time": "1.51794388544e+12", "optimal_length": "7", "subject": "A3BPRPN10HJD4B"}
{"rt": "11942.0", "trial_number": "0", "skipped": "False", "complete": "True", "assignment": "34HJIJKLP64Z5YMIU6IKNXSH7PDV4I", "start_time": "1.51794071102e+12", "human_length": "7", "nodes_expanded": "999", "instance": "prb12604", "end_time": "1.51794072296e+12", "optimal_length": "7", "subject": "A3CTXNQ2GXIQSP"}
{"rt": "13748.0", "trial_number": "0", "skipped": "False", "complete": "True", "assignment": "3TPWUS5F8A9FFRZ2DVTYSXNJ6BWWC6", "start_time": "1.51794025562e+12", "human_length": "7", "nodes_expanded": "999", "instance": "prb12604", "end_time": "1.51794026936e+12", "optimal_length": "7", "subject": "A3GXC3VG37CQ3G"}
{"rt": "12653.0", "trial_number": "0", "skipped": "False", "complete": "True", "assignment": "3V5Q80FXIYZ5QB5C6ITQBN30WY823U", "start_time": "1.51753256927e+12", "human_length": "8", "nodes_expanded": "999", "instance": "prb12604", "end_time": "1.51753258193e+12", "optimal_length": "7", "subject": "A3NMQ3019X6YE0"}
{"rt": "12653.0", "trial_number": "0", "skipped": "False", "complete": "True", "assignment": "3V5Q80FXIYZ5QB5C6ITQBN30WY823U", "start_time": "1.51753256927e+12", "human_length": "8", "nodes_expanded": "999", "instance": "prb12604", "end_time": "1.51753258193e+12", "optimal_length": "7", "subject": "A3NMQ3019X6YE0"}
{"rt": "10216.0", "trial_number": "0", "skipped": "False", "complete": "True", "assignment": "3STRJBFXOXZ5687WA35LTWTS7QZKTT", "start_time": "1.51794610319e+12", "human_length": "7", "nodes_expanded": "999", "instance": "prb12604", "end_time": "1.5179461134e+12", "optimal_length": "7", "subject": "A3OB6REG5CGHK1"}
{"rt": "0.0", "trial_number": "0", "skipped": "False", "complete": "False", "assignment": "3X87C8JFV7JQ2BSCY8KSFD9F2ILSQK", "start_time": "1.51673994383e+12", "human_length": "1", "nodes_expanded": "999", "instance": "prb12604", "end_time": "1.51673994383e+12", "optimal_length": "7", "subject": "A3Q0XAGQ7TD7MP"}
{"rt": "0.0", "trial_number": "1", "skipped": "False", "complete": "False", "assignment": "3X87C8JFV7JQ2BSCY8KSFD9F2ILSQK", "start_time": "1.51673994383e+12", "human_length": "1", "nodes_expanded": "999", "instance": "prb12604", "end_time": "1.51673994383e+12", "optimal_length": "7", "subject": "A3Q0XAGQ7TD7MP"}
{"rt": "12007.0", "trial_number": "2", "skipped": "False", "complete": "True", "assignment": "3X87C8JFV7JQ2BSCY8KSFD9F2ILSQK", "start_time": "1.51673994383e+12", "human_length": "7", "nodes_expanded": "999", "instance": "prb12604", "end_time": "1.51673995584e+12", "optimal_length": "7", "subject": "A3Q0XAGQ7TD7MP"}
{"rt": "9283.0", "trial_number": "3", "skipped": "False", "complete": "True", "assignment": "3GLB5JMZFY3TNXFGYMKRQ0JDXNTDGZ", "start_time": "1.51794654459e+12", "human_length": "7", "nodes_expanded": "999", "instance": "prb12604", "end_time": "1.51794655387e+12", "optimal_length": "7", "subject": "A3Q0XAGQ7TD7MP"}
{"rt": "12007.0", "trial_number": "0", "skipped": "False", "complete": "True", "assignment": "3X87C8JFV7JQ2BSCY8KSFD9F2ILSQK", "start_time": "1.51673994383e+12", "human_length": "7", "nodes_expanded": "999", "instance": "prb12604", "end_time": "1.51673995584e+12", "optimal_length": "7", "subject": "A3Q0XAGQ7TD7MP"}
{"rt": "9283.0", "trial_number": "1", "skipped": "False", "complete": "True", "assignment": "3GLB5JMZFY3TNXFGYMKRQ0JDXNTDGZ", "start_time": "1.51794654459e+12", "human_length": "7", "nodes_expanded": "999", "instance": "prb12604", "end_time": "1.51794655387e+12", "optimal_length": "7", "subject": "A3Q0XAGQ7TD7MP"}
{"rt": "28060.0", "trial_number": "0", "skipped": "False", "complete": "True", "assignment": "3VBEN272ML7ZPMYYVCFGLZ5DV7CGS0", "start_time": "1.5163878924e+12", "human_length": "11", "nodes_expanded": "999", "instance": "prb12604", "end_time": "1.51638792046e+12", "optimal_length": "7", "subject": "A3VZJ2T28HAQ2A"}
{"rt": "30184.0", "trial_number": "0", "skipped": "False", "complete": "True", "assignment": "3M0BCWMB8W4W5M7WZVX3HDH1P53WB1", "start_time": "1.51816057878e+12", "human_length": "19", "nodes_expanded": "999", "instance": "prb12604", "end_time": "1.51816060896e+12", "optimal_length": "7", "subject": "A53S7J4JGWG38"}
{"rt": "56824.0", "trial_number": "0", "skipped": "False", "complete": "True", "assignment": "3U84XHCDIDLGEIRSV37N835DV0K4ZS", "start_time": "1.51794066917e+12", "human_length": "26", "nodes_expanded": "999", "instance": "prb12604", "end_time": "1.517940726e+12", "optimal_length": "7", "subject": "A8KX1HFH8NE2Q"}
{"rt": "28993.0", "trial_number": "0", "skipped": "False", "complete": "True", "assignment": "33PPO7FECWN7JOLBOAKUBCWTC0AIDL", "start_time": "1.51794094703e+12", "human_length": "19", "nodes_expanded": "999", "instance": "prb12604", "end_time": "1.51794097602e+12", "optimal_length": "7", "subject": "AB5IVPS4OP9M8"}
{"rt": "7462.0", "trial_number": "0", "skipped": "False", "complete": "True", "assignment": "3IXEICO793RY7TM78ZBKJDOA7ADT6Q", "start_time": "1.51816951939e+12", "human_length": "7", "nodes_expanded": "999", "instance": "prb12604", "end_time": "1.51816952685e+12", "optimal_length": "7", "subject": "ALH1K6ZAQQMN7"}
{"rt": "12277.0", "trial_number": "0", "skipped": "False", "complete": "True", "assignment": "37QW5D2ZRHUKW7SGCE3STMOFBMK8SX", "start_time": "1.51815644726e+12", "human_length": "7", "nodes_expanded": "999", "instance": "prb12604", "end_time": "1.51815645953e+12", "optimal_length": "7", "subject": "AMW2XLD9443OH"}
{"rt": "7818.0", "trial_number": "0", "skipped": "False", "complete": "True", "assignment": "3ZSY5X72NYJBGKFJ46SJ0Y9J0RLROB", "start_time": "1.51638775022e+12", "human_length": "7", "nodes_expanded": "999", "instance": "prb12604", "end_time": "1.51638775804e+12", "optimal_length": "7", "subject": "AU4KK3OYS2UZF"}
{"rt": "10484.0", "trial_number": "0", "skipped": "False", "complete": "True", "assignment": "33PPO7FECWN7JOLBOAKUBCWTC0AIDL", "start_time": "1.51794842560e+12", "human_length": "7", "nodes_expanded": "999", "instance": "prb12604", "end_time": "1.51794843609e+12", "optimal_length": "7", "subject": "AXKM02NVXNGOM"}
