{"rt": "96055.0", "trial_number": "0", "skipped": "False", "complete": "False", "assignment": "36AHBNMV1SKT9O0GSS6XX0QHZV3YDN", "start_time": "1.51630475713e+12", "human_length": "6", "nodes_expanded": "999", "instance": "prb1267", "end_time": "1.51630485319e+12", "optimal_length": "16", "subject": "A39GADIK8RLMVC"}
{"rt": "15257.0", "trial_number": "1", "skipped": "False", "complete": "False", "assignment": "36AHBNMV1SKT9O0GSS6XX0QHZV3YDN", "start_time": "1.51630485683e+12", "human_length": "4", "nodes_expanded": "999", "instance": "prb1267", "end_time": "1.51630487208e+12", "optimal_length": "16", "subject": "A39GADIK8RLMVC"}
{"rt": "31036.0", "trial_number": "2", "skipped": "False", "complete": "True", "assignment": "36AHBNMV1SKT9O0GSS6XX0QHZV3YDN", "start_time": "1.51630488459e+12", "human_length": "17", "nodes_expanded": "999", "instance": "prb1267", "end_time": "1.51630491563e+12", "optimal_length": "16", "subject": "A39GADIK8RLMVC"}
{"rt": "207126.0", "trial_number": "0", "skipped": "False", "complete": "True", "assignment": "3AZHRG4CU5SYU12YRVPCSZALW5003R", "start_time": "1.51630604225e+12", "human_length": "202", "nodes_expanded": "999", "instance": "prb1267", "end_time": "1.51630624938e+12", "optimal_length": "16", "subject": "ARWF605I7RWM7"}
{"rt": "403393.0", "trial_number": "0", "skipped": "False", "complete": "True", "assignment": "3ZV9H2YQQEFR2R3JK2IXZUJPXAF3WW", "start_time": "1.51630579407e+12", "human_length": "149", "nodes_expanded": "999", "instance": "prb1267", "end_time": "1.51630619746e+12", "optimal_length": "16", "subject": "A289D98Z4GAZ28"}
{"rt": "221824.0", "trial_number": "0", "skipped": "False", "complete": "True", "assignment": "3ON104KXQL4CKNMNKGNG9ZBVBAB4WI", "start_time": "1.51631221616e+12", "human_length": "147", "nodes_expanded": "999", "instance": "prb1267", "end_time": "1.51631243799e+12", "optimal_length": "16", "subject": "AYPOAY43REHC8"}
{"rt": "186851.0", "trial_number": "0", "skipped": "False", "complete": "True", "assignment": "3PMBY0YE28B43VMUKKJ6EDF85RV9C8", "start_time": "1.51638718878e+12", "human_length": "98", "nodes_expanded": "999", "instance": "prb1267", "end_time": "1.51638737563e+12", "optimal_length": "16", "subject": "A191V7PT3DQKDP"}
{"rt": "57847.0", "trial_number": "0", "skipped": "False", "complete": "False", "assignment": "3VBEN272ML7ZPMYYVCFGLZ5DV7CGS0", "start_time": "1.5163874961e+12", "human_length": "30", "nodes_expanded": "999", "instance": "prb1267", "end_time": "1.51638755394e+12", "optimal_length": "16", "subject": "A3VZJ2T28HAQ2A"}
{"rt": "37722.0", "trial_number": "1", "skipped": "True", "complete": "False", "assignment": "3VBEN272ML7ZPMYYVCFGLZ5DV7CGS0", "start_time": "1.51638755508e+12", "human_length": "16", "nodes_expanded": "999", "instance": "prb1267", "end_time": "1.5163875928e+12", "optimal_length": "16", "subject": "A3VZJ2T28HAQ2A"}
{"rt": "253650.0", "trial_number": "0", "skipped": "False", "complete": "True", "assignment": "3TYCR1GOTDRCCQYD1V64UK7OE48LZS", "start_time": "1.5163911019e+12", "human_length": "133", "nodes_expanded": "999", "instance": "prb1267", "end_time": "1.51639135555e+12", "optimal_length": "16", "subject": "A2MYB6MLQW0IGN"}
{"rt": "36101.0", "trial_number": "0", "skipped": "False", "complete": "False", "assignment": "34BBWHLWHBJ6SUL255PK30LEGY5IWG", "start_time": "1.5163941626e+12", "human_length": "24", "nodes_expanded": "999", "instance": "prb1267", "end_time": "1.5163941987e+12", "optimal_length": "16", "subject": "A214HWAW1PYWO8"}
{"rt": "45120.0", "trial_number": "1", "skipped": "False", "complete": "True", "assignment": "34BBWHLWHBJ6SUL255PK30LEGY5IWG", "start_time": "1.51639420437e+12", "human_length": "38", "nodes_expanded": "999", "instance": "prb1267", "end_time": "1.51639424949e+12", "optimal_length": "16", "subject": "A214HWAW1PYWO8"}
{"rt": "0.0", "trial_number": "0", "skipped": "False", "complete": "False", "assignment": "3VE8AYVF8N5BS2NU6U3TMN50JMNF8V", "start_time": "1.51673590528e+12", "human_length": "1", "nodes_expanded": "999", "instance": "prb1267", "end_time": "1.51673590528e+12", "optimal_length": "16", "subject": "A18QU0YQB6Q8DF"}
{"rt": "0.0", "trial_number": "1", "skipped": "False", "complete": "False", "assignment": "3VE8AYVF8N5BS2NU6U3TMN50JMNF8V", "start_time": "1.51673590528e+12", "human_length": "1", "nodes_expanded": "999", "instance": "prb1267", "end_time": "1.51673590528e+12", "optimal_length": "16", "subject": "A18QU0YQB6Q8DF"}
{"rt": "22631.0", "trial_number": "2", "skipped": "True", "complete": "False", "assignment": "3VE8AYVF8N5BS2NU6U3TMN50JMNF8V", "start_time": "1.51673590528e+12", "human_length": "23", "nodes_expanded": "999", "instance": "prb1267", "end_time": "1.51673592791e+12", "optimal_length": "16", "subject": "A18QU0YQB6Q8DF"}
{"rt": "0.0", "trial_number": "0", "skipped": "False", "complete": "False", "assignment": "3X87C8JFV7JQ2BSCY8KSFD9F2ILSQK", "start_time": "1.51673888996e+12", "human_length": "1", "nodes_expanded": "999", "instance": "prb1267", "end_time": "1.51673888996e+12", "optimal_length": "16", "subject": "A3Q0XAGQ7TD7MP"}
{"rt": "0.0", "trial_number": "1", "skipped": "False", "complete": "False", "assignment": "3X87C8JFV7JQ2BSCY8KSFD9F2ILSQK", "start_time": "1.51673888996e+12", "human_length": "1", "nodes_expanded": "999", "instance": "prb1267", "end_time": "1.51673888996e+12", "optimal_length": "16", "subject": "A3Q0XAGQ7TD7MP"}
{"rt": "111954.0", "trial_number": "2", "skipped": "False", "complete": "True", "assignment": "3X87C8JFV7JQ2BSCY8KSFD9F2ILSQK", "start_time": "1.51673888996e+12", "human_length": "39", "nodes_expanded": "999", "instance": "prb1267", "end_time": "1.51673900192e+12", "optimal_length": "16", "subject": "A3Q0XAGQ7TD7MP"}
{"rt": "82069.0", "trial_number": "3", "skipped": "True", "complete": "False", "assignment": "3GLB5JMZFY3TNXFGYMKRQ0JDXNTDGZ", "start_time": "1.51794577015e+12", "human_length": "31", "nodes_expanded": "999", "instance": "prb1267", "end_time": "1.51794585222e+12", "optimal_length": "16", "subject": "A3Q0XAGQ7TD7MP"}
{"rt": "0.0", "trial_number": "0", "skipped": "False", "complete": "False", "assignment": "3WSELTNVR4AZUVYAYCSWZIQW0J4ATB", "start_time": "1.51674042641e+12", "human_length": "1", "nodes_expanded": "999", "instance": "prb1267", "end_time": "1.51674042641e+12", "optimal_length": "16", "subject": "A2TQNX64349OZ9"}
{"rt": "0.0", "trial_number": "1", "skipped": "False", "complete": "False", "assignment": "3WSELTNVR4AZUVYAYCSWZIQW0J4ATB", "start_time": "1.51674042641e+12", "human_length": "1", "nodes_expanded": "999", "instance": "prb1267", "end_time": "1.51674042641e+12", "optimal_length": "16", "subject": "A2TQNX64349OZ9"}
{"rt": "27743.0", "trial_number": "2", "skipped": "True", "complete": "False", "assignment": "3WSELTNVR4AZUVYAYCSWZIQW0J4ATB", "start_time": "1.51674042641e+12", "human_length": "50", "nodes_expanded": "999", "instance": "prb1267", "end_time": "1.51674045415e+12", "optimal_length": "16", "subject": "A2TQNX64349OZ9"}
{"rt": "0.0", "trial_number": "0", "skipped": "False", "complete": "False", "assignment": "3X87C8JFV7JQ2BSCY8KSFD9F2ILSQK", "start_time": "1.51674677356e+12", "human_length": "1", "nodes_expanded": "999", "instance": "prb1267", "end_time": "1.51674677356e+12", "optimal_length": "16", "subject": "A21S7MA9DCW95E"}
{"rt": "0.0", "trial_number": "1", "skipped": "False", "complete": "False", "assignment": "3X87C8JFV7JQ2BSCY8KSFD9F2ILSQK", "start_time": "1.51674677356e+12", "human_length": "1", "nodes_expanded": "999", "instance": "prb1267", "end_time": "1.51674677356e+12", "optimal_length": "16", "subject": "A21S7MA9DCW95E"}
{"rt": "68758.0", "trial_number": "2", "skipped": "False", "complete": "True", "assignment": "3X87C8JFV7JQ2BSCY8KSFD9F2ILSQK", "start_time": "1.51674677356e+12", "human_length": "43", "nodes_expanded": "999", "instance": "prb1267", "end_time": "1.51674684231e+12", "optimal_length": "16", "subject": "A21S7MA9DCW95E"}
{"rt": "42895.0", "trial_number": "0", "skipped": "False", "complete": "False", "assignment": "3IJXV6UZ1YR1KY4G6BFEG1DXP7SRI1", "start_time": "1.51675100342e+12", "human_length": "21", "nodes_expanded": "999", "instance": "prb1267", "end_time": "1.51675104632e+12", "optimal_length": "16", "subject": "A2RTJ6BDY0DZVZ"}
{"rt": "37724.0", "trial_number": "1", "skipped": "False", "complete": "False", "assignment": "3IJXV6UZ1YR1KY4G6BFEG1DXP7SRI1", "start_time": "1.51675104819e+12", "human_length": "16", "nodes_expanded": "999", "instance": "prb1267", "end_time": "1.51675108591e+12", "optimal_length": "16", "subject": "A2RTJ6BDY0DZVZ"}
{"rt": "29232.0", "trial_number": "2", "skipped": "False", "complete": "False", "assignment": "3IJXV6UZ1YR1KY4G6BFEG1DXP7SRI1", "start_time": "1.51675108838e+12", "human_length": "11", "nodes_expanded": "999", "instance": "prb1267", "end_time": "1.51675111761e+12", "optimal_length": "16", "subject": "A2RTJ6BDY0DZVZ"}
{"rt": "62673.0", "trial_number": "3", "skipped": "False", "complete": "False", "assignment": "3IJXV6UZ1YR1KY4G6BFEG1DXP7SRI1", "start_time": "1.5167511192e+12", "human_length": "32", "nodes_expanded": "999", "instance": "prb1267", "end_time": "1.51675118187e+12", "optimal_length": "16", "subject": "A2RTJ6BDY0DZVZ"}
{"rt": "24132.0", "trial_number": "4", "skipped": "False", "complete": "False", "assignment": "3IJXV6UZ1YR1KY4G6BFEG1DXP7SRI1", "start_time": "1.51675118501e+12", "human_length": "13", "nodes_expanded": "999", "instance": "prb1267", "end_time": "1.51675120914e+12", "optimal_length": "16", "subject": "A2RTJ6BDY0DZVZ"}
{"rt": "0.0", "trial_number": "5", "skipped": "False", "complete": "False", "assignment": "3IJXV6UZ1YR1KY4G6BFEG1DXP7SRI1", "start_time": "1.51675121002e+12", "human_length": "1", "nodes_expanded": "999", "instance": "prb1267", "end_time": "1.51675121002e+12", "optimal_length": "16", "subject": "A2RTJ6BDY0DZVZ"}
{"rt": "0.0", "trial_number": "6", "skipped": "False", "complete": "False", "assignment": "3IJXV6UZ1YR1KY4G6BFEG1DXP7SRI1", "start_time": "1.51675100342e+12", "human_length": "1", "nodes_expanded": "999", "instance": "prb1267", "end_time": "1.51675100342e+12", "optimal_length": "16", "subject": "A2RTJ6BDY0DZVZ"}
{"rt": "0.0", "trial_number": "7", "skipped": "False", "complete": "False", "assignment": "3IJXV6UZ1YR1KY4G6BFEG1DXP7SRI1", "start_time": "1.51675104819e+12", "human_length": "1", "nodes_expanded": "999", "instance": "prb1267", "end_time": "1.51675104819e+12", "optimal_length": "16", "subject": "A2RTJ6BDY0DZVZ"}
{"rt": "0.0", "trial_number": "8", "skipped": "False", "complete": "False", "assignment": "3IJXV6UZ1YR1KY4G6BFEG1DXP7SRI1", "start_time": "1.51675108838e+12", "human_length": "1", "nodes_expanded": "999", "instance": "prb1267", "end_time": "1.51675108838e+12", "optimal_length": "16", "subject": "A2RTJ6BDY0DZVZ"}
{"rt": "0.0", "trial_number": "9", "skipped": "False", "complete": "False", "assignment": "3IJXV6UZ1YR1KY4G6BFEG1DXP7SRI1", "start_time": "1.5167511192e+12", "human_length": "1", "nodes_expanded": "999", "instance": "prb1267", "end_time": "1.5167511192e+12", "optimal_length": "16", "subject": "A2RTJ6BDY0DZVZ"}
{"rt": "0.0", "trial_number": "10", "skipped": "False", "complete": "False", "assignment": "3IJXV6UZ1YR1KY4G6BFEG1DXP7SRI1", "start_time": "1.51675118501e+12", "human_length": "1", "nodes_expanded": "999", "instance": "prb1267", "end_time": "1.51675118501e+12", "optimal_length": "16", "subject": "A2RTJ6BDY0DZVZ"}
{"rt": "0.0", "trial_number": "11", "skipped": "False", "complete": "False", "assignment": "3IJXV6UZ1YR1KY4G6BFEG1DXP7SRI1", "start_time": "1.51675121002e+12", "human_length": "1", "nodes_expanded": "999", "instance": "prb1267", "end_time": "1.51675121002e+12", "optimal_length": "16", "subject": "A2RTJ6BDY0DZVZ"}
{"rt": "0.0", "trial_number": "12", "skipped": "False", "complete": "False", "assignment": "3IJXV6UZ1YR1KY4G6BFEG1DXP7SRI1", "start_time": "1.51675100342e+12", "human_length": "1", "nodes_expanded": "999", "instance": "prb1267", "end_time": "1.51675100342e+12", "optimal_length": "16", "subject": "A2RTJ6BDY0DZVZ"}
{"rt": "0.0", "trial_number": "13", "skipped": "False", "complete": "False", "assignment": "3IJXV6UZ1YR1KY4G6BFEG1DXP7SRI1", "start_time": "1.51675104819e+12", "human_length": "1", "nodes_expanded": "999", "instance": "prb1267", "end_time": "1.51675104819e+12", "optimal_length": "16", "subject": "A2RTJ6BDY0DZVZ"}
{"rt": "0.0", "trial_number": "14", "skipped": "False", "complete": "False", "assignment": "3IJXV6UZ1YR1KY4G6BFEG1DXP7SRI1", "start_time": "1.51675108838e+12", "human_length": "1", "nodes_expanded": "999", "instance": "prb1267", "end_time": "1.51675108838e+12", "optimal_length": "16", "subject": "A2RTJ6BDY0DZVZ"}
{"rt": "0.0", "trial_number": "15", "skipped": "False", "complete": "False", "assignment": "3IJXV6UZ1YR1KY4G6BFEG1DXP7SRI1", "start_time": "1.5167511192e+12", "human_length": "1", "nodes_expanded": "999", "instance": "prb1267", "end_time": "1.5167511192e+12", "optimal_length": "16", "subject": "A2RTJ6BDY0DZVZ"}
{"rt": "0.0", "trial_number": "16", "skipped": "False", "complete": "False", "assignment": "3IJXV6UZ1YR1KY4G6BFEG1DXP7SRI1", "start_time": "1.51675118501e+12", "human_length": "1", "nodes_expanded": "999", "instance": "prb1267", "end_time": "1.51675118501e+12", "optimal_length": "16", "subject": "A2RTJ6BDY0DZVZ"}
{"rt": "28169.0", "trial_number": "17", "skipped": "False", "complete": "True", "assignment": "3IJXV6UZ1YR1KY4G6BFEG1DXP7SRI1", "start_time": "1.51675121002e+12", "human_length": "17", "nodes_expanded": "999", "instance": "prb1267", "end_time": "1.51675123819e+12", "optimal_length": "16", "subject": "A2RTJ6BDY0DZVZ"}
{"rt": "0.0", "trial_number": "0", "skipped": "False", "complete": "False", "assignment": "3I2PTA7R3U2SESF4TZBQORI5LSJQKK", "start_time": "1.51675797792e+12", "human_length": "1", "nodes_expanded": "999", "instance": "prb1267", "end_time": "1.51675797792e+12", "optimal_length": "16", "subject": "A3NMQ3019X6YE0"}
{"rt": "0.0", "trial_number": "1", "skipped": "False", "complete": "False", "assignment": "3I2PTA7R3U2SESF4TZBQORI5LSJQKK", "start_time": "1.51675797792e+12", "human_length": "1", "nodes_expanded": "999", "instance": "prb1267", "end_time": "1.51675797792e+12", "optimal_length": "16", "subject": "A3NMQ3019X6YE0"}
{"rt": "218421.0", "trial_number": "2", "skipped": "False", "complete": "True", "assignment": "3I2PTA7R3U2SESF4TZBQORI5LSJQKK", "start_time": "1.51675797792e+12", "human_length": "54", "nodes_expanded": "999", "instance": "prb1267", "end_time": "1.51675819634e+12", "optimal_length": "16", "subject": "A3NMQ3019X6YE0"}
{"rt": "0.0", "trial_number": "0", "skipped": "False", "complete": "False", "assignment": "3X4MXAO0BHWJLTOLVSJTHSM54OHWRG", "start_time": "1.51682475767e+12", "human_length": "1", "nodes_expanded": "999", "instance": "prb1267", "end_time": "1.51682475767e+12", "optimal_length": "16", "subject": "A2IBQA01NR5N76"}
{"rt": "178305.0", "trial_number": "1", "skipped": "False", "complete": "True", "assignment": "3X4MXAO0BHWJLTOLVSJTHSM54OHWRG", "start_time": "1.51682475767e+12", "human_length": "126", "nodes_expanded": "999", "instance": "prb1267", "end_time": "1.51682493597e+12", "optimal_length": "16", "subject": "A2IBQA01NR5N76"}
{"rt": "0.0", "trial_number": "0", "skipped": "False", "complete": "False", "assignment": "3IHR8NYAM89M0EPM8U9LH53ZJDTP4U", "start_time": "1.51682690786e+12", "human_length": "1", "nodes_expanded": "999", "instance": "prb1267", "end_time": "1.51682690786e+12", "optimal_length": "16", "subject": "A23437BMZ5T1FH"}
{"rt": "41691.0", "trial_number": "1", "skipped": "False", "complete": "True", "assignment": "3IHR8NYAM89M0EPM8U9LH53ZJDTP4U", "start_time": "1.51682690786e+12", "human_length": "33", "nodes_expanded": "999", "instance": "prb1267", "end_time": "1.51682694955e+12", "optimal_length": "16", "subject": "A23437BMZ5T1FH"}
{"rt": "63617.0", "trial_number": "0", "skipped": "False", "complete": "True", "assignment": "3YW4XOSQKRTI0K0Z2YPDTDJVFABU1I", "start_time": "1.51683368356e+12", "human_length": "40", "nodes_expanded": "999", "instance": "prb1267", "end_time": "1.51683374717e+12", "optimal_length": "16", "subject": "A1LR0VQIHQUJAM"}
{"rt": "26474.0", "trial_number": "0", "skipped": "True", "complete": "False", "assignment": "3VE8AYVF8N5BS2NU6U3TMN50JMNF8V", "start_time": "1.51673590528e+12", "human_length": "11", "nodes_expanded": "999", "instance": "prb1267", "end_time": "1.51673593175e+12", "optimal_length": "16", "subject": "A18QU0YQB6Q8DF"}
{"rt": "111954.0", "trial_number": "0", "skipped": "False", "complete": "True", "assignment": "3X87C8JFV7JQ2BSCY8KSFD9F2ILSQK", "start_time": "1.51673888996e+12", "human_length": "39", "nodes_expanded": "999", "instance": "prb1267", "end_time": "1.51673900192e+12", "optimal_length": "16", "subject": "A3Q0XAGQ7TD7MP"}
{"rt": "82069.0", "trial_number": "1", "skipped": "True", "complete": "False", "assignment": "3GLB5JMZFY3TNXFGYMKRQ0JDXNTDGZ", "start_time": "1.51794577015e+12", "human_length": "31", "nodes_expanded": "999", "instance": "prb1267", "end_time": "1.51794585222e+12", "optimal_length": "16", "subject": "A3Q0XAGQ7TD7MP"}
{"rt": "27743.0", "trial_number": "0", "skipped": "True", "complete": "False", "assignment": "3WSELTNVR4AZUVYAYCSWZIQW0J4ATB", "start_time": "1.51674042641e+12", "human_length": "20", "nodes_expanded": "999", "instance": "prb1267", "end_time": "1.51674045415e+12", "optimal_length": "16", "subject": "A2TQNX64349OZ9"}
{"rt": "68758.0", "trial_number": "0", "skipped": "False", "complete": "True", "assignment": "3X87C8JFV7JQ2BSCY8KSFD9F2ILSQK", "start_time": "1.51674677356e+12", "human_length": "43", "nodes_expanded": "999", "instance": "prb1267", "end_time": "1.51674684231e+12", "optimal_length": "16", "subject": "A21S7MA9DCW95E"}
{"rt": "42895.0", "trial_number": "0", "skipped": "False", "complete": "False", "assignment": "3IJXV6UZ1YR1KY4G6BFEG1DXP7SRI1", "start_time": "1.51675100342e+12", "human_length": "21", "nodes_expanded": "999", "instance": "prb1267", "end_time": "1.51675104632e+12", "optimal_length": "16", "subject": "A2RTJ6BDY0DZVZ"}
{"rt": "37724.0", "trial_number": "1", "skipped": "False", "complete": "False", "assignment": "3IJXV6UZ1YR1KY4G6BFEG1DXP7SRI1", "start_time": "1.51675104819e+12", "human_length": "16", "nodes_expanded": "999", "instance": "prb1267", "end_time": "1.51675108591e+12", "optimal_length": "16", "subject": "A2RTJ6BDY0DZVZ"}
{"rt": "29232.0", "trial_number": "2", "skipped": "False", "complete": "False", "assignment": "3IJXV6UZ1YR1KY4G6BFEG1DXP7SRI1", "start_time": "1.51675108838e+12", "human_length": "11", "nodes_expanded": "999", "instance": "prb1267", "end_time": "1.51675111761e+12", "optimal_length": "16", "subject": "A2RTJ6BDY0DZVZ"}
{"rt": "62673.0", "trial_number": "3", "skipped": "False", "complete": "False", "assignment": "3IJXV6UZ1YR1KY4G6BFEG1DXP7SRI1", "start_time": "1.5167511192e+12", "human_length": "32", "nodes_expanded": "999", "instance": "prb1267", "end_time": "1.51675118187e+12", "optimal_length": "16", "subject": "A2RTJ6BDY0DZVZ"}
{"rt": "24132.0", "trial_number": "4", "skipped": "False", "complete": "False", "assignment": "3IJXV6UZ1YR1KY4G6BFEG1DXP7SRI1", "start_time": "1.51675118501e+12", "human_length": "13", "nodes_expanded": "999", "instance": "prb1267", "end_time": "1.51675120914e+12", "optimal_length": "16", "subject": "A2RTJ6BDY0DZVZ"}
{"rt": "28169.0", "trial_number": "5", "skipped": "False", "complete": "True", "assignment": "3IJXV6UZ1YR1KY4G6BFEG1DXP7SRI1", "start_time": "1.51675121002e+12", "human_length": "17", "nodes_expanded": "999", "instance": "prb1267", "end_time": "1.51675123819e+12", "optimal_length": "16", "subject": "A2RTJ6BDY0DZVZ"}
{"rt": "218421.0", "trial_number": "0", "skipped": "False", "complete": "True", "assignment": "3I2PTA7R3U2SESF4TZBQORI5LSJQKK", "start_time": "1.51675797792e+12", "human_length": "54", "nodes_expanded": "999", "instance": "prb1267", "end_time": "1.51675819634e+12", "optimal_length": "16", "subject": "A3NMQ3019X6YE0"}
{"rt": "70885.0", "trial_number": "0", "skipped": "False", "complete": "True", "assignment": "3TS1AR6UQRM7SOIBWPBN8N9589Y7FV", "start_time": "1.51683908225e+12", "human_length": "55", "nodes_expanded": "999", "instance": "prb1267", "end_time": "1.51683915314e+12", "optimal_length": "16", "subject": "A1F4N58CAX8IMK"}
{"rt": "57216.0", "trial_number": "1", "skipped": "False", "complete": "False", "assignment": "35DR22AR5ES6RR89U7EJ1DXW91AX3P", "start_time": "1.51795407978e+12", "human_length": "48", "nodes_expanded": "999", "instance": "prb1267", "end_time": "1.517954137e+12", "optimal_length": "16", "subject": "A1F4N58CAX8IMK"}
{"rt": "37768.0", "trial_number": "2", "skipped": "True", "complete": "False", "assignment": "35DR22AR5ES6RR89U7EJ1DXW91AX3P", "start_time": "1.51795413893e+12", "human_length": "33", "nodes_expanded": "999", "instance": "prb1267", "end_time": "1.5179541767e+12", "optimal_length": "16", "subject": "A1F4N58CAX8IMK"}
{"rt": "59976.0", "trial_number": "0", "skipped": "False", "complete": "True", "assignment": "3TS1AR6UQRM7SOIBWPBN8N9589Y7FV", "start_time": "1.51684190744e+12", "human_length": "35", "nodes_expanded": "999", "instance": "prb1267", "end_time": "1.51684196741e+12", "optimal_length": "16", "subject": "A15FXHC1CVNW31"}
{"rt": "28724.0", "trial_number": "0", "skipped": "True", "complete": "False", "assignment": "31LM9EDVOM0C0BWUVMJXJINN3QPJNI", "start_time": "1.51752265423e+12", "human_length": "13", "nodes_expanded": "999", "instance": "prb1267", "end_time": "1.51752268295e+12", "optimal_length": "16", "subject": "A1NT8BT94ME6F5"}
{"rt": "45637.0", "trial_number": "0", "skipped": "False", "complete": "True", "assignment": "3TYCR1GOTDRCCQYD1V64UK7OHTBZLQ", "start_time": "1.51753617565e+12", "human_length": "35", "nodes_expanded": "999", "instance": "prb1267", "end_time": "1.51753622129e+12", "optimal_length": "16", "subject": "A13BZCNJ0WR1T7"}
{"rt": "35314.0", "trial_number": "0", "skipped": "False", "complete": "True", "assignment": "3TPWUS5F8A9FFRZ2DVTYSXNJ6BWWC6", "start_time": "1.51794217612e+12", "human_length": "21", "nodes_expanded": "999", "instance": "prb1267", "end_time": "1.51794221143e+12", "optimal_length": "16", "subject": "A3GXC3VG37CQ3G"}
{"rt": "30654.0", "trial_number": "0", "skipped": "False", "complete": "False", "assignment": "3IAS3U3I0GOAT69PLB8WT61CKJ22BO", "start_time": "1.51793967263e+12", "human_length": "17", "nodes_expanded": "999", "instance": "prb1267", "end_time": "1.51793970328e+12", "optimal_length": "16", "subject": "A2C84POENS2UNY"}
{"rt": "63875.0", "trial_number": "1", "skipped": "False", "complete": "True", "assignment": "3IAS3U3I0GOAT69PLB8WT61CKJ22BO", "start_time": "1.51793970646e+12", "human_length": "28", "nodes_expanded": "999", "instance": "prb1267", "end_time": "1.51793977033e+12", "optimal_length": "16", "subject": "A2C84POENS2UNY"}
{"rt": "55461.0", "trial_number": "0", "skipped": "False", "complete": "True", "assignment": "34HJIJKLP64Z5YMIU6IKNXSH7PDV4I", "start_time": "1.51794338776e+12", "human_length": "35", "nodes_expanded": "999", "instance": "prb1267", "end_time": "1.51794344322e+12", "optimal_length": "16", "subject": "A3CTXNQ2GXIQSP"}
{"rt": "27708.0", "trial_number": "0", "skipped": "False", "complete": "False", "assignment": "30IQTZXKALEAAZ9CBKW0ZFZP6O5X07", "start_time": "1.51794627463e+12", "human_length": "12", "nodes_expanded": "999", "instance": "prb1267", "end_time": "1.51794630234e+12", "optimal_length": "16", "subject": "A23XJ8I86R0O3B"}
{"rt": "29857.0", "trial_number": "1", "skipped": "True", "complete": "False", "assignment": "30IQTZXKALEAAZ9CBKW0ZFZP6O5X07", "start_time": "1.51794630484e+12", "human_length": "12", "nodes_expanded": "999", "instance": "prb1267", "end_time": "1.51794633469e+12", "optimal_length": "16", "subject": "A23XJ8I86R0O3B"}
{"rt": "5650.0", "trial_number": "0", "skipped": "False", "complete": "False", "assignment": "3STRJBFXOXZ5687WA35LTWTS7QZKTT", "start_time": "1.51794616424e+12", "human_length": "4", "nodes_expanded": "999", "instance": "prb1267", "end_time": "1.51794616989e+12", "optimal_length": "16", "subject": "A3OB6REG5CGHK1"}
{"rt": "9354.0", "trial_number": "1", "skipped": "False", "complete": "False", "assignment": "3STRJBFXOXZ5687WA35LTWTS7QZKTT", "start_time": "1.51794617277e+12", "human_length": "4", "nodes_expanded": "999", "instance": "prb1267", "end_time": "1.51794618212e+12", "optimal_length": "16", "subject": "A3OB6REG5CGHK1"}
{"rt": "31666.0", "trial_number": "2", "skipped": "False", "complete": "False", "assignment": "3STRJBFXOXZ5687WA35LTWTS7QZKTT", "start_time": "1.51794618515e+12", "human_length": "12", "nodes_expanded": "999", "instance": "prb1267", "end_time": "1.51794621682e+12", "optimal_length": "16", "subject": "A3OB6REG5CGHK1"}
{"rt": "0.0", "trial_number": "3", "skipped": "False", "complete": "False", "assignment": "3STRJBFXOXZ5687WA35LTWTS7QZKTT", "start_time": "1.51794622310e+12", "human_length": "1", "nodes_expanded": "999", "instance": "prb1267", "end_time": "1.51794622310e+12", "optimal_length": "16", "subject": "A3OB6REG5CGHK1"}
{"rt": "9607.0", "trial_number": "4", "skipped": "False", "complete": "False", "assignment": "3STRJBFXOXZ5687WA35LTWTS7QZKTT", "start_time": "1.51794622312e+12", "human_length": "2", "nodes_expanded": "999", "instance": "prb1267", "end_time": "1.51794623272e+12", "optimal_length": "16", "subject": "A3OB6REG5CGHK1"}
{"rt": "22833.0", "trial_number": "5", "skipped": "True", "complete": "False", "assignment": "3STRJBFXOXZ5687WA35LTWTS7QZKTT", "start_time": "1.51794623398e+12", "human_length": "11", "nodes_expanded": "999", "instance": "prb1267", "end_time": "1.51794625682e+12", "optimal_length": "16", "subject": "A3OB6REG5CGHK1"}
{"rt": "35267.0", "trial_number": "0", "skipped": "False", "complete": "False", "assignment": "3JCG6DTRV4YEPVDZ64VNKDUEMPGQQ1", "start_time": "1.51794775334e+12", "human_length": "5", "nodes_expanded": "999", "instance": "prb1267", "end_time": "1.5179477886e+12", "optimal_length": "16", "subject": "A2V7KYLBCBTI3B"}
{"rt": "18151.0", "trial_number": "1", "skipped": "True", "complete": "False", "assignment": "3JCG6DTRV4YEPVDZ64VNKDUEMPGQQ1", "start_time": "1.51794779105e+12", "human_length": "9", "nodes_expanded": "999", "instance": "prb1267", "end_time": "1.5179478092e+12", "optimal_length": "16", "subject": "A2V7KYLBCBTI3B"}
{"rt": "33716.0", "trial_number": "0", "skipped": "False", "complete": "False", "assignment": "33PPO7FECWN7JOLBOAKUBCWTC0AIDL", "start_time": "1.51795119559e+12", "human_length": "7", "nodes_expanded": "999", "instance": "prb1267", "end_time": "1.51795122931e+12", "optimal_length": "16", "subject": "AXKM02NVXNGOM"}
{"rt": "61339.0", "trial_number": "1", "skipped": "False", "complete": "True", "assignment": "33PPO7FECWN7JOLBOAKUBCWTC0AIDL", "start_time": "1.51795123346e+12", "human_length": "25", "nodes_expanded": "999", "instance": "prb1267", "end_time": "1.5179512948e+12", "optimal_length": "16", "subject": "AXKM02NVXNGOM"}
{"rt": "45123.0", "trial_number": "0", "skipped": "False", "complete": "True", "assignment": "3R5F3LQFV3SKIB1AENMWM1BICT5OZB", "start_time": "1.51796018459e+12", "human_length": "35", "nodes_expanded": "999", "instance": "prb1267", "end_time": "1.51796022971e+12", "optimal_length": "16", "subject": "A1N1EF0MIRSEZZ"}
{"rt": "61312.0", "trial_number": "0", "skipped": "False", "complete": "True", "assignment": "33F859I567LE8WC74WB3GA7E94XBHW", "start_time": "1.51796988607e+12", "human_length": "48", "nodes_expanded": "999", "instance": "prb1267", "end_time": "1.51796994738e+12", "optimal_length": "16", "subject": "A1GQS6USF2JEYG"}
{"rt": "0.0", "trial_number": "0", "skipped": "False", "complete": "False", "assignment": "3IJXV6UZ1YR1KY4G6BFEG1DXR47RIC", "start_time": "1.51797406187e+12", "human_length": "1", "nodes_expanded": "999", "instance": "prb1267", "end_time": "1.51797406187e+12", "optimal_length": "16", "subject": "A18T3WK7J16C1B"}
{"rt": "24586.0", "trial_number": "1", "skipped": "False", "complete": "False", "assignment": "3IJXV6UZ1YR1KY4G6BFEG1DXR47RIC", "start_time": "1.51797406189e+12", "human_length": "10", "nodes_expanded": "999", "instance": "prb1267", "end_time": "1.51797408648e+12", "optimal_length": "16", "subject": "A18T3WK7J16C1B"}
{"rt": "193366.0", "trial_number": "2", "skipped": "False", "complete": "True", "assignment": "3IJXV6UZ1YR1KY4G6BFEG1DXR47RIC", "start_time": "1.51797410769e+12", "human_length": "56", "nodes_expanded": "999", "instance": "prb1267", "end_time": "1.51797430106e+12", "optimal_length": "16", "subject": "A18T3WK7J16C1B"}
{"rt": "0.0", "trial_number": "0", "skipped": "False", "complete": "False", "assignment": "3FTF2T8WLSQDHTSZ1BJ7Q7MB14SW9H", "start_time": "1.51813654462e+12", "human_length": "1", "nodes_expanded": "999", "instance": "prb1267", "end_time": "1.51813654462e+12", "optimal_length": "16", "subject": "A1IUH9D7N69VS"}
{"rt": "7377.0", "trial_number": "1", "skipped": "False", "complete": "False", "assignment": "3FTF2T8WLSQDHTSZ1BJ7Q7MB14SW9H", "start_time": "1.51813654549e+12", "human_length": "3", "nodes_expanded": "999", "instance": "prb1267", "end_time": "1.51813655287e+12", "optimal_length": "16", "subject": "A1IUH9D7N69VS"}
{"rt": "35366.0", "trial_number": "2", "skipped": "False", "complete": "False", "assignment": "3FTF2T8WLSQDHTSZ1BJ7Q7MB14SW9H", "start_time": "1.51813655807e+12", "human_length": "21", "nodes_expanded": "999", "instance": "prb1267", "end_time": "1.51813659343e+12", "optimal_length": "16", "subject": "A1IUH9D7N69VS"}
{"rt": "84943.0", "trial_number": "3", "skipped": "False", "complete": "True", "assignment": "3FTF2T8WLSQDHTSZ1BJ7Q7MB14SW9H", "start_time": "1.51813659746e+12", "human_length": "41", "nodes_expanded": "999", "instance": "prb1267", "end_time": "1.5181366824e+12", "optimal_length": "16", "subject": "A1IUH9D7N69VS"}
{"rt": "78016.0", "trial_number": "0", "skipped": "True", "complete": "False", "assignment": "3XC1O3LBOTUGQEPEV3HM8W67X4RTLL", "start_time": "1.51813743502e+12", "human_length": "34", "nodes_expanded": "999", "instance": "prb1267", "end_time": "1.51813751304e+12", "optimal_length": "16", "subject": "A1ZTSCPETU3UJW"}
{"rt": "82435.0", "trial_number": "0", "skipped": "True", "complete": "False", "assignment": "3TAYZSBPLMG9ASQRWXURJVBCPLN2SH", "start_time": "1.51813572464e+12", "human_length": "32", "nodes_expanded": "999", "instance": "prb1267", "end_time": "1.51813580708e+12", "optimal_length": "16", "subject": "A2RCYLKY072XXO"}
{"rt": "47912.0", "trial_number": "0", "skipped": "True", "complete": "False", "assignment": "3ZSANO2JCGFTBM23KS9Y3E51YP4FSQ", "start_time": "1.51814252739e+12", "human_length": "45", "nodes_expanded": "999", "instance": "prb1267", "end_time": "1.51814257530e+12", "optimal_length": "16", "subject": "A1F42D4L22K5ND"}
{"rt": "202380.0", "trial_number": "0", "skipped": "True", "complete": "False", "assignment": "3VE8AYVF8N5BS2NU6U3TMN50MV38FP", "start_time": "1.51814352567e+12", "human_length": "42", "nodes_expanded": "999", "instance": "prb1267", "end_time": "1.51814372805e+12", "optimal_length": "16", "subject": "A1JN13098RIE78"}
{"rt": "109938.0", "trial_number": "0", "skipped": "False", "complete": "False", "assignment": "3TMFV4NEP9MD3O9PWJDTQBR0HZYW8I", "start_time": "1.51814589695e+12", "human_length": "43", "nodes_expanded": "999", "instance": "prb1267", "end_time": "1.51814600689e+12", "optimal_length": "16", "subject": "A3GOOI75XOF24V"}
{"rt": "154397.0", "trial_number": "1", "skipped": "False", "complete": "False", "assignment": "3TMFV4NEP9MD3O9PWJDTQBR0HZYW8I", "start_time": "1.51814601655e+12", "human_length": "75", "nodes_expanded": "999", "instance": "prb1267", "end_time": "1.51814617095e+12", "optimal_length": "16", "subject": "A3GOOI75XOF24V"}
{"rt": "107013.0", "trial_number": "2", "skipped": "False", "complete": "True", "assignment": "3TMFV4NEP9MD3O9PWJDTQBR0HZYW8I", "start_time": "1.5181461775e+12", "human_length": "52", "nodes_expanded": "999", "instance": "prb1267", "end_time": "1.51814628451e+12", "optimal_length": "16", "subject": "A3GOOI75XOF24V"}
{"rt": "35444.0", "trial_number": "0", "skipped": "True", "complete": "False", "assignment": "3XLBSAQ9Z5KDX59BX15UBFPNNHYZ7Q", "start_time": "1.51814714373e+12", "human_length": "31", "nodes_expanded": "999", "instance": "prb1267", "end_time": "1.51814717918e+12", "optimal_length": "16", "subject": "A1HFNOKU591WCY"}
{"rt": "46435.0", "trial_number": "0", "skipped": "False", "complete": "True", "assignment": "3FUI0JHJPY6UBT1VAI7VUX8S3KH33W", "start_time": "1.51815135077e+12", "human_length": "38", "nodes_expanded": "999", "instance": "prb1267", "end_time": "1.5181513972e+12", "optimal_length": "16", "subject": "A2QIZ31TMHU0GD"}
{"rt": "8435.0", "trial_number": "0", "skipped": "False", "complete": "False", "assignment": "3M0BCWMB8W4W5M7WZVX3HDH1P53WB1", "start_time": "1.51815884179e+12", "human_length": "5", "nodes_expanded": "999", "instance": "prb1267", "end_time": "1.51815885022e+12", "optimal_length": "16", "subject": "A53S7J4JGWG38"}
{"rt": "28820.0", "trial_number": "1", "skipped": "False", "complete": "False", "assignment": "3M0BCWMB8W4W5M7WZVX3HDH1P53WB1", "start_time": "1.51815885243e+12", "human_length": "9", "nodes_expanded": "999", "instance": "prb1267", "end_time": "1.51815888125e+12", "optimal_length": "16", "subject": "A53S7J4JGWG38"}
{"rt": "14952.0", "trial_number": "2", "skipped": "False", "complete": "False", "assignment": "3M0BCWMB8W4W5M7WZVX3HDH1P53WB1", "start_time": "1.51815888383e+12", "human_length": "8", "nodes_expanded": "999", "instance": "prb1267", "end_time": "1.51815889878e+12", "optimal_length": "16", "subject": "A53S7J4JGWG38"}
{"rt": "26301.0", "trial_number": "3", "skipped": "False", "complete": "True", "assignment": "3M0BCWMB8W4W5M7WZVX3HDH1P53WB1", "start_time": "1.51815890293e+12", "human_length": "18", "nodes_expanded": "999", "instance": "prb1267", "end_time": "1.51815892924e+12", "optimal_length": "16", "subject": "A53S7J4JGWG38"}
{"rt": "168006.0", "trial_number": "0", "skipped": "True", "complete": "False", "assignment": "3SITXWYCNWHBUMCM90TPJWV8Y7AXBW", "start_time": "1.51816432034e+12", "human_length": "46", "nodes_expanded": "999", "instance": "prb1267", "end_time": "1.51816448834e+12", "optimal_length": "16", "subject": "A28RX7L0QZ993M"}
{"rt": "59098.0", "trial_number": "0", "skipped": "False", "complete": "True", "assignment": "3IXEICO793RY7TM78ZBKJDOA7ADT6Q", "start_time": "1.5181676837e+12", "human_length": "43", "nodes_expanded": "999", "instance": "prb1267", "end_time": "1.5181677428e+12", "optimal_length": "16", "subject": "ALH1K6ZAQQMN7"}
