{"rt": "90397.0", "trial_number": "0", "skipped": "True", "complete": "False", "assignment": "3ON104KXQL4CKNMNKGNG9ZBVBAB4WI", "start_time": "1.51631400016e+12", "human_length": "47", "nodes_expanded": "999", "instance": "prb14485", "end_time": "1.51631409056e+12", "optimal_length": "14", "subject": "A58QOLDFC179Q"}
{"rt": "47598.0", "trial_number": "0", "skipped": "False", "complete": "True", "assignment": "3PMBY0YE28B43VMUKKJ6EDF85RV9C8", "start_time": "1.51638648608e+12", "human_length": "38", "nodes_expanded": "999", "instance": "prb14485", "end_time": "1.51638653368e+12", "optimal_length": "14", "subject": "A191V7PT3DQKDP"}
{"rt": "205925.0", "trial_number": "0", "skipped": "False", "complete": "False", "assignment": "3VBEN272ML7ZPMYYVCFGLZ5DV7CGS0", "start_time": "1.51638793341e+12", "human_length": "67", "nodes_expanded": "999", "instance": "prb14485", "end_time": "1.51638813933e+12", "optimal_length": "14", "subject": "A3VZJ2T28HAQ2A"}
{"rt": "110013.0", "trial_number": "1", "skipped": "False", "complete": "True", "assignment": "3VBEN272ML7ZPMYYVCFGLZ5DV7CGS0", "start_time": "1.51638825709e+12", "human_length": "58", "nodes_expanded": "999", "instance": "prb14485", "end_time": "1.5163883671e+12", "optimal_length": "14", "subject": "A3VZJ2T28HAQ2A"}
{"rt": "33574.0", "trial_number": "0", "skipped": "False", "complete": "True", "assignment": "34BBWHLWHBJ6SUL255PK30LEGY5IWG", "start_time": "1.51639166736e+12", "human_length": "31", "nodes_expanded": "999", "instance": "prb14485", "end_time": "1.51639170093e+12", "optimal_length": "14", "subject": "A214HWAW1PYWO8"}
{"rt": "71477.0", "trial_number": "0", "skipped": "False", "complete": "True", "assignment": "3TYCR1GOTDRCCQYD1V64UK7OE48LZS", "start_time": "1.51639585186e+12", "human_length": "59", "nodes_expanded": "999", "instance": "prb14485", "end_time": "1.51639592334e+12", "optimal_length": "14", "subject": "A16SJ5D3DKUEXJ"}
{"rt": "0.0", "trial_number": "0", "skipped": "False", "complete": "False", "assignment": "3VE8AYVF8N5BS2NU6U3TMN50JMNF8V", "start_time": "1.51673752947e+12", "human_length": "1", "nodes_expanded": "999", "instance": "prb14485", "end_time": "1.51673752947e+12", "optimal_length": "14", "subject": "A18QU0YQB6Q8DF"}
{"rt": "0.0", "trial_number": "1", "skipped": "False", "complete": "False", "assignment": "3VE8AYVF8N5BS2NU6U3TMN50JMNF8V", "start_time": "1.51673752947e+12", "human_length": "1", "nodes_expanded": "999", "instance": "prb14485", "end_time": "1.51673752947e+12", "optimal_length": "14", "subject": "A18QU0YQB6Q8DF"}
{"rt": "23062.0", "trial_number": "2", "skipped": "True", "complete": "False", "assignment": "3VE8AYVF8N5BS2NU6U3TMN50JMNF8V", "start_time": "1.51673752947e+12", "human_length": "32", "nodes_expanded": "999", "instance": "prb14485", "end_time": "1.51673755253e+12", "optimal_length": "14", "subject": "A18QU0YQB6Q8DF"}
{"rt": "0.0", "trial_number": "0", "skipped": "False", "complete": "False", "assignment": "3X87C8JFV7JQ2BSCY8KSFD9F2ILSQK", "start_time": "1.51673830857e+12", "human_length": "1", "nodes_expanded": "999", "instance": "prb14485", "end_time": "1.51673830857e+12", "optimal_length": "14", "subject": "A3Q0XAGQ7TD7MP"}
{"rt": "0.0", "trial_number": "1", "skipped": "False", "complete": "False", "assignment": "3X87C8JFV7JQ2BSCY8KSFD9F2ILSQK", "start_time": "1.51673830857e+12", "human_length": "1", "nodes_expanded": "999", "instance": "prb14485", "end_time": "1.51673830857e+12", "optimal_length": "14", "subject": "A3Q0XAGQ7TD7MP"}
{"rt": "205281.0", "trial_number": "2", "skipped": "False", "complete": "True", "assignment": "3X87C8JFV7JQ2BSCY8KSFD9F2ILSQK", "start_time": "1.51673830857e+12", "human_length": "81", "nodes_expanded": "999", "instance": "prb14485", "end_time": "1.51673851385e+12", "optimal_length": "14", "subject": "A3Q0XAGQ7TD7MP"}
{"rt": "33551.0", "trial_number": "3", "skipped": "False", "complete": "True", "assignment": "3GLB5JMZFY3TNXFGYMKRQ0JDXNTDGZ", "start_time": "1.51794543217e+12", "human_length": "15", "nodes_expanded": "999", "instance": "prb14485", "end_time": "1.51794546572e+12", "optimal_length": "14", "subject": "A3Q0XAGQ7TD7MP"}
{"rt": "0.0", "trial_number": "0", "skipped": "False", "complete": "False", "assignment": "3WSELTNVR4AZUVYAYCSWZIQW0J4ATB", "start_time": "1.51673988077e+12", "human_length": "1", "nodes_expanded": "999", "instance": "prb14485", "end_time": "1.51673988077e+12", "optimal_length": "14", "subject": "A2TQNX64349OZ9"}
{"rt": "0.0", "trial_number": "1", "skipped": "False", "complete": "False", "assignment": "3WSELTNVR4AZUVYAYCSWZIQW0J4ATB", "start_time": "1.51673988077e+12", "human_length": "1", "nodes_expanded": "999", "instance": "prb14485", "end_time": "1.51673988077e+12", "optimal_length": "14", "subject": "A2TQNX64349OZ9"}
{"rt": "42547.0", "trial_number": "2", "skipped": "True", "complete": "False", "assignment": "3WSELTNVR4AZUVYAYCSWZIQW0J4ATB", "start_time": "1.51673988077e+12", "human_length": "93", "nodes_expanded": "999", "instance": "prb14485", "end_time": "1.51673992332e+12", "optimal_length": "14", "subject": "A2TQNX64349OZ9"}
{"rt": "0.0", "trial_number": "0", "skipped": "False", "complete": "False", "assignment": "3U8YCDAGXQOQ1280P618573W7RSQ0N", "start_time": "1.5167437769e+12", "human_length": "1", "nodes_expanded": "999", "instance": "prb14485", "end_time": "1.5167437769e+12", "optimal_length": "14", "subject": "AWCO7MG0BHSTQ"}
{"rt": "0.0", "trial_number": "1", "skipped": "False", "complete": "False", "assignment": "3U8YCDAGXQOQ1280P618573W7RSQ0N", "start_time": "1.5167437769e+12", "human_length": "1", "nodes_expanded": "999", "instance": "prb14485", "end_time": "1.5167437769e+12", "optimal_length": "14", "subject": "AWCO7MG0BHSTQ"}
{"rt": "55333.0", "trial_number": "2", "skipped": "True", "complete": "False", "assignment": "3U8YCDAGXQOQ1280P618573W7RSQ0N", "start_time": "1.5167437769e+12", "human_length": "82", "nodes_expanded": "999", "instance": "prb14485", "end_time": "1.51674383223e+12", "optimal_length": "14", "subject": "AWCO7MG0BHSTQ"}
{"rt": "0.0", "trial_number": "0", "skipped": "False", "complete": "False", "assignment": "3X87C8JFV7JQ2BSCY8KSFD9F2ILSQK", "start_time": "1.5167477226e+12", "human_length": "1", "nodes_expanded": "999", "instance": "prb14485", "end_time": "1.5167477226e+12", "optimal_length": "14", "subject": "A21S7MA9DCW95E"}
{"rt": "0.0", "trial_number": "1", "skipped": "False", "complete": "False", "assignment": "3X87C8JFV7JQ2BSCY8KSFD9F2ILSQK", "start_time": "1.5167477226e+12", "human_length": "1", "nodes_expanded": "999", "instance": "prb14485", "end_time": "1.5167477226e+12", "optimal_length": "14", "subject": "A21S7MA9DCW95E"}
{"rt": "44764.0", "trial_number": "2", "skipped": "False", "complete": "True", "assignment": "3X87C8JFV7JQ2BSCY8KSFD9F2ILSQK", "start_time": "1.5167477226e+12", "human_length": "30", "nodes_expanded": "999", "instance": "prb14485", "end_time": "1.51674776736e+12", "optimal_length": "14", "subject": "A21S7MA9DCW95E"}
{"rt": "0.0", "trial_number": "0", "skipped": "False", "complete": "False", "assignment": "3IJXV6UZ1YR1KY4G6BFEG1DXP7SRI1", "start_time": "1.51675232179e+12", "human_length": "1", "nodes_expanded": "999", "instance": "prb14485", "end_time": "1.51675232179e+12", "optimal_length": "14", "subject": "A2RTJ6BDY0DZVZ"}
{"rt": "0.0", "trial_number": "1", "skipped": "False", "complete": "False", "assignment": "3IJXV6UZ1YR1KY4G6BFEG1DXP7SRI1", "start_time": "1.51675232179e+12", "human_length": "1", "nodes_expanded": "999", "instance": "prb14485", "end_time": "1.51675232179e+12", "optimal_length": "14", "subject": "A2RTJ6BDY0DZVZ"}
{"rt": "26199.0", "trial_number": "2", "skipped": "False", "complete": "True", "assignment": "3IJXV6UZ1YR1KY4G6BFEG1DXP7SRI1", "start_time": "1.51675232179e+12", "human_length": "18", "nodes_expanded": "999", "instance": "prb14485", "end_time": "1.51675234799e+12", "optimal_length": "14", "subject": "A2RTJ6BDY0DZVZ"}
{"rt": "0.0", "trial_number": "0", "skipped": "False", "complete": "False", "assignment": "3X4MXAO0BHWJLTOLVSJTHSM54OHWRG", "start_time": "1.51682302552e+12", "human_length": "1", "nodes_expanded": "999", "instance": "prb14485", "end_time": "1.51682302552e+12", "optimal_length": "14", "subject": "A2IBQA01NR5N76"}
{"rt": "35307.0", "trial_number": "1", "skipped": "False", "complete": "True", "assignment": "3X4MXAO0BHWJLTOLVSJTHSM54OHWRG", "start_time": "1.51682302552e+12", "human_length": "27", "nodes_expanded": "999", "instance": "prb14485", "end_time": "1.51682306082e+12", "optimal_length": "14", "subject": "A2IBQA01NR5N76"}
{"rt": "35307.0", "trial_number": "0", "skipped": "False", "complete": "True", "assignment": "3X4MXAO0BHWJLTOLVSJTHSM54OHWRG", "start_time": "1.51682302552e+12", "human_length": "27", "nodes_expanded": "999", "instance": "prb14485", "end_time": "1.51682306082e+12", "optimal_length": "14", "subject": "A2IBQA01NR5N76"}
{"rt": "0.0", "trial_number": "0", "skipped": "False", "complete": "False", "assignment": "3IHR8NYAM89M0EPM8U9LH53ZJDTP4U", "start_time": "1.51682617591e+12", "human_length": "1", "nodes_expanded": "999", "instance": "prb14485", "end_time": "1.51682617591e+12", "optimal_length": "14", "subject": "A23437BMZ5T1FH"}
{"rt": "14456.0", "trial_number": "1", "skipped": "True", "complete": "False", "assignment": "3IHR8NYAM89M0EPM8U9LH53ZJDTP4U", "start_time": "1.51682617591e+12", "human_length": "20", "nodes_expanded": "999", "instance": "prb14485", "end_time": "1.51682619036e+12", "optimal_length": "14", "subject": "A23437BMZ5T1FH"}
{"rt": "50311.0", "trial_number": "0", "skipped": "False", "complete": "True", "assignment": "3YW4XOSQKRTI0K0Z2YPDTDJVFABU1I", "start_time": "1.5168325325e+12", "human_length": "34", "nodes_expanded": "999", "instance": "prb14485", "end_time": "1.51683258281e+12", "optimal_length": "14", "subject": "A1LR0VQIHQUJAM"}
{"rt": "23062.0", "trial_number": "0", "skipped": "True", "complete": "False", "assignment": "3VE8AYVF8N5BS2NU6U3TMN50JMNF8V", "start_time": "1.51673752947e+12", "human_length": "14", "nodes_expanded": "999", "instance": "prb14485", "end_time": "1.51673755253e+12", "optimal_length": "14", "subject": "A18QU0YQB6Q8DF"}
{"rt": "205281.0", "trial_number": "0", "skipped": "False", "complete": "True", "assignment": "3X87C8JFV7JQ2BSCY8KSFD9F2ILSQK", "start_time": "1.51673830857e+12", "human_length": "81", "nodes_expanded": "999", "instance": "prb14485", "end_time": "1.51673851385e+12", "optimal_length": "14", "subject": "A3Q0XAGQ7TD7MP"}
{"rt": "33551.0", "trial_number": "1", "skipped": "False", "complete": "True", "assignment": "3GLB5JMZFY3TNXFGYMKRQ0JDXNTDGZ", "start_time": "1.51794543217e+12", "human_length": "15", "nodes_expanded": "999", "instance": "prb14485", "end_time": "1.51794546572e+12", "optimal_length": "14", "subject": "A3Q0XAGQ7TD7MP"}
{"rt": "42547.0", "trial_number": "0", "skipped": "True", "complete": "False", "assignment": "3WSELTNVR4AZUVYAYCSWZIQW0J4ATB", "start_time": "1.51673988077e+12", "human_length": "33", "nodes_expanded": "999", "instance": "prb14485", "end_time": "1.51673992332e+12", "optimal_length": "14", "subject": "A2TQNX64349OZ9"}
{"rt": "55333.0", "trial_number": "0", "skipped": "True", "complete": "False", "assignment": "3U8YCDAGXQOQ1280P618573W7RSQ0N", "start_time": "1.5167437769e+12", "human_length": "28", "nodes_expanded": "999", "instance": "prb14485", "end_time": "1.51674383223e+12", "optimal_length": "14", "subject": "AWCO7MG0BHSTQ"}
{"rt": "44764.0", "trial_number": "0", "skipped": "False", "complete": "True", "assignment": "3X87C8JFV7JQ2BSCY8KSFD9F2ILSQK", "start_time": "1.5167477226e+12", "human_length": "30", "nodes_expanded": "999", "instance": "prb14485", "end_time": "1.51674776736e+12", "optimal_length": "14", "subject": "A21S7MA9DCW95E"}
{"rt": "26199.0", "trial_number": "0", "skipped": "False", "complete": "True", "assignment": "3IJXV6UZ1YR1KY4G6BFEG1DXP7SRI1", "start_time": "1.51675232179e+12", "human_length": "18", "nodes_expanded": "999", "instance": "prb14485", "end_time": "1.51675234799e+12", "optimal_length": "14", "subject": "A2RTJ6BDY0DZVZ"}
{"rt": "71145.0", "trial_number": "0", "skipped": "False", "complete": "True", "assignment": "3TS1AR6UQRM7SOIBWPBN8N9589Y7FV", "start_time": "1.51683800893e+12", "human_length": "44", "nodes_expanded": "999", "instance": "prb14485", "end_time": "1.51683808008e+12", "optimal_length": "14", "subject": "A1F4N58CAX8IMK"}
{"rt": "76308.0", "trial_number": "1", "skipped": "False", "complete": "True", "assignment": "35DR22AR5ES6RR89U7EJ1DXW91AX3P", "start_time": "1.51795429398e+12", "human_length": "74", "nodes_expanded": "999", "instance": "prb14485", "end_time": "1.51795437029e+12", "optimal_length": "14", "subject": "A1F4N58CAX8IMK"}
{"rt": "29525.0", "trial_number": "0", "skipped": "False", "complete": "True", "assignment": "31LM9EDVOM0C0BWUVMJXJINN3QPJNI", "start_time": "1.51752383921e+12", "human_length": "23", "nodes_expanded": "999", "instance": "prb14485", "end_time": "1.51752386874e+12", "optimal_length": "14", "subject": "A1NT8BT94ME6F5"}
{"rt": "105728.0", "trial_number": "0", "skipped": "False", "complete": "True", "assignment": "37TD41K0AIHM8AITTQJXV8KY05QCSB", "start_time": "1.51752468507e+12", "human_length": "46", "nodes_expanded": "999", "instance": "prb14485", "end_time": "1.5175247908e+12", "optimal_length": "14", "subject": "A30KYQGABO7JER"}
{"rt": "68427.0", "trial_number": "0", "skipped": "False", "complete": "True", "assignment": "3TYCR1GOTDRCCQYD1V64UK7OHTBZLQ", "start_time": "1.51753680846e+12", "human_length": "55", "nodes_expanded": "999", "instance": "prb14485", "end_time": "1.51753687689e+12", "optimal_length": "14", "subject": "A13BZCNJ0WR1T7"}
{"rt": "27026.0", "trial_number": "0", "skipped": "False", "complete": "False", "assignment": "3TPWUS5F8A9FFRZ2DVTYSXNJ6BWWC6", "start_time": "1.51794229257e+12", "human_length": "11", "nodes_expanded": "999", "instance": "prb14485", "end_time": "1.5179423196e+12", "optimal_length": "14", "subject": "A3GXC3VG37CQ3G"}
{"rt": "78892.0", "trial_number": "1", "skipped": "False", "complete": "True", "assignment": "3TPWUS5F8A9FFRZ2DVTYSXNJ6BWWC6", "start_time": "1.51794232738e+12", "human_length": "48", "nodes_expanded": "999", "instance": "prb14485", "end_time": "1.51794240628e+12", "optimal_length": "14", "subject": "A3GXC3VG37CQ3G"}
{"rt": "47090.0", "trial_number": "0", "skipped": "False", "complete": "True", "assignment": "34HJIJKLP64Z5YMIU6IKNXSH7PDV4I", "start_time": "1.51794274815e+12", "human_length": "31", "nodes_expanded": "999", "instance": "prb14485", "end_time": "1.51794279524e+12", "optimal_length": "14", "subject": "A3CTXNQ2GXIQSP"}
{"rt": "58940.0", "trial_number": "0", "skipped": "False", "complete": "True", "assignment": "33PPO7FECWN7JOLBOAKUBCWTC0AIDL", "start_time": "1.51794097779e+12", "human_length": "37", "nodes_expanded": "999", "instance": "prb14485", "end_time": "1.51794103673e+12", "optimal_length": "14", "subject": "AB5IVPS4OP9M8"}
{"rt": "64150.0", "trial_number": "0", "skipped": "False", "complete": "False", "assignment": "30IQTZXKALEAAZ9CBKW0ZFZP6O5X07", "start_time": "1.51794640786e+12", "human_length": "33", "nodes_expanded": "999", "instance": "prb14485", "end_time": "1.51794647201e+12", "optimal_length": "14", "subject": "A23XJ8I86R0O3B"}
{"rt": "65814.0", "trial_number": "1", "skipped": "True", "complete": "False", "assignment": "30IQTZXKALEAAZ9CBKW0ZFZP6O5X07", "start_time": "1.51794647418e+12", "human_length": "30", "nodes_expanded": "999", "instance": "prb14485", "end_time": "1.51794653999e+12", "optimal_length": "14", "subject": "A23XJ8I86R0O3B"}
{"rt": "14960.0", "trial_number": "0", "skipped": "False", "complete": "False", "assignment": "3STRJBFXOXZ5687WA35LTWTS7QZKTT", "start_time": "1.51794491687e+12", "human_length": "7", "nodes_expanded": "999", "instance": "prb14485", "end_time": "1.51794493183e+12", "optimal_length": "14", "subject": "A3OB6REG5CGHK1"}
{"rt": "41352.0", "trial_number": "1", "skipped": "False", "complete": "True", "assignment": "3STRJBFXOXZ5687WA35LTWTS7QZKTT", "start_time": "1.51794493307e+12", "human_length": "29", "nodes_expanded": "999", "instance": "prb14485", "end_time": "1.51794497442e+12", "optimal_length": "14", "subject": "A3OB6REG5CGHK1"}
{"rt": "17869.0", "trial_number": "0", "skipped": "False", "complete": "False", "assignment": "3JCG6DTRV4YEPVDZ64VNKDUEMPGQQ1", "start_time": "1.51794736285e+12", "human_length": "7", "nodes_expanded": "999", "instance": "prb14485", "end_time": "1.51794738072e+12", "optimal_length": "14", "subject": "A2V7KYLBCBTI3B"}
{"rt": "24238.0", "trial_number": "1", "skipped": "False", "complete": "False", "assignment": "3JCG6DTRV4YEPVDZ64VNKDUEMPGQQ1", "start_time": "1.51794738253e+12", "human_length": "11", "nodes_expanded": "999", "instance": "prb14485", "end_time": "1.51794740677e+12", "optimal_length": "14", "subject": "A2V7KYLBCBTI3B"}
{"rt": "42771.0", "trial_number": "2", "skipped": "False", "complete": "True", "assignment": "3JCG6DTRV4YEPVDZ64VNKDUEMPGQQ1", "start_time": "1.51794740911e+12", "human_length": "14", "nodes_expanded": "999", "instance": "prb14485", "end_time": "1.51794745188e+12", "optimal_length": "14", "subject": "A2V7KYLBCBTI3B"}
{"rt": "60489.0", "trial_number": "0", "skipped": "False", "complete": "True", "assignment": "33PPO7FECWN7JOLBOAKUBCWTC0AIDL", "start_time": "1.51794900378e+12", "human_length": "25", "nodes_expanded": "999", "instance": "prb14485", "end_time": "1.51794906426e+12", "optimal_length": "14", "subject": "AXKM02NVXNGOM"}
{"rt": "82086.0", "trial_number": "0", "skipped": "False", "complete": "True", "assignment": "3PB5A5BD0WED6OE679H5Q89HBDGG71", "start_time": "1.51795331815e+12", "human_length": "47", "nodes_expanded": "999", "instance": "prb14485", "end_time": "1.51795340024e+12", "optimal_length": "14", "subject": "A1USR9JCAMDGM3"}
{"rt": "38867.0", "trial_number": "0", "skipped": "False", "complete": "True", "assignment": "33F859I567LE8WC74WB3GA7E94XBHW", "start_time": "1.51796889844e+12", "human_length": "25", "nodes_expanded": "999", "instance": "prb14485", "end_time": "1.51796893731e+12", "optimal_length": "14", "subject": "A1GQS6USF2JEYG"}
{"rt": "19864.0", "trial_number": "0", "skipped": "False", "complete": "True", "assignment": "3IJXV6UZ1YR1KY4G6BFEG1DXR47RIC", "start_time": "1.51797231019e+12", "human_length": "19", "nodes_expanded": "999", "instance": "prb14485", "end_time": "1.51797233005e+12", "optimal_length": "14", "subject": "A18T3WK7J16C1B"}
{"rt": "22496.0", "trial_number": "0", "skipped": "False", "complete": "True", "assignment": "3FTF2T8WLSQDHTSZ1BJ7Q7MB14SW9H", "start_time": "1.51813704586e+12", "human_length": "17", "nodes_expanded": "999", "instance": "prb14485", "end_time": "1.51813706836e+12", "optimal_length": "14", "subject": "A1IUH9D7N69VS"}
{"rt": "20631.0", "trial_number": "0", "skipped": "True", "complete": "False", "assignment": "3XC1O3LBOTUGQEPEV3HM8W67X4RTLL", "start_time": "1.51813930921e+12", "human_length": "8", "nodes_expanded": "999", "instance": "prb14485", "end_time": "1.51813932984e+12", "optimal_length": "14", "subject": "A1ZTSCPETU3UJW"}
{"rt": "22599.0", "trial_number": "0", "skipped": "False", "complete": "True", "assignment": "3TAYZSBPLMG9ASQRWXURJVBCPLN2SH", "start_time": "1.51813667162e+12", "human_length": "15", "nodes_expanded": "999", "instance": "prb14485", "end_time": "1.51813669422e+12", "optimal_length": "14", "subject": "A2RCYLKY072XXO"}
{"rt": "19277.0", "trial_number": "0", "skipped": "False", "complete": "True", "assignment": "3ZSANO2JCGFTBM23KS9Y3E51YP4FSQ", "start_time": "1.51814368944e+12", "human_length": "24", "nodes_expanded": "999", "instance": "prb14485", "end_time": "1.51814370871e+12", "optimal_length": "14", "subject": "A1F42D4L22K5ND"}
{"rt": "0.0", "trial_number": "0", "skipped": "True", "complete": "False", "assignment": "3VE8AYVF8N5BS2NU6U3TMN50MV38FP", "start_time": "1.51814525406e+12", "human_length": "1", "nodes_expanded": "999", "instance": "prb14485", "end_time": "1.51814525406e+12", "optimal_length": "14", "subject": "A1JN13098RIE78"}
{"rt": "47077.0", "trial_number": "0", "skipped": "False", "complete": "True", "assignment": "3HWRJOOET6A15827PHPSLWK1MOYSEU", "start_time": "1.51814570505e+12", "human_length": "41", "nodes_expanded": "999", "instance": "prb14485", "end_time": "1.51814575212e+12", "optimal_length": "14", "subject": "AO1QGAUZ85T6L"}
{"rt": "97974.0", "trial_number": "0", "skipped": "False", "complete": "False", "assignment": "3TMFV4NEP9MD3O9PWJDTQBR0HZYW8I", "start_time": "1.51814628794e+12", "human_length": "55", "nodes_expanded": "999", "instance": "prb14485", "end_time": "1.51814638592e+12", "optimal_length": "14", "subject": "A3GOOI75XOF24V"}
{"rt": "111036.0", "trial_number": "1", "skipped": "False", "complete": "False", "assignment": "3TMFV4NEP9MD3O9PWJDTQBR0HZYW8I", "start_time": "1.51814639492e+12", "human_length": "56", "nodes_expanded": "999", "instance": "prb14485", "end_time": "1.51814650596e+12", "optimal_length": "14", "subject": "A3GOOI75XOF24V"}
{"rt": "38563.0", "trial_number": "2", "skipped": "False", "complete": "True", "assignment": "3TMFV4NEP9MD3O9PWJDTQBR0HZYW8I", "start_time": "1.51814652908e+12", "human_length": "24", "nodes_expanded": "999", "instance": "prb14485", "end_time": "1.51814656764e+12", "optimal_length": "14", "subject": "A3GOOI75XOF24V"}
{"rt": "62601.0", "trial_number": "0", "skipped": "False", "complete": "True", "assignment": "3XLBSAQ9Z5KDX59BX15UBFPNNHYZ7Q", "start_time": "1.51814639498e+12", "human_length": "52", "nodes_expanded": "999", "instance": "prb14485", "end_time": "1.51814645758e+12", "optimal_length": "14", "subject": "A1HFNOKU591WCY"}
{"rt": "153697.0", "trial_number": "0", "skipped": "True", "complete": "False", "assignment": "3RUIQRXJBCWS71H9MUFVM5WQ3SCLLJ", "start_time": "1.51815655792e+12", "human_length": "64", "nodes_expanded": "999", "instance": "prb14485", "end_time": "1.51815671162e+12", "optimal_length": "14", "subject": "A1SJRFJWFXSDH4"}
{"rt": "19797.0", "trial_number": "0", "skipped": "False", "complete": "False", "assignment": "3M0BCWMB8W4W5M7WZVX3HDH1P53WB1", "start_time": "1.51815835241e+12", "human_length": "14", "nodes_expanded": "999", "instance": "prb14485", "end_time": "1.51815837221e+12", "optimal_length": "14", "subject": "A53S7J4JGWG38"}
{"rt": "89900.0", "trial_number": "1", "skipped": "False", "complete": "True", "assignment": "3M0BCWMB8W4W5M7WZVX3HDH1P53WB1", "start_time": "1.51815837416e+12", "human_length": "40", "nodes_expanded": "999", "instance": "prb14485", "end_time": "1.51815846406e+12", "optimal_length": "14", "subject": "A53S7J4JGWG38"}
{"rt": "168091.0", "trial_number": "0", "skipped": "True", "complete": "False", "assignment": "3SITXWYCNWHBUMCM90TPJWV8Y7AXBW", "start_time": "1.51816330671e+12", "human_length": "72", "nodes_expanded": "999", "instance": "prb14485", "end_time": "1.51816347480e+12", "optimal_length": "14", "subject": "A28RX7L0QZ993M"}
{"rt": "15251.0", "trial_number": "0", "skipped": "False", "complete": "True", "assignment": "3IXEICO793RY7TM78ZBKJDOA7ADT6Q", "start_time": "1.51816842228e+12", "human_length": "17", "nodes_expanded": "999", "instance": "prb14485", "end_time": "1.51816843753e+12", "optimal_length": "14", "subject": "ALH1K6ZAQQMN7"}
