{"rt": "27257.0", "trial_number": "0", "skipped": "False", "complete": "True", "assignment": "3ZV9H2YQQEFR2R3JK2IXZUJPXAF3WW", "start_time": "1.51630574242e+12", "human_length": "10", "nodes_expanded": "999", "instance": "prb14047", "end_time": "1.51630576967e+12", "optimal_length": "7", "subject": "A289D98Z4GAZ28"}
{"rt": "9753.0", "trial_number": "0", "skipped": "False", "complete": "True", "assignment": "3ON104KXQL4CKNMNKGNG9ZBVBAB4WI", "start_time": "1.51631388759e+12", "human_length": "7", "nodes_expanded": "999", "instance": "prb14047", "end_time": "1.51631389734e+12", "optimal_length": "7", "subject": "A58QOLDFC179Q"}
{"rt": "10298.0", "trial_number": "0", "skipped": "False", "complete": "True", "assignment": "3PMBY0YE28B43VMUKKJ6EDF85RV9C8", "start_time": "1.51638669833e+12", "human_length": "9", "nodes_expanded": "999", "instance": "prb14047", "end_time": "1.51638670863e+12", "optimal_length": "7", "subject": "A191V7PT3DQKDP"}
{"rt": "14920.0", "trial_number": "0", "skipped": "False", "complete": "True", "assignment": "34BBWHLWHBJ6SUL255PK30LEGY5IWG", "start_time": "1.51639240088e+12", "human_length": "20", "nodes_expanded": "999", "instance": "prb14047", "end_time": "1.5163924158e+12", "optimal_length": "7", "subject": "A214HWAW1PYWO8"}
{"rt": "0.0", "trial_number": "0", "skipped": "False", "complete": "False", "assignment": "3VE8AYVF8N5BS2NU6U3TMN50JMNF8V", "start_time": "1.51673537337e+12", "human_length": "1", "nodes_expanded": "999", "instance": "prb14047", "end_time": "1.51673537337e+12", "optimal_length": "7", "subject": "A18QU0YQB6Q8DF"}
{"rt": "0.0", "trial_number": "1", "skipped": "False", "complete": "False", "assignment": "3VE8AYVF8N5BS2NU6U3TMN50JMNF8V", "start_time": "1.51673537337e+12", "human_length": "1", "nodes_expanded": "999", "instance": "prb14047", "end_time": "1.51673537337e+12", "optimal_length": "7", "subject": "A18QU0YQB6Q8DF"}
{"rt": "72107.0", "trial_number": "2", "skipped": "False", "complete": "True", "assignment": "3VE8AYVF8N5BS2NU6U3TMN50JMNF8V", "start_time": "1.51673537337e+12", "human_length": "14", "nodes_expanded": "999", "instance": "prb14047", "end_time": "1.51673544548e+12", "optimal_length": "7", "subject": "A18QU0YQB6Q8DF"}
{"rt": "0.0", "trial_number": "0", "skipped": "False", "complete": "False", "assignment": "3X87C8JFV7JQ2BSCY8KSFD9F2ILSQK", "start_time": "1.5167402214e+12", "human_length": "1", "nodes_expanded": "999", "instance": "prb14047", "end_time": "1.5167402214e+12", "optimal_length": "7", "subject": "A3Q0XAGQ7TD7MP"}
{"rt": "0.0", "trial_number": "1", "skipped": "False", "complete": "False", "assignment": "3X87C8JFV7JQ2BSCY8KSFD9F2ILSQK", "start_time": "1.5167402214e+12", "human_length": "1", "nodes_expanded": "999", "instance": "prb14047", "end_time": "1.5167402214e+12", "optimal_length": "7", "subject": "A3Q0XAGQ7TD7MP"}
{"rt": "12325.0", "trial_number": "2", "skipped": "False", "complete": "True", "assignment": "3X87C8JFV7JQ2BSCY8KSFD9F2ILSQK", "start_time": "1.5167402214e+12", "human_length": "7", "nodes_expanded": "999", "instance": "prb14047", "end_time": "1.51674023372e+12", "optimal_length": "7", "subject": "A3Q0XAGQ7TD7MP"}
{"rt": "17841.0", "trial_number": "3", "skipped": "False", "complete": "True", "assignment": "3GLB5JMZFY3TNXFGYMKRQ0JDXNTDGZ", "start_time": "1.51794836195e+12", "human_length": "10", "nodes_expanded": "999", "instance": "prb14047", "end_time": "1.51794837979e+12", "optimal_length": "7", "subject": "A3Q0XAGQ7TD7MP"}
{"rt": "29851.0", "trial_number": "0", "skipped": "False", "complete": "False", "assignment": "3WSELTNVR4AZUVYAYCSWZIQW0J4ATB", "start_time": "1.5167386734e+12", "human_length": "19", "nodes_expanded": "999", "instance": "prb14047", "end_time": "1.51673870325e+12", "optimal_length": "7", "subject": "A2TQNX64349OZ9"}
{"rt": "0.0", "trial_number": "1", "skipped": "False", "complete": "False", "assignment": "3WSELTNVR4AZUVYAYCSWZIQW0J4ATB", "start_time": "1.51673870509e+12", "human_length": "1", "nodes_expanded": "999", "instance": "prb14047", "end_time": "1.51673870509e+12", "optimal_length": "7", "subject": "A2TQNX64349OZ9"}
{"rt": "0.0", "trial_number": "2", "skipped": "False", "complete": "False", "assignment": "3WSELTNVR4AZUVYAYCSWZIQW0J4ATB", "start_time": "1.5167386734e+12", "human_length": "1", "nodes_expanded": "999", "instance": "prb14047", "end_time": "1.5167386734e+12", "optimal_length": "7", "subject": "A2TQNX64349OZ9"}
{"rt": "0.0", "trial_number": "3", "skipped": "False", "complete": "False", "assignment": "3WSELTNVR4AZUVYAYCSWZIQW0J4ATB", "start_time": "1.51673870509e+12", "human_length": "1", "nodes_expanded": "999", "instance": "prb14047", "end_time": "1.51673870509e+12", "optimal_length": "7", "subject": "A2TQNX64349OZ9"}
{"rt": "0.0", "trial_number": "4", "skipped": "False", "complete": "False", "assignment": "3WSELTNVR4AZUVYAYCSWZIQW0J4ATB", "start_time": "1.5167386734e+12", "human_length": "1", "nodes_expanded": "999", "instance": "prb14047", "end_time": "1.5167386734e+12", "optimal_length": "7", "subject": "A2TQNX64349OZ9"}
{"rt": "9335.0", "trial_number": "5", "skipped": "False", "complete": "True", "assignment": "3WSELTNVR4AZUVYAYCSWZIQW0J4ATB", "start_time": "1.51673870509e+12", "human_length": "9", "nodes_expanded": "999", "instance": "prb14047", "end_time": "1.51673871443e+12", "optimal_length": "7", "subject": "A2TQNX64349OZ9"}
{"rt": "0.0", "trial_number": "0", "skipped": "False", "complete": "False", "assignment": "3X87C8JFV7JQ2BSCY8KSFD9F2ILSQK", "start_time": "1.51674536837e+12", "human_length": "1", "nodes_expanded": "999", "instance": "prb14047", "end_time": "1.51674536837e+12", "optimal_length": "7", "subject": "A21S7MA9DCW95E"}
{"rt": "0.0", "trial_number": "1", "skipped": "False", "complete": "False", "assignment": "3X87C8JFV7JQ2BSCY8KSFD9F2ILSQK", "start_time": "1.51674536837e+12", "human_length": "1", "nodes_expanded": "999", "instance": "prb14047", "end_time": "1.51674536837e+12", "optimal_length": "7", "subject": "A21S7MA9DCW95E"}
{"rt": "13350.0", "trial_number": "2", "skipped": "False", "complete": "True", "assignment": "3X87C8JFV7JQ2BSCY8KSFD9F2ILSQK", "start_time": "1.51674536837e+12", "human_length": "9", "nodes_expanded": "999", "instance": "prb14047", "end_time": "1.51674538172e+12", "optimal_length": "7", "subject": "A21S7MA9DCW95E"}
{"rt": "0.0", "trial_number": "0", "skipped": "False", "complete": "False", "assignment": "3IJXV6UZ1YR1KY4G6BFEG1DXP7SRI1", "start_time": "1.51675058133e+12", "human_length": "1", "nodes_expanded": "999", "instance": "prb14047", "end_time": "1.51675058133e+12", "optimal_length": "7", "subject": "A2RTJ6BDY0DZVZ"}
{"rt": "0.0", "trial_number": "1", "skipped": "False", "complete": "False", "assignment": "3IJXV6UZ1YR1KY4G6BFEG1DXP7SRI1", "start_time": "1.51675058133e+12", "human_length": "1", "nodes_expanded": "999", "instance": "prb14047", "end_time": "1.51675058133e+12", "optimal_length": "7", "subject": "A2RTJ6BDY0DZVZ"}
{"rt": "15159.0", "trial_number": "2", "skipped": "False", "complete": "True", "assignment": "3IJXV6UZ1YR1KY4G6BFEG1DXP7SRI1", "start_time": "1.51675058133e+12", "human_length": "9", "nodes_expanded": "999", "instance": "prb14047", "end_time": "1.51675059649e+12", "optimal_length": "7", "subject": "A2RTJ6BDY0DZVZ"}
{"rt": "0.0", "trial_number": "0", "skipped": "False", "complete": "False", "assignment": "3I2PTA7R3U2SESF4TZBQORI5LSJQKK", "start_time": "1.51675953149e+12", "human_length": "1", "nodes_expanded": "999", "instance": "prb14047", "end_time": "1.51675953149e+12", "optimal_length": "7", "subject": "A3NMQ3019X6YE0"}
{"rt": "0.0", "trial_number": "1", "skipped": "False", "complete": "False", "assignment": "3I2PTA7R3U2SESF4TZBQORI5LSJQKK", "start_time": "1.51675953149e+12", "human_length": "1", "nodes_expanded": "999", "instance": "prb14047", "end_time": "1.51675953149e+12", "optimal_length": "7", "subject": "A3NMQ3019X6YE0"}
{"rt": "13350.0", "trial_number": "2", "skipped": "False", "complete": "True", "assignment": "3I2PTA7R3U2SESF4TZBQORI5LSJQKK", "start_time": "1.51675953149e+12", "human_length": "9", "nodes_expanded": "999", "instance": "prb14047", "end_time": "1.51675954484e+12", "optimal_length": "7", "subject": "A3NMQ3019X6YE0"}
{"rt": "0.0", "trial_number": "0", "skipped": "False", "complete": "False", "assignment": "3IHR8NYAM89M0EPM8U9LH53ZJDTP4U", "start_time": "1.51682732708e+12", "human_length": "1", "nodes_expanded": "999", "instance": "prb14047", "end_time": "1.51682732708e+12", "optimal_length": "7", "subject": "A23437BMZ5T1FH"}
{"rt": "18941.0", "trial_number": "1", "skipped": "False", "complete": "True", "assignment": "3IHR8NYAM89M0EPM8U9LH53ZJDTP4U", "start_time": "1.51682732708e+12", "human_length": "18", "nodes_expanded": "999", "instance": "prb14047", "end_time": "1.51682734602e+12", "optimal_length": "7", "subject": "A23437BMZ5T1FH"}
{"rt": "20094.0", "trial_number": "0", "skipped": "False", "complete": "True", "assignment": "3YW4XOSQKRTI0K0Z2YPDTDJVFABU1I", "start_time": "1.51683281798e+12", "human_length": "19", "nodes_expanded": "999", "instance": "prb14047", "end_time": "1.51683283807e+12", "optimal_length": "7", "subject": "A1LR0VQIHQUJAM"}
{"rt": "72107.0", "trial_number": "0", "skipped": "False", "complete": "True", "assignment": "3VE8AYVF8N5BS2NU6U3TMN50JMNF8V", "start_time": "1.51673537337e+12", "human_length": "14", "nodes_expanded": "999", "instance": "prb14047", "end_time": "1.51673544548e+12", "optimal_length": "7", "subject": "A18QU0YQB6Q8DF"}
{"rt": "12325.0", "trial_number": "0", "skipped": "False", "complete": "True", "assignment": "3X87C8JFV7JQ2BSCY8KSFD9F2ILSQK", "start_time": "1.5167402214e+12", "human_length": "7", "nodes_expanded": "999", "instance": "prb14047", "end_time": "1.51674023372e+12", "optimal_length": "7", "subject": "A3Q0XAGQ7TD7MP"}
{"rt": "17841.0", "trial_number": "1", "skipped": "False", "complete": "True", "assignment": "3GLB5JMZFY3TNXFGYMKRQ0JDXNTDGZ", "start_time": "1.51794836195e+12", "human_length": "10", "nodes_expanded": "999", "instance": "prb14047", "end_time": "1.51794837979e+12", "optimal_length": "7", "subject": "A3Q0XAGQ7TD7MP"}
{"rt": "29851.0", "trial_number": "0", "skipped": "False", "complete": "False", "assignment": "3WSELTNVR4AZUVYAYCSWZIQW0J4ATB", "start_time": "1.5167386734e+12", "human_length": "19", "nodes_expanded": "999", "instance": "prb14047", "end_time": "1.51673870325e+12", "optimal_length": "7", "subject": "A2TQNX64349OZ9"}
{"rt": "9335.0", "trial_number": "1", "skipped": "False", "complete": "True", "assignment": "3WSELTNVR4AZUVYAYCSWZIQW0J4ATB", "start_time": "1.51673870509e+12", "human_length": "9", "nodes_expanded": "999", "instance": "prb14047", "end_time": "1.51673871443e+12", "optimal_length": "7", "subject": "A2TQNX64349OZ9"}
{"rt": "13350.0", "trial_number": "0", "skipped": "False", "complete": "True", "assignment": "3X87C8JFV7JQ2BSCY8KSFD9F2ILSQK", "start_time": "1.51674536837e+12", "human_length": "9", "nodes_expanded": "999", "instance": "prb14047", "end_time": "1.51674538172e+12", "optimal_length": "7", "subject": "A21S7MA9DCW95E"}
{"rt": "15159.0", "trial_number": "0", "skipped": "False", "complete": "True", "assignment": "3IJXV6UZ1YR1KY4G6BFEG1DXP7SRI1", "start_time": "1.51675058133e+12", "human_length": "9", "nodes_expanded": "999", "instance": "prb14047", "end_time": "1.51675059649e+12", "optimal_length": "7", "subject": "A2RTJ6BDY0DZVZ"}
{"rt": "13350.0", "trial_number": "0", "skipped": "False", "complete": "True", "assignment": "3I2PTA7R3U2SESF4TZBQORI5LSJQKK", "start_time": "1.51675953149e+12", "human_length": "9", "nodes_expanded": "999", "instance": "prb14047", "end_time": "1.51675954484e+12", "optimal_length": "7", "subject": "A3NMQ3019X6YE0"}
{"rt": "20423.0", "trial_number": "0", "skipped": "False", "complete": "True", "assignment": "3TS1AR6UQRM7SOIBWPBN8N9589Y7FV", "start_time": "1.51683858186e+12", "human_length": "18", "nodes_expanded": "999", "instance": "prb14047", "end_time": "1.51683860228e+12", "optimal_length": "7", "subject": "A1F4N58CAX8IMK"}
{"rt": "6723.0", "trial_number": "1", "skipped": "False", "complete": "True", "assignment": "35DR22AR5ES6RR89U7EJ1DXW91AX3P", "start_time": "1.51795373231e+12", "human_length": "9", "nodes_expanded": "999", "instance": "prb14047", "end_time": "1.51795373904e+12", "optimal_length": "7", "subject": "A1F4N58CAX8IMK"}
{"rt": "18177.0", "trial_number": "0", "skipped": "False", "complete": "True", "assignment": "31LM9EDVOM0C0BWUVMJXJINN3QPJNI", "start_time": "1.51752407056e+12", "human_length": "12", "nodes_expanded": "999", "instance": "prb14047", "end_time": "1.51752408873e+12", "optimal_length": "7", "subject": "A1NT8BT94ME6F5"}
{"rt": "13167.0", "trial_number": "0", "skipped": "False", "complete": "True", "assignment": "37TD41K0AIHM8AITTQJXV8KY05QCSB", "start_time": "1.51752507608e+12", "human_length": "11", "nodes_expanded": "999", "instance": "prb14047", "end_time": "1.51752508925e+12", "optimal_length": "7", "subject": "A30KYQGABO7JER"}
{"rt": "13068.0", "trial_number": "0", "skipped": "False", "complete": "True", "assignment": "36H9ULYP6320CJJDXY0KBDEE1Z3JFB", "start_time": "1.51753378598e+12", "human_length": "9", "nodes_expanded": "999", "instance": "prb14047", "end_time": "1.51753379905e+12", "optimal_length": "7", "subject": "AN098C29EGJ6"}
{"rt": "11518.0", "trial_number": "0", "skipped": "False", "complete": "True", "assignment": "3TYCR1GOTDRCCQYD1V64UK7OHTBZLQ", "start_time": "1.5175357636e+12", "human_length": "9", "nodes_expanded": "999", "instance": "prb14047", "end_time": "1.51753577512e+12", "optimal_length": "7", "subject": "A13BZCNJ0WR1T7"}
{"rt": "12470.0", "trial_number": "0", "skipped": "False", "complete": "True", "assignment": "3IAS3U3I0GOAT69PLB8WT61CKJ22BO", "start_time": "1.51793962851e+12", "human_length": "11", "nodes_expanded": "999", "instance": "prb14047", "end_time": "1.51793964098e+12", "optimal_length": "7", "subject": "A2C84POENS2UNY"}
{"rt": "18295.0", "trial_number": "0", "skipped": "False", "complete": "True", "assignment": "34HJIJKLP64Z5YMIU6IKNXSH7PDV4I", "start_time": "1.51794094641e+12", "human_length": "10", "nodes_expanded": "999", "instance": "prb14047", "end_time": "1.5179409647e+12", "optimal_length": "7", "subject": "A3CTXNQ2GXIQSP"}
{"rt": "33897.0", "trial_number": "0", "skipped": "False", "complete": "True", "assignment": "33PPO7FECWN7JOLBOAKUBCWTC0AIDL", "start_time": "1.51794162766e+12", "human_length": "22", "nodes_expanded": "999", "instance": "prb14047", "end_time": "1.51794166156e+12", "optimal_length": "7", "subject": "AB5IVPS4OP9M8"}
{"rt": "11732.0", "trial_number": "0", "skipped": "False", "complete": "True", "assignment": "3STRJBFXOXZ5687WA35LTWTS7QZKTT", "start_time": "1.51794592698e+12", "human_length": "9", "nodes_expanded": "999", "instance": "prb14047", "end_time": "1.51794593871e+12", "optimal_length": "7", "subject": "A3OB6REG5CGHK1"}
{"rt": "23585.0", "trial_number": "0", "skipped": "False", "complete": "True", "assignment": "33PPO7FECWN7JOLBOAKUBCWTC0AIDL", "start_time": "1.51795059727e+12", "human_length": "11", "nodes_expanded": "999", "instance": "prb14047", "end_time": "1.51795062085e+12", "optimal_length": "7", "subject": "AXKM02NVXNGOM"}
{"rt": "7313.0", "trial_number": "0", "skipped": "False", "complete": "True", "assignment": "3PB5A5BD0WED6OE679H5Q89HBDGG71", "start_time": "1.51795267971e+12", "human_length": "7", "nodes_expanded": "999", "instance": "prb14047", "end_time": "1.51795268702e+12", "optimal_length": "7", "subject": "A1USR9JCAMDGM3"}
{"rt": "25990.0", "trial_number": "0", "skipped": "False", "complete": "True", "assignment": "3R5F3LQFV3SKIB1AENMWM1BICT5OZB", "start_time": "1.51795912332e+12", "human_length": "23", "nodes_expanded": "999", "instance": "prb14047", "end_time": "1.51795914931e+12", "optimal_length": "7", "subject": "A1N1EF0MIRSEZZ"}
{"rt": "9774.0", "trial_number": "0", "skipped": "False", "complete": "True", "assignment": "33F859I567LE8WC74WB3GA7E94XBHW", "start_time": "1.51797020804e+12", "human_length": "12", "nodes_expanded": "999", "instance": "prb14047", "end_time": "1.51797021781e+12", "optimal_length": "7", "subject": "A1GQS6USF2JEYG"}
{"rt": "11643.0", "trial_number": "0", "skipped": "False", "complete": "True", "assignment": "3IJXV6UZ1YR1KY4G6BFEG1DXR47RIC", "start_time": "1.51797153972e+12", "human_length": "9", "nodes_expanded": "999", "instance": "prb14047", "end_time": "1.51797155136e+12", "optimal_length": "7", "subject": "A18T3WK7J16C1B"}
{"rt": "6672.0", "trial_number": "0", "skipped": "False", "complete": "True", "assignment": "3FTF2T8WLSQDHTSZ1BJ7Q7MB14SW9H", "start_time": "1.5181360905e+12", "human_length": "7", "nodes_expanded": "999", "instance": "prb14047", "end_time": "1.51813609717e+12", "optimal_length": "7", "subject": "A1IUH9D7N69VS"}
{"rt": "13369.0", "trial_number": "0", "skipped": "False", "complete": "True", "assignment": "3XC1O3LBOTUGQEPEV3HM8W67X4RTLL", "start_time": "1.51813853671e+12", "human_length": "10", "nodes_expanded": "999", "instance": "prb14047", "end_time": "1.51813855008e+12", "optimal_length": "7", "subject": "A1ZTSCPETU3UJW"}
{"rt": "17371.0", "trial_number": "0", "skipped": "False", "complete": "True", "assignment": "3TAYZSBPLMG9ASQRWXURJVBCPLN2SH", "start_time": "1.51813746765e+12", "human_length": "10", "nodes_expanded": "999", "instance": "prb14047", "end_time": "1.51813748502e+12", "optimal_length": "7", "subject": "A2RCYLKY072XXO"}
{"rt": "0.0", "trial_number": "0", "skipped": "False", "complete": "False", "assignment": "3SB5N7Y3O4CZODEMMAWWBTZU4C90GB", "start_time": "1.51813965138e+12", "human_length": "1", "nodes_expanded": "999", "instance": "prb14047", "end_time": "1.51813965138e+12", "optimal_length": "7", "subject": "A1RVMADIZE3BXK"}
{"rt": "0.0", "trial_number": "1", "skipped": "False", "complete": "False", "assignment": "3SB5N7Y3O4CZODEMMAWWBTZU4C90GB", "start_time": "1.51813965141e+12", "human_length": "1", "nodes_expanded": "999", "instance": "prb14047", "end_time": "1.51813965141e+12", "optimal_length": "7", "subject": "A1RVMADIZE3BXK"}
{"rt": "0.0", "trial_number": "2", "skipped": "False", "complete": "False", "assignment": "3SB5N7Y3O4CZODEMMAWWBTZU4C90GB", "start_time": "1.51813965145e+12", "human_length": "1", "nodes_expanded": "999", "instance": "prb14047", "end_time": "1.51813965145e+12", "optimal_length": "7", "subject": "A1RVMADIZE3BXK"}
{"rt": "0.0", "trial_number": "3", "skipped": "False", "complete": "False", "assignment": "3SB5N7Y3O4CZODEMMAWWBTZU4C90GB", "start_time": "1.51813965148e+12", "human_length": "1", "nodes_expanded": "999", "instance": "prb14047", "end_time": "1.51813965148e+12", "optimal_length": "7", "subject": "A1RVMADIZE3BXK"}
{"rt": "0.0", "trial_number": "4", "skipped": "False", "complete": "False", "assignment": "3SB5N7Y3O4CZODEMMAWWBTZU4C90GB", "start_time": "1.51813965155e+12", "human_length": "1", "nodes_expanded": "999", "instance": "prb14047", "end_time": "1.51813965155e+12", "optimal_length": "7", "subject": "A1RVMADIZE3BXK"}
{"rt": "849.0", "trial_number": "5", "skipped": "False", "complete": "False", "assignment": "3SB5N7Y3O4CZODEMMAWWBTZU4C90GB", "start_time": "1.51813965349e+12", "human_length": "2", "nodes_expanded": "999", "instance": "prb14047", "end_time": "1.51813965434e+12", "optimal_length": "7", "subject": "A1RVMADIZE3BXK"}
{"rt": "4216.0", "trial_number": "6", "skipped": "False", "complete": "False", "assignment": "3SB5N7Y3O4CZODEMMAWWBTZU4C90GB", "start_time": "1.51813965808e+12", "human_length": "2", "nodes_expanded": "999", "instance": "prb14047", "end_time": "1.51813966229e+12", "optimal_length": "7", "subject": "A1RVMADIZE3BXK"}
{"rt": "19078.0", "trial_number": "7", "skipped": "False", "complete": "True", "assignment": "3SB5N7Y3O4CZODEMMAWWBTZU4C90GB", "start_time": "1.51813967991e+12", "human_length": "9", "nodes_expanded": "999", "instance": "prb14047", "end_time": "1.51813969899e+12", "optimal_length": "7", "subject": "A1RVMADIZE3BXK"}
{"rt": "16335.0", "trial_number": "0", "skipped": "False", "complete": "True", "assignment": "3ZSANO2JCGFTBM23KS9Y3E51YP4FSQ", "start_time": "1.51814187528e+12", "human_length": "10", "nodes_expanded": "999", "instance": "prb14047", "end_time": "1.51814189161e+12", "optimal_length": "7", "subject": "A1F42D4L22K5ND"}
{"rt": "8748.0", "trial_number": "0", "skipped": "False", "complete": "False", "assignment": "3VE8AYVF8N5BS2NU6U3TMN50MV38FP", "start_time": "1.51814259678e+12", "human_length": "4", "nodes_expanded": "999", "instance": "prb14047", "end_time": "1.51814260553e+12", "optimal_length": "7", "subject": "A1JN13098RIE78"}
{"rt": "11702.0", "trial_number": "1", "skipped": "False", "complete": "True", "assignment": "3VE8AYVF8N5BS2NU6U3TMN50MV38FP", "start_time": "1.51814261202e+12", "human_length": "9", "nodes_expanded": "999", "instance": "prb14047", "end_time": "1.51814262372e+12", "optimal_length": "7", "subject": "A1JN13098RIE78"}
{"rt": "11246.0", "trial_number": "0", "skipped": "False", "complete": "True", "assignment": "3HWRJOOET6A15827PHPSLWK1MOYSEU", "start_time": "1.5181460149e+12", "human_length": "11", "nodes_expanded": "999", "instance": "prb14047", "end_time": "1.51814602615e+12", "optimal_length": "7", "subject": "AO1QGAUZ85T6L"}
{"rt": "52860.0", "trial_number": "0", "skipped": "False", "complete": "True", "assignment": "3XLBSAQ9Z5KDX59BX15UBFPNNHYZ7Q", "start_time": "1.518146486e+12", "human_length": "42", "nodes_expanded": "999", "instance": "prb14047", "end_time": "1.51814653886e+12", "optimal_length": "7", "subject": "A1HFNOKU591WCY"}
{"rt": "0.0", "trial_number": "0", "skipped": "False", "complete": "False", "assignment": "3EWIJTFFVPF14ZIVGF68BQEIRXP0ER", "start_time": "1.51814888644e+12", "human_length": "1", "nodes_expanded": "999", "instance": "prb14047", "end_time": "1.51814888644e+12", "optimal_length": "7", "subject": "A30AGR5KF8IEL"}
{"rt": "0.0", "trial_number": "1", "skipped": "False", "complete": "False", "assignment": "3EWIJTFFVPF14ZIVGF68BQEIRXP0ER", "start_time": "1.51814888645e+12", "human_length": "1", "nodes_expanded": "999", "instance": "prb14047", "end_time": "1.51814888645e+12", "optimal_length": "7", "subject": "A30AGR5KF8IEL"}
{"rt": "0.0", "trial_number": "2", "skipped": "False", "complete": "False", "assignment": "3EWIJTFFVPF14ZIVGF68BQEIRXP0ER", "start_time": "1.51814888646e+12", "human_length": "1", "nodes_expanded": "999", "instance": "prb14047", "end_time": "1.51814888646e+12", "optimal_length": "7", "subject": "A30AGR5KF8IEL"}
{"rt": "0.0", "trial_number": "3", "skipped": "False", "complete": "False", "assignment": "3EWIJTFFVPF14ZIVGF68BQEIRXP0ER", "start_time": "1.51814888647e+12", "human_length": "1", "nodes_expanded": "999", "instance": "prb14047", "end_time": "1.51814888647e+12", "optimal_length": "7", "subject": "A30AGR5KF8IEL"}
{"rt": "2843.0", "trial_number": "4", "skipped": "False", "complete": "False", "assignment": "3EWIJTFFVPF14ZIVGF68BQEIRXP0ER", "start_time": "1.51814888649e+12", "human_length": "2", "nodes_expanded": "999", "instance": "prb14047", "end_time": "1.51814888933e+12", "optimal_length": "7", "subject": "A30AGR5KF8IEL"}
{"rt": "11568.0", "trial_number": "5", "skipped": "False", "complete": "False", "assignment": "3EWIJTFFVPF14ZIVGF68BQEIRXP0ER", "start_time": "1.51814889294e+12", "human_length": "7", "nodes_expanded": "999", "instance": "prb14047", "end_time": "1.51814890451e+12", "optimal_length": "7", "subject": "A30AGR5KF8IEL"}
{"rt": "0.0", "trial_number": "6", "skipped": "False", "complete": "False", "assignment": "3EWIJTFFVPF14ZIVGF68BQEIRXP0ER", "start_time": "1.51814890487e+12", "human_length": "1", "nodes_expanded": "999", "instance": "prb14047", "end_time": "1.51814890487e+12", "optimal_length": "7", "subject": "A30AGR5KF8IEL"}
{"rt": "46.0", "trial_number": "7", "skipped": "False", "complete": "False", "assignment": "3EWIJTFFVPF14ZIVGF68BQEIRXP0ER", "start_time": "1.51814890571e+12", "human_length": "2", "nodes_expanded": "999", "instance": "prb14047", "end_time": "1.51814890576e+12", "optimal_length": "7", "subject": "A30AGR5KF8IEL"}
{"rt": "0.0", "trial_number": "8", "skipped": "False", "complete": "False", "assignment": "3EWIJTFFVPF14ZIVGF68BQEIRXP0ER", "start_time": "1.51814890755e+12", "human_length": "1", "nodes_expanded": "999", "instance": "prb14047", "end_time": "1.51814890755e+12", "optimal_length": "7", "subject": "A30AGR5KF8IEL"}
{"rt": "0.0", "trial_number": "9", "skipped": "False", "complete": "False", "assignment": "3EWIJTFFVPF14ZIVGF68BQEIRXP0ER", "start_time": "1.51814891281e+12", "human_length": "1", "nodes_expanded": "999", "instance": "prb14047", "end_time": "1.51814891281e+12", "optimal_length": "7", "subject": "A30AGR5KF8IEL"}
{"rt": "2359.0", "trial_number": "10", "skipped": "False", "complete": "False", "assignment": "3EWIJTFFVPF14ZIVGF68BQEIRXP0ER", "start_time": "1.51814891372e+12", "human_length": "2", "nodes_expanded": "999", "instance": "prb14047", "end_time": "1.51814891608e+12", "optimal_length": "7", "subject": "A30AGR5KF8IEL"}
{"rt": "0.0", "trial_number": "11", "skipped": "False", "complete": "False", "assignment": "3EWIJTFFVPF14ZIVGF68BQEIRXP0ER", "start_time": "1.51814891975e+12", "human_length": "1", "nodes_expanded": "999", "instance": "prb14047", "end_time": "1.51814891975e+12", "optimal_length": "7", "subject": "A30AGR5KF8IEL"}
{"rt": "0.0", "trial_number": "12", "skipped": "False", "complete": "False", "assignment": "3EWIJTFFVPF14ZIVGF68BQEIRXP0ER", "start_time": "1.51814892051e+12", "human_length": "1", "nodes_expanded": "999", "instance": "prb14047", "end_time": "1.51814892051e+12", "optimal_length": "7", "subject": "A30AGR5KF8IEL"}
{"rt": "0.0", "trial_number": "13", "skipped": "False", "complete": "False", "assignment": "3EWIJTFFVPF14ZIVGF68BQEIRXP0ER", "start_time": "1.5181489222e+12", "human_length": "1", "nodes_expanded": "999", "instance": "prb14047", "end_time": "1.5181489222e+12", "optimal_length": "7", "subject": "A30AGR5KF8IEL"}
{"rt": "0.0", "trial_number": "14", "skipped": "False", "complete": "False", "assignment": "3EWIJTFFVPF14ZIVGF68BQEIRXP0ER", "start_time": "1.51814892221e+12", "human_length": "1", "nodes_expanded": "999", "instance": "prb14047", "end_time": "1.51814892221e+12", "optimal_length": "7", "subject": "A30AGR5KF8IEL"}
{"rt": "2769.0", "trial_number": "15", "skipped": "False", "complete": "False", "assignment": "3EWIJTFFVPF14ZIVGF68BQEIRXP0ER", "start_time": "1.5181489239e+12", "human_length": "2", "nodes_expanded": "999", "instance": "prb14047", "end_time": "1.51814892666e+12", "optimal_length": "7", "subject": "A30AGR5KF8IEL"}
{"rt": "0.0", "trial_number": "16", "skipped": "False", "complete": "False", "assignment": "3EWIJTFFVPF14ZIVGF68BQEIRXP0ER", "start_time": "1.51814893432e+12", "human_length": "1", "nodes_expanded": "999", "instance": "prb14047", "end_time": "1.51814893432e+12", "optimal_length": "7", "subject": "A30AGR5KF8IEL"}
{"rt": "1535.0", "trial_number": "17", "skipped": "False", "complete": "False", "assignment": "3EWIJTFFVPF14ZIVGF68BQEIRXP0ER", "start_time": "1.51814893666e+12", "human_length": "3", "nodes_expanded": "999", "instance": "prb14047", "end_time": "1.5181489382e+12", "optimal_length": "7", "subject": "A30AGR5KF8IEL"}
{"rt": "0.0", "trial_number": "18", "skipped": "False", "complete": "False", "assignment": "3EWIJTFFVPF14ZIVGF68BQEIRXP0ER", "start_time": "1.51814894011e+12", "human_length": "1", "nodes_expanded": "999", "instance": "prb14047", "end_time": "1.51814894011e+12", "optimal_length": "7", "subject": "A30AGR5KF8IEL"}
{"rt": "0.0", "trial_number": "19", "skipped": "False", "complete": "False", "assignment": "3EWIJTFFVPF14ZIVGF68BQEIRXP0ER", "start_time": "1.51814904857e+12", "human_length": "1", "nodes_expanded": "999", "instance": "prb14047", "end_time": "1.51814904857e+12", "optimal_length": "7", "subject": "A30AGR5KF8IEL"}
{"rt": "0.0", "trial_number": "20", "skipped": "False", "complete": "False", "assignment": "3EWIJTFFVPF14ZIVGF68BQEIRXP0ER", "start_time": "1.51814904858e+12", "human_length": "1", "nodes_expanded": "999", "instance": "prb14047", "end_time": "1.51814904858e+12", "optimal_length": "7", "subject": "A30AGR5KF8IEL"}
{"rt": "0.0", "trial_number": "21", "skipped": "False", "complete": "False", "assignment": "3EWIJTFFVPF14ZIVGF68BQEIRXP0ER", "start_time": "1.51814904859e+12", "human_length": "1", "nodes_expanded": "999", "instance": "prb14047", "end_time": "1.51814904859e+12", "optimal_length": "7", "subject": "A30AGR5KF8IEL"}
{"rt": "0.0", "trial_number": "22", "skipped": "False", "complete": "False", "assignment": "3EWIJTFFVPF14ZIVGF68BQEIRXP0ER", "start_time": "1.51814904862e+12", "human_length": "1", "nodes_expanded": "999", "instance": "prb14047", "end_time": "1.51814904862e+12", "optimal_length": "7", "subject": "A30AGR5KF8IEL"}
{"rt": "141465.0", "trial_number": "23", "skipped": "False", "complete": "False", "assignment": "3EWIJTFFVPF14ZIVGF68BQEIRXP0ER", "start_time": "1.51814904864e+12", "human_length": "3", "nodes_expanded": "999", "instance": "prb14047", "end_time": "1.5181491901e+12", "optimal_length": "7", "subject": "A30AGR5KF8IEL"}
{"rt": "43932.0", "trial_number": "24", "skipped": "False", "complete": "True", "assignment": "3EWIJTFFVPF14ZIVGF68BQEIRXP0ER", "start_time": "1.51814920311e+12", "human_length": "16", "nodes_expanded": "999", "instance": "prb14047", "end_time": "1.51814924704e+12", "optimal_length": "7", "subject": "A30AGR5KF8IEL"}
{"rt": "78565.0", "trial_number": "0", "skipped": "False", "complete": "True", "assignment": "3FUI0JHJPY6UBT1VAI7VUX8S3KH33W", "start_time": "1.51815244942e+12", "human_length": "30", "nodes_expanded": "999", "instance": "prb14047", "end_time": "1.51815252799e+12", "optimal_length": "7", "subject": "A2QIZ31TMHU0GD"}
{"rt": "9137.0", "trial_number": "0", "skipped": "False", "complete": "True", "assignment": "3M0BCWMB8W4W5M7WZVX3HDH1P53WB1", "start_time": "1.51816092413e+12", "human_length": "7", "nodes_expanded": "999", "instance": "prb14047", "end_time": "1.51816093326e+12", "optimal_length": "7", "subject": "A53S7J4JGWG38"}
{"rt": "16818.0", "trial_number": "0", "skipped": "False", "complete": "True", "assignment": "3SITXWYCNWHBUMCM90TPJWV8Y7AXBW", "start_time": "1.51816550373e+12", "human_length": "8", "nodes_expanded": "999", "instance": "prb14047", "end_time": "1.51816552055e+12", "optimal_length": "7", "subject": "A28RX7L0QZ993M"}
{"rt": "8886.0", "trial_number": "0", "skipped": "False", "complete": "True", "assignment": "3IXEICO793RY7TM78ZBKJDOA7ADT6Q", "start_time": "1.51816953628e+12", "human_length": "9", "nodes_expanded": "999", "instance": "prb14047", "end_time": "1.51816954517e+12", "optimal_length": "7", "subject": "ALH1K6ZAQQMN7"}
