{"rt": "29321.0", "trial_number": "0", "skipped": "False", "complete": "False", "assignment": "30IQTZXKALEAAZ9CBKW0ZFZP6O5X07", "start_time": "1.51793931206e+12", "human_length": "5", "nodes_expanded": "999", "instance": "prb19279", "end_time": "1.51793934138e+12", "optimal_length": "14", "subject": "A10YS8AVLQWUZZ"}
{"rt": "43161.0", "trial_number": "1", "skipped": "False", "complete": "True", "assignment": "30IQTZXKALEAAZ9CBKW0ZFZP6O5X07", "start_time": "1.51793934795e+12", "human_length": "16", "nodes_expanded": "999", "instance": "prb19279", "end_time": "1.51793939111e+12", "optimal_length": "14", "subject": "A10YS8AVLQWUZZ"}
{"rt": "34223.0", "trial_number": "0", "skipped": "False", "complete": "True", "assignment": "3TYCR1GOTDRCCQYD1V64UK7OHTBZLQ", "start_time": "1.51753537882e+12", "human_length": "28", "nodes_expanded": "999", "instance": "prb19279", "end_time": "1.51753541305e+12", "optimal_length": "14", "subject": "A13BZCNJ0WR1T7"}
{"rt": "16332.0", "trial_number": "0", "skipped": "False", "complete": "False", "assignment": "3VE8AYVF8N5BS2NU6U3TMN50JMNF8V", "start_time": "1.51673626128e+12", "human_length": "10", "nodes_expanded": "999", "instance": "prb19279", "end_time": "1.51673627762e+12", "optimal_length": "14", "subject": "A18QU0YQB6Q8DF"}
{"rt": "33207.0", "trial_number": "1", "skipped": "False", "complete": "False", "assignment": "3VE8AYVF8N5BS2NU6U3TMN50JMNF8V", "start_time": "1.51673628081e+12", "human_length": "14", "nodes_expanded": "999", "instance": "prb19279", "end_time": "1.51673631402e+12", "optimal_length": "14", "subject": "A18QU0YQB6Q8DF"}
{"rt": "0.0", "trial_number": "2", "skipped": "False", "complete": "False", "assignment": "3VE8AYVF8N5BS2NU6U3TMN50JMNF8V", "start_time": "1.51673631841e+12", "human_length": "1", "nodes_expanded": "999", "instance": "prb19279", "end_time": "1.51673631841e+12", "optimal_length": "14", "subject": "A18QU0YQB6Q8DF"}
{"rt": "0.0", "trial_number": "3", "skipped": "False", "complete": "False", "assignment": "3VE8AYVF8N5BS2NU6U3TMN50JMNF8V", "start_time": "1.51673626128e+12", "human_length": "1", "nodes_expanded": "999", "instance": "prb19279", "end_time": "1.51673626128e+12", "optimal_length": "14", "subject": "A18QU0YQB6Q8DF"}
{"rt": "0.0", "trial_number": "4", "skipped": "False", "complete": "False", "assignment": "3VE8AYVF8N5BS2NU6U3TMN50JMNF8V", "start_time": "1.51673628081e+12", "human_length": "1", "nodes_expanded": "999", "instance": "prb19279", "end_time": "1.51673628081e+12", "optimal_length": "14", "subject": "A18QU0YQB6Q8DF"}
{"rt": "0.0", "trial_number": "5", "skipped": "False", "complete": "False", "assignment": "3VE8AYVF8N5BS2NU6U3TMN50JMNF8V", "start_time": "1.51673631841e+12", "human_length": "1", "nodes_expanded": "999", "instance": "prb19279", "end_time": "1.51673631841e+12", "optimal_length": "14", "subject": "A18QU0YQB6Q8DF"}
{"rt": "0.0", "trial_number": "6", "skipped": "False", "complete": "False", "assignment": "3VE8AYVF8N5BS2NU6U3TMN50JMNF8V", "start_time": "1.51673626128e+12", "human_length": "1", "nodes_expanded": "999", "instance": "prb19279", "end_time": "1.51673626128e+12", "optimal_length": "14", "subject": "A18QU0YQB6Q8DF"}
{"rt": "0.0", "trial_number": "7", "skipped": "False", "complete": "False", "assignment": "3VE8AYVF8N5BS2NU6U3TMN50JMNF8V", "start_time": "1.51673628081e+12", "human_length": "1", "nodes_expanded": "999", "instance": "prb19279", "end_time": "1.51673628081e+12", "optimal_length": "14", "subject": "A18QU0YQB6Q8DF"}
{"rt": "17167.0", "trial_number": "8", "skipped": "True", "complete": "False", "assignment": "3VE8AYVF8N5BS2NU6U3TMN50JMNF8V", "start_time": "1.51673631841e+12", "human_length": "47", "nodes_expanded": "999", "instance": "prb19279", "end_time": "1.51673633557e+12", "optimal_length": "14", "subject": "A18QU0YQB6Q8DF"}
{"rt": "16332.0", "trial_number": "0", "skipped": "False", "complete": "False", "assignment": "3VE8AYVF8N5BS2NU6U3TMN50JMNF8V", "start_time": "1.51673626128e+12", "human_length": "10", "nodes_expanded": "999", "instance": "prb19279", "end_time": "1.51673627762e+12", "optimal_length": "14", "subject": "A18QU0YQB6Q8DF"}
{"rt": "33207.0", "trial_number": "1", "skipped": "False", "complete": "False", "assignment": "3VE8AYVF8N5BS2NU6U3TMN50JMNF8V", "start_time": "1.51673628081e+12", "human_length": "14", "nodes_expanded": "999", "instance": "prb19279", "end_time": "1.51673631402e+12", "optimal_length": "14", "subject": "A18QU0YQB6Q8DF"}
{"rt": "26198.0", "trial_number": "2", "skipped": "True", "complete": "False", "assignment": "3VE8AYVF8N5BS2NU6U3TMN50JMNF8V", "start_time": "1.51673631841e+12", "human_length": "9", "nodes_expanded": "999", "instance": "prb19279", "end_time": "1.51673634460e+12", "optimal_length": "14", "subject": "A18QU0YQB6Q8DF"}
{"rt": "24643.0", "trial_number": "0", "skipped": "False", "complete": "True", "assignment": "3IJXV6UZ1YR1KY4G6BFEG1DXR47RIC", "start_time": "1.51797163473e+12", "human_length": "25", "nodes_expanded": "999", "instance": "prb19279", "end_time": "1.51797165937e+12", "optimal_length": "14", "subject": "A18T3WK7J16C1B"}
{"rt": "22703.0", "trial_number": "0", "skipped": "False", "complete": "True", "assignment": "3PMBY0YE28B43VMUKKJ6EDF85RV9C8", "start_time": "1.51638775223e+12", "human_length": "21", "nodes_expanded": "999", "instance": "prb19279", "end_time": "1.51638777493e+12", "optimal_length": "14", "subject": "A191V7PT3DQKDP"}
{"rt": "20933.0", "trial_number": "0", "skipped": "False", "complete": "True", "assignment": "3ZSANO2JCGFTBM23KS9Y3E51YP4FSQ", "start_time": "1.51814351867e+12", "human_length": "21", "nodes_expanded": "999", "instance": "prb19279", "end_time": "1.5181435396e+12", "optimal_length": "14", "subject": "A1F42D4L22K5ND"}
{"rt": "77460.0", "trial_number": "0", "skipped": "False", "complete": "True", "assignment": "3TS1AR6UQRM7SOIBWPBN8N9589Y7FV", "start_time": "1.51683850296e+12", "human_length": "50", "nodes_expanded": "999", "instance": "prb19279", "end_time": "1.51683858042e+12", "optimal_length": "14", "subject": "A1F4N58CAX8IMK"}
{"rt": "23861.0", "trial_number": "1", "skipped": "False", "complete": "True", "assignment": "35DR22AR5ES6RR89U7EJ1DXW91AX3P", "start_time": "1.51795417736e+12", "human_length": "29", "nodes_expanded": "999", "instance": "prb19279", "end_time": "1.51795420122e+12", "optimal_length": "14", "subject": "A1F4N58CAX8IMK"}
{"rt": "63778.0", "trial_number": "0", "skipped": "False", "complete": "True", "assignment": "33F859I567LE8WC74WB3GA7E94XBHW", "start_time": "1.51797056019e+12", "human_length": "47", "nodes_expanded": "999", "instance": "prb19279", "end_time": "1.51797062397e+12", "optimal_length": "14", "subject": "A1GQS6USF2JEYG"}
{"rt": "21494.0", "trial_number": "0", "skipped": "False", "complete": "True", "assignment": "3XLBSAQ9Z5KDX59BX15UBFPNNHYZ7Q", "start_time": "1.51814684624e+12", "human_length": "18", "nodes_expanded": "999", "instance": "prb19279", "end_time": "1.51814686773e+12", "optimal_length": "14", "subject": "A1HFNOKU591WCY"}
{"rt": "17625.0", "trial_number": "0", "skipped": "False", "complete": "True", "assignment": "3FTF2T8WLSQDHTSZ1BJ7Q7MB14SW9H", "start_time": "1.51813757534e+12", "human_length": "14", "nodes_expanded": "999", "instance": "prb19279", "end_time": "1.51813759297e+12", "optimal_length": "14", "subject": "A1IUH9D7N69VS"}
{"rt": "22206.0", "trial_number": "0", "skipped": "False", "complete": "True", "assignment": "3VE8AYVF8N5BS2NU6U3TMN50MV38FP", "start_time": "1.51814265713e+12", "human_length": "14", "nodes_expanded": "999", "instance": "prb19279", "end_time": "1.51814267934e+12", "optimal_length": "14", "subject": "A1JN13098RIE78"}
{"rt": "0.0", "trial_number": "0", "skipped": "False", "complete": "False", "assignment": "3YW4XOSQKRTI0K0Z2YPDTDJVFABU1I", "start_time": "1.51683032878e+12", "human_length": "1", "nodes_expanded": "999", "instance": "prb19279", "end_time": "1.51683032878e+12", "optimal_length": "14", "subject": "A1LR0VQIHQUJAM"}
{"rt": "28436.0", "trial_number": "1", "skipped": "False", "complete": "True", "assignment": "3YW4XOSQKRTI0K0Z2YPDTDJVFABU1I", "start_time": "1.51683032878e+12", "human_length": "24", "nodes_expanded": "999", "instance": "prb19279", "end_time": "1.51683035721e+12", "optimal_length": "14", "subject": "A1LR0VQIHQUJAM"}
{"rt": "26477.0", "trial_number": "0", "skipped": "False", "complete": "True", "assignment": "3R5F3LQFV3SKIB1AENMWM1BICT5OZB", "start_time": "1.51795865775e+12", "human_length": "21", "nodes_expanded": "999", "instance": "prb19279", "end_time": "1.51795868423e+12", "optimal_length": "14", "subject": "A1N1EF0MIRSEZZ"}
{"rt": "22078.0", "trial_number": "0", "skipped": "False", "complete": "False", "assignment": "31LM9EDVOM0C0BWUVMJXJINN3QPJNI", "start_time": "1.51752285932e+12", "human_length": "10", "nodes_expanded": "999", "instance": "prb19279", "end_time": "1.5175228814e+12", "optimal_length": "14", "subject": "A1NT8BT94ME6F5"}
{"rt": "33237.0", "trial_number": "1", "skipped": "False", "complete": "False", "assignment": "31LM9EDVOM0C0BWUVMJXJINN3QPJNI", "start_time": "1.51752288393e+12", "human_length": "18", "nodes_expanded": "999", "instance": "prb19279", "end_time": "1.51752291717e+12", "optimal_length": "14", "subject": "A1NT8BT94ME6F5"}
{"rt": "74794.0", "trial_number": "2", "skipped": "False", "complete": "True", "assignment": "31LM9EDVOM0C0BWUVMJXJINN3QPJNI", "start_time": "1.51752291798e+12", "human_length": "27", "nodes_expanded": "999", "instance": "prb19279", "end_time": "1.51752299277e+12", "optimal_length": "14", "subject": "A1NT8BT94ME6F5"}
{"rt": "27705.0", "trial_number": "0", "skipped": "False", "complete": "True", "assignment": "3PB5A5BD0WED6OE679H5Q89HBDGG71", "start_time": "1.51795271740e+12", "human_length": "23", "nodes_expanded": "999", "instance": "prb19279", "end_time": "1.51795274511e+12", "optimal_length": "14", "subject": "A1USR9JCAMDGM3"}
{"rt": "70371.0", "trial_number": "0", "skipped": "True", "complete": "False", "assignment": "3XC1O3LBOTUGQEPEV3HM8W67X4RTLL", "start_time": "1.51813795146e+12", "human_length": "37", "nodes_expanded": "999", "instance": "prb19279", "end_time": "1.51813802183e+12", "optimal_length": "14", "subject": "A1ZTSCPETU3UJW"}
{"rt": "20320.0", "trial_number": "0", "skipped": "False", "complete": "True", "assignment": "34BBWHLWHBJ6SUL255PK30LEGY5IWG", "start_time": "1.51639099531e+12", "human_length": "14", "nodes_expanded": "999", "instance": "prb19279", "end_time": "1.51639101563e+12", "optimal_length": "14", "subject": "A214HWAW1PYWO8"}
{"rt": "20648.0", "trial_number": "0", "skipped": "False", "complete": "False", "assignment": "3X87C8JFV7JQ2BSCY8KSFD9F2ILSQK", "start_time": "1.51674438631e+12", "human_length": "10", "nodes_expanded": "999", "instance": "prb19279", "end_time": "1.51674440695e+12", "optimal_length": "14", "subject": "A21S7MA9DCW95E"}
{"rt": "0.0", "trial_number": "1", "skipped": "False", "complete": "False", "assignment": "3X87C8JFV7JQ2BSCY8KSFD9F2ILSQK", "start_time": "1.51674441096e+12", "human_length": "1", "nodes_expanded": "999", "instance": "prb19279", "end_time": "1.51674441096e+12", "optimal_length": "14", "subject": "A21S7MA9DCW95E"}
{"rt": "0.0", "trial_number": "2", "skipped": "False", "complete": "False", "assignment": "3X87C8JFV7JQ2BSCY8KSFD9F2ILSQK", "start_time": "1.51674438631e+12", "human_length": "1", "nodes_expanded": "999", "instance": "prb19279", "end_time": "1.51674438631e+12", "optimal_length": "14", "subject": "A21S7MA9DCW95E"}
{"rt": "0.0", "trial_number": "3", "skipped": "False", "complete": "False", "assignment": "3X87C8JFV7JQ2BSCY8KSFD9F2ILSQK", "start_time": "1.51674441096e+12", "human_length": "1", "nodes_expanded": "999", "instance": "prb19279", "end_time": "1.51674441096e+12", "optimal_length": "14", "subject": "A21S7MA9DCW95E"}
{"rt": "0.0", "trial_number": "4", "skipped": "False", "complete": "False", "assignment": "3X87C8JFV7JQ2BSCY8KSFD9F2ILSQK", "start_time": "1.51674438631e+12", "human_length": "1", "nodes_expanded": "999", "instance": "prb19279", "end_time": "1.51674438631e+12", "optimal_length": "14", "subject": "A21S7MA9DCW95E"}
{"rt": "33781.0", "trial_number": "5", "skipped": "False", "complete": "True", "assignment": "3X87C8JFV7JQ2BSCY8KSFD9F2ILSQK", "start_time": "1.51674441096e+12", "human_length": "22", "nodes_expanded": "999", "instance": "prb19279", "end_time": "1.51674444474e+12", "optimal_length": "14", "subject": "A21S7MA9DCW95E"}
{"rt": "20648.0", "trial_number": "0", "skipped": "False", "complete": "False", "assignment": "3X87C8JFV7JQ2BSCY8KSFD9F2ILSQK", "start_time": "1.51674438631e+12", "human_length": "10", "nodes_expanded": "999", "instance": "prb19279", "end_time": "1.51674440695e+12", "optimal_length": "14", "subject": "A21S7MA9DCW95E"}
{"rt": "33781.0", "trial_number": "1", "skipped": "False", "complete": "True", "assignment": "3X87C8JFV7JQ2BSCY8KSFD9F2ILSQK", "start_time": "1.51674441096e+12", "human_length": "22", "nodes_expanded": "999", "instance": "prb19279", "end_time": "1.51674444474e+12", "optimal_length": "14", "subject": "A21S7MA9DCW95E"}
{"rt": "0.0", "trial_number": "0", "skipped": "False", "complete": "False", "assignment": "3IHR8NYAM89M0EPM8U9LH53ZJDTP4U", "start_time": "1.5168260212e+12", "human_length": "1", "nodes_expanded": "999", "instance": "prb19279", "end_time": "1.5168260212e+12", "optimal_length": "14", "subject": "A23437BMZ5T1FH"}
{"rt": "14567.0", "trial_number": "1", "skipped": "True", "complete": "False", "assignment": "3IHR8NYAM89M0EPM8U9LH53ZJDTP4U", "start_time": "1.5168260212e+12", "human_length": "18", "nodes_expanded": "999", "instance": "prb19279", "end_time": "1.51682603577e+12", "optimal_length": "14", "subject": "A23437BMZ5T1FH"}
{"rt": "33067.0", "trial_number": "0", "skipped": "False", "complete": "True", "assignment": "3ZV9H2YQQEFR2R3JK2IXZUJPXAF3WW", "start_time": "1.51630727131e+12", "human_length": "21", "nodes_expanded": "999", "instance": "prb19279", "end_time": "1.51630730438e+12", "optimal_length": "14", "subject": "A289D98Z4GAZ28"}
{"rt": "109299.0", "trial_number": "0", "skipped": "False", "complete": "True", "assignment": "3SITXWYCNWHBUMCM90TPJWV8Y7AXBW", "start_time": "1.5181649579e+12", "human_length": "27", "nodes_expanded": "999", "instance": "prb19279", "end_time": "1.5181650672e+12", "optimal_length": "14", "subject": "A28RX7L0QZ993M"}
{"rt": "32512.0", "trial_number": "0", "skipped": "False", "complete": "False", "assignment": "3X4MXAO0BHWJLTOLVSJTHSM54OHWRG", "start_time": "1.51682312871e+12", "human_length": "19", "nodes_expanded": "999", "instance": "prb19279", "end_time": "1.51682316123e+12", "optimal_length": "14", "subject": "A2IBQA01NR5N76"}
{"rt": "0.0", "trial_number": "1", "skipped": "False", "complete": "False", "assignment": "3X4MXAO0BHWJLTOLVSJTHSM54OHWRG", "start_time": "1.51682316371e+12", "human_length": "1", "nodes_expanded": "999", "instance": "prb19279", "end_time": "1.51682316371e+12", "optimal_length": "14", "subject": "A2IBQA01NR5N76"}
{"rt": "0.0", "trial_number": "2", "skipped": "False", "complete": "False", "assignment": "3X4MXAO0BHWJLTOLVSJTHSM54OHWRG", "start_time": "1.51682312871e+12", "human_length": "1", "nodes_expanded": "999", "instance": "prb19279", "end_time": "1.51682312871e+12", "optimal_length": "14", "subject": "A2IBQA01NR5N76"}
{"rt": "52981.0", "trial_number": "3", "skipped": "False", "complete": "True", "assignment": "3X4MXAO0BHWJLTOLVSJTHSM54OHWRG", "start_time": "1.51682316371e+12", "human_length": "31", "nodes_expanded": "999", "instance": "prb19279", "end_time": "1.5168232167e+12", "optimal_length": "14", "subject": "A2IBQA01NR5N76"}
{"rt": "32512.0", "trial_number": "0", "skipped": "False", "complete": "False", "assignment": "3X4MXAO0BHWJLTOLVSJTHSM54OHWRG", "start_time": "1.51682312871e+12", "human_length": "19", "nodes_expanded": "999", "instance": "prb19279", "end_time": "1.51682316123e+12", "optimal_length": "14", "subject": "A2IBQA01NR5N76"}
{"rt": "52981.0", "trial_number": "1", "skipped": "False", "complete": "True", "assignment": "3X4MXAO0BHWJLTOLVSJTHSM54OHWRG", "start_time": "1.51682316371e+12", "human_length": "31", "nodes_expanded": "999", "instance": "prb19279", "end_time": "1.5168232167e+12", "optimal_length": "14", "subject": "A2IBQA01NR5N76"}
{"rt": "77973.0", "trial_number": "0", "skipped": "False", "complete": "True", "assignment": "3FUI0JHJPY6UBT1VAI7VUX8S3KH33W", "start_time": "1.51815045056e+12", "human_length": "39", "nodes_expanded": "999", "instance": "prb19279", "end_time": "1.51815052853e+12", "optimal_length": "14", "subject": "A2QIZ31TMHU0GD"}
{"rt": "47664.0", "trial_number": "0", "skipped": "False", "complete": "True", "assignment": "3TAYZSBPLMG9ASQRWXURJVBCPLN2SH", "start_time": "1.51813669535e+12", "human_length": "32", "nodes_expanded": "999", "instance": "prb19279", "end_time": "1.51813674301e+12", "optimal_length": "14", "subject": "A2RCYLKY072XXO"}
{"rt": "0.0", "trial_number": "0", "skipped": "False", "complete": "False", "assignment": "3IJXV6UZ1YR1KY4G6BFEG1DXP7SRI1", "start_time": "1.51675199022e+12", "human_length": "1", "nodes_expanded": "999", "instance": "prb19279", "end_time": "1.51675199022e+12", "optimal_length": "14", "subject": "A2RTJ6BDY0DZVZ"}
{"rt": "0.0", "trial_number": "1", "skipped": "False", "complete": "False", "assignment": "3IJXV6UZ1YR1KY4G6BFEG1DXP7SRI1", "start_time": "1.51675199022e+12", "human_length": "1", "nodes_expanded": "999", "instance": "prb19279", "end_time": "1.51675199022e+12", "optimal_length": "14", "subject": "A2RTJ6BDY0DZVZ"}
{"rt": "29283.0", "trial_number": "2", "skipped": "False", "complete": "True", "assignment": "3IJXV6UZ1YR1KY4G6BFEG1DXP7SRI1", "start_time": "1.51675199022e+12", "human_length": "21", "nodes_expanded": "999", "instance": "prb19279", "end_time": "1.51675201951e+12", "optimal_length": "14", "subject": "A2RTJ6BDY0DZVZ"}
{"rt": "29283.0", "trial_number": "0", "skipped": "False", "complete": "True", "assignment": "3IJXV6UZ1YR1KY4G6BFEG1DXP7SRI1", "start_time": "1.51675199022e+12", "human_length": "21", "nodes_expanded": "999", "instance": "prb19279", "end_time": "1.51675201951e+12", "optimal_length": "14", "subject": "A2RTJ6BDY0DZVZ"}
{"rt": "0.0", "trial_number": "0", "skipped": "False", "complete": "False", "assignment": "3WSELTNVR4AZUVYAYCSWZIQW0J4ATB", "start_time": "1.51673792481e+12", "human_length": "1", "nodes_expanded": "999", "instance": "prb19279", "end_time": "1.51673792481e+12", "optimal_length": "14", "subject": "A2TQNX64349OZ9"}
{"rt": "0.0", "trial_number": "1", "skipped": "False", "complete": "False", "assignment": "3WSELTNVR4AZUVYAYCSWZIQW0J4ATB", "start_time": "1.51673792481e+12", "human_length": "1", "nodes_expanded": "999", "instance": "prb19279", "end_time": "1.51673792481e+12", "optimal_length": "14", "subject": "A2TQNX64349OZ9"}
{"rt": "29124.0", "trial_number": "2", "skipped": "False", "complete": "True", "assignment": "3WSELTNVR4AZUVYAYCSWZIQW0J4ATB", "start_time": "1.51673792481e+12", "human_length": "29", "nodes_expanded": "999", "instance": "prb19279", "end_time": "1.51673795393e+12", "optimal_length": "14", "subject": "A2TQNX64349OZ9"}
{"rt": "29124.0", "trial_number": "0", "skipped": "False", "complete": "True", "assignment": "3WSELTNVR4AZUVYAYCSWZIQW0J4ATB", "start_time": "1.51673792481e+12", "human_length": "29", "nodes_expanded": "999", "instance": "prb19279", "end_time": "1.51673795393e+12", "optimal_length": "14", "subject": "A2TQNX64349OZ9"}
{"rt": "41374.0", "trial_number": "0", "skipped": "False", "complete": "True", "assignment": "37TD41K0AIHM8AITTQJXV8KY05QCSB", "start_time": "1.51752444793e+12", "human_length": "19", "nodes_expanded": "999", "instance": "prb19279", "end_time": "1.5175244893e+12", "optimal_length": "14", "subject": "A30KYQGABO7JER"}
{"rt": "56202.0", "trial_number": "0", "skipped": "False", "complete": "True", "assignment": "34HJIJKLP64Z5YMIU6IKNXSH7PDV4I", "start_time": "1.51794109518e+12", "human_length": "27", "nodes_expanded": "999", "instance": "prb19279", "end_time": "1.51794115138e+12", "optimal_length": "14", "subject": "A3CTXNQ2GXIQSP"}
{"rt": "23864.0", "trial_number": "0", "skipped": "False", "complete": "True", "assignment": "3TPWUS5F8A9FFRZ2DVTYSXNJ6BWWC6", "start_time": "1.51794159802e+12", "human_length": "16", "nodes_expanded": "999", "instance": "prb19279", "end_time": "1.51794162188e+12", "optimal_length": "14", "subject": "A3GXC3VG37CQ3G"}
{"rt": "6826.0", "trial_number": "0", "skipped": "False", "complete": "False", "assignment": "3STRJBFXOXZ5687WA35LTWTS7QZKTT", "start_time": "1.51794594354e+12", "human_length": "6", "nodes_expanded": "999", "instance": "prb19279", "end_time": "1.51794595037e+12", "optimal_length": "14", "subject": "A3OB6REG5CGHK1"}
{"rt": "20849.0", "trial_number": "1", "skipped": "False", "complete": "False", "assignment": "3STRJBFXOXZ5687WA35LTWTS7QZKTT", "start_time": "1.5179459514e+12", "human_length": "8", "nodes_expanded": "999", "instance": "prb19279", "end_time": "1.51794597225e+12", "optimal_length": "14", "subject": "A3OB6REG5CGHK1"}
{"rt": "12447.0", "trial_number": "2", "skipped": "False", "complete": "False", "assignment": "3STRJBFXOXZ5687WA35LTWTS7QZKTT", "start_time": "1.51794597399e+12", "human_length": "6", "nodes_expanded": "999", "instance": "prb19279", "end_time": "1.51794598643e+12", "optimal_length": "14", "subject": "A3OB6REG5CGHK1"}
{"rt": "19754.0", "trial_number": "3", "skipped": "False", "complete": "True", "assignment": "3STRJBFXOXZ5687WA35LTWTS7QZKTT", "start_time": "1.51794598785e+12", "human_length": "16", "nodes_expanded": "999", "instance": "prb19279", "end_time": "1.5179460076e+12", "optimal_length": "14", "subject": "A3OB6REG5CGHK1"}
{"rt": "0.0", "trial_number": "0", "skipped": "False", "complete": "False", "assignment": "3X87C8JFV7JQ2BSCY8KSFD9F2ILSQK", "start_time": "1.51674109288e+12", "human_length": "1", "nodes_expanded": "999", "instance": "prb19279", "end_time": "1.51674109288e+12", "optimal_length": "14", "subject": "A3Q0XAGQ7TD7MP"}
{"rt": "0.0", "trial_number": "1", "skipped": "False", "complete": "False", "assignment": "3X87C8JFV7JQ2BSCY8KSFD9F2ILSQK", "start_time": "1.51674109288e+12", "human_length": "1", "nodes_expanded": "999", "instance": "prb19279", "end_time": "1.51674109288e+12", "optimal_length": "14", "subject": "A3Q0XAGQ7TD7MP"}
{"rt": "32001.0", "trial_number": "2", "skipped": "False", "complete": "True", "assignment": "3X87C8JFV7JQ2BSCY8KSFD9F2ILSQK", "start_time": "1.51674109288e+12", "human_length": "18", "nodes_expanded": "999", "instance": "prb19279", "end_time": "1.51674112488e+12", "optimal_length": "14", "subject": "A3Q0XAGQ7TD7MP"}
{"rt": "40458.0", "trial_number": "3", "skipped": "False", "complete": "True", "assignment": "3GLB5JMZFY3TNXFGYMKRQ0JDXNTDGZ", "start_time": "1.51794824552e+12", "human_length": "20", "nodes_expanded": "999", "instance": "prb19279", "end_time": "1.51794828597e+12", "optimal_length": "14", "subject": "A3Q0XAGQ7TD7MP"}
{"rt": "32001.0", "trial_number": "0", "skipped": "False", "complete": "True", "assignment": "3X87C8JFV7JQ2BSCY8KSFD9F2ILSQK", "start_time": "1.51674109288e+12", "human_length": "18", "nodes_expanded": "999", "instance": "prb19279", "end_time": "1.51674112488e+12", "optimal_length": "14", "subject": "A3Q0XAGQ7TD7MP"}
{"rt": "40458.0", "trial_number": "1", "skipped": "False", "complete": "True", "assignment": "3GLB5JMZFY3TNXFGYMKRQ0JDXNTDGZ", "start_time": "1.51794824552e+12", "human_length": "20", "nodes_expanded": "999", "instance": "prb19279", "end_time": "1.51794828597e+12", "optimal_length": "14", "subject": "A3Q0XAGQ7TD7MP"}
{"rt": "57275.0", "trial_number": "0", "skipped": "False", "complete": "False", "assignment": "34HJIJKLP64Z5YMIU6IKNXSH7WMV45", "start_time": "1.51753804286e+12", "human_length": "11", "nodes_expanded": "999", "instance": "prb19279", "end_time": "1.51753810013e+12", "optimal_length": "14", "subject": "A3U74S280Z4B0"}
{"rt": "17083.0", "trial_number": "1", "skipped": "True", "complete": "False", "assignment": "34HJIJKLP64Z5YMIU6IKNXSH7WMV45", "start_time": "1.51753810553e+12", "human_length": "3", "nodes_expanded": "999", "instance": "prb19279", "end_time": "1.51753812262e+12", "optimal_length": "14", "subject": "A3U74S280Z4B0"}
{"rt": "39716.0", "trial_number": "0", "skipped": "False", "complete": "True", "assignment": "3M0BCWMB8W4W5M7WZVX3HDH1P53WB1", "start_time": "1.51816063911e+12", "human_length": "27", "nodes_expanded": "999", "instance": "prb19279", "end_time": "1.51816067882e+12", "optimal_length": "14", "subject": "A53S7J4JGWG38"}
{"rt": "0.0", "trial_number": "0", "skipped": "False", "complete": "False", "assignment": "3IJXV6UZ1YR1KY4G6BFEG1DXP7SRI1", "start_time": "1.51674006384e+12", "human_length": "1", "nodes_expanded": "999", "instance": "prb19279", "end_time": "1.51674006384e+12", "optimal_length": "14", "subject": "AEXF5EUX32U0M"}
{"rt": "0.0", "trial_number": "1", "skipped": "False", "complete": "False", "assignment": "3IJXV6UZ1YR1KY4G6BFEG1DXP7SRI1", "start_time": "1.51674006384e+12", "human_length": "1", "nodes_expanded": "999", "instance": "prb19279", "end_time": "1.51674006384e+12", "optimal_length": "14", "subject": "AEXF5EUX32U0M"}
{"rt": "41090.0", "trial_number": "2", "skipped": "False", "complete": "True", "assignment": "3IJXV6UZ1YR1KY4G6BFEG1DXP7SRI1", "start_time": "1.51674006384e+12", "human_length": "28", "nodes_expanded": "999", "instance": "prb19279", "end_time": "1.51674010493e+12", "optimal_length": "14", "subject": "AEXF5EUX32U0M"}
{"rt": "41090.0", "trial_number": "0", "skipped": "False", "complete": "True", "assignment": "3IJXV6UZ1YR1KY4G6BFEG1DXP7SRI1", "start_time": "1.51674006384e+12", "human_length": "28", "nodes_expanded": "999", "instance": "prb19279", "end_time": "1.51674010493e+12", "optimal_length": "14", "subject": "AEXF5EUX32U0M"}
{"rt": "28348.0", "trial_number": "0", "skipped": "False", "complete": "True", "assignment": "3IXEICO793RY7TM78ZBKJDOA7ADT6Q", "start_time": "1.51816890456e+12", "human_length": "27", "nodes_expanded": "999", "instance": "prb19279", "end_time": "1.51816893291e+12", "optimal_length": "14", "subject": "ALH1K6ZAQQMN7"}
{"rt": "32267.0", "trial_number": "0", "skipped": "False", "complete": "True", "assignment": "37QW5D2ZRHUKW7SGCE3STMOFBMK8SX", "start_time": "1.51815741245e+12", "human_length": "23", "nodes_expanded": "999", "instance": "prb19279", "end_time": "1.51815744472e+12", "optimal_length": "14", "subject": "AMW2XLD9443OH"}
{"rt": "45938.0", "trial_number": "0", "skipped": "False", "complete": "True", "assignment": "33PPO7FECWN7JOLBOAKUBCWTC0AIDL", "start_time": "1.51794984406e+12", "human_length": "18", "nodes_expanded": "999", "instance": "prb19279", "end_time": "1.51794989e+12", "optimal_length": "14", "subject": "AXKM02NVXNGOM"}
