{"rt": "16541.0", "trial_number": "0", "skipped": "False", "complete": "True", "assignment": "3TYCR1GOTDRCCQYD1V64UK7OHTBZLQ", "start_time": "1.51753759316e+12", "human_length": "14", "nodes_expanded": "999", "instance": "prb23259", "end_time": "1.5175376097e+12", "optimal_length": "7", "subject": "A13BZCNJ0WR1T7"}
{"rt": "0.0", "trial_number": "0", "skipped": "False", "complete": "False", "assignment": "3YW4XOSQKRTI0K0Z2YPDTDJVFABU1I", "start_time": "1.51682515524e+12", "human_length": "1", "nodes_expanded": "999", "instance": "prb23259", "end_time": "1.51682515524e+12", "optimal_length": "7", "subject": "A15781PHGW377Y"}
{"rt": "23249.0", "trial_number": "1", "skipped": "False", "complete": "True", "assignment": "3YW4XOSQKRTI0K0Z2YPDTDJVFABU1I", "start_time": "1.51682515524e+12", "human_length": "10", "nodes_expanded": "999", "instance": "prb23259", "end_time": "1.51682517849e+12", "optimal_length": "7", "subject": "A15781PHGW377Y"}
{"rt": "23249.0", "trial_number": "0", "skipped": "False", "complete": "True", "assignment": "3YW4XOSQKRTI0K0Z2YPDTDJVFABU1I", "start_time": "1.51682515524e+12", "human_length": "10", "nodes_expanded": "999", "instance": "prb23259", "end_time": "1.51682517849e+12", "optimal_length": "7", "subject": "A15781PHGW377Y"}
{"rt": "37283.0", "trial_number": "0", "skipped": "False", "complete": "True", "assignment": "3TS1AR6UQRM7SOIBWPBN8N9589Y7FV", "start_time": "1.51684128865e+12", "human_length": "9", "nodes_expanded": "999", "instance": "prb23259", "end_time": "1.51684132593e+12", "optimal_length": "7", "subject": "A15FXHC1CVNW31"}
{"rt": "0.0", "trial_number": "0", "skipped": "False", "complete": "False", "assignment": "3VE8AYVF8N5BS2NU6U3TMN50JMNF8V", "start_time": "1.51673552111e+12", "human_length": "1", "nodes_expanded": "999", "instance": "prb23259", "end_time": "1.51673552111e+12", "optimal_length": "7", "subject": "A18QU0YQB6Q8DF"}
{"rt": "0.0", "trial_number": "1", "skipped": "False", "complete": "False", "assignment": "3VE8AYVF8N5BS2NU6U3TMN50JMNF8V", "start_time": "1.51673552111e+12", "human_length": "1", "nodes_expanded": "999", "instance": "prb23259", "end_time": "1.51673552111e+12", "optimal_length": "7", "subject": "A18QU0YQB6Q8DF"}
{"rt": "16343.0", "trial_number": "2", "skipped": "False", "complete": "True", "assignment": "3VE8AYVF8N5BS2NU6U3TMN50JMNF8V", "start_time": "1.51673552111e+12", "human_length": "8", "nodes_expanded": "999", "instance": "prb23259", "end_time": "1.51673553746e+12", "optimal_length": "7", "subject": "A18QU0YQB6Q8DF"}
{"rt": "16343.0", "trial_number": "0", "skipped": "False", "complete": "True", "assignment": "3VE8AYVF8N5BS2NU6U3TMN50JMNF8V", "start_time": "1.51673552111e+12", "human_length": "8", "nodes_expanded": "999", "instance": "prb23259", "end_time": "1.51673553746e+12", "optimal_length": "7", "subject": "A18QU0YQB6Q8DF"}
{"rt": "11216.0", "trial_number": "0", "skipped": "False", "complete": "True", "assignment": "3IJXV6UZ1YR1KY4G6BFEG1DXR47RIC", "start_time": "1.51797180047e+12", "human_length": "11", "nodes_expanded": "999", "instance": "prb23259", "end_time": "1.51797181169e+12", "optimal_length": "7", "subject": "A18T3WK7J16C1B"}
{"rt": "16575.0", "trial_number": "0", "skipped": "False", "complete": "True", "assignment": "3PMBY0YE28B43VMUKKJ6EDF85RV9C8", "start_time": "1.51638787981e+12", "human_length": "16", "nodes_expanded": "999", "instance": "prb23259", "end_time": "1.51638789639e+12", "optimal_length": "7", "subject": "A191V7PT3DQKDP"}
{"rt": "13624.0", "trial_number": "0", "skipped": "False", "complete": "True", "assignment": "3ZSANO2JCGFTBM23KS9Y3E51YP4FSQ", "start_time": "1.51814388525e+12", "human_length": "11", "nodes_expanded": "999", "instance": "prb23259", "end_time": "1.51814389888e+12", "optimal_length": "7", "subject": "A1F42D4L22K5ND"}
{"rt": "10498.0", "trial_number": "0", "skipped": "False", "complete": "True", "assignment": "3TS1AR6UQRM7SOIBWPBN8N9589Y7FV", "start_time": "1.51684043334e+12", "human_length": "12", "nodes_expanded": "999", "instance": "prb23259", "end_time": "1.51684044384e+12", "optimal_length": "7", "subject": "A1F4N58CAX8IMK"}
{"rt": "25233.0", "trial_number": "1", "skipped": "False", "complete": "True", "assignment": "35DR22AR5ES6RR89U7EJ1DXW91AX3P", "start_time": "1.51795468031e+12", "human_length": "24", "nodes_expanded": "999", "instance": "prb23259", "end_time": "1.51795470554e+12", "optimal_length": "7", "subject": "A1F4N58CAX8IMK"}
{"rt": "13832.0", "trial_number": "0", "skipped": "False", "complete": "True", "assignment": "33F859I567LE8WC74WB3GA7E94XBHW", "start_time": "1.51796905046e+12", "human_length": "14", "nodes_expanded": "999", "instance": "prb23259", "end_time": "1.51796906429e+12", "optimal_length": "7", "subject": "A1GQS6USF2JEYG"}
{"rt": "6896.0", "trial_number": "0", "skipped": "False", "complete": "True", "assignment": "3XLBSAQ9Z5KDX59BX15UBFPNNHYZ7Q", "start_time": "1.5181459835e+12", "human_length": "7", "nodes_expanded": "999", "instance": "prb23259", "end_time": "1.5181459904e+12", "optimal_length": "7", "subject": "A1HFNOKU591WCY"}
{"rt": "10008.0", "trial_number": "0", "skipped": "False", "complete": "True", "assignment": "3FTF2T8WLSQDHTSZ1BJ7Q7MB14SW9H", "start_time": "1.51813702212e+12", "human_length": "10", "nodes_expanded": "999", "instance": "prb23259", "end_time": "1.51813703213e+12", "optimal_length": "7", "subject": "A1IUH9D7N69VS"}
{"rt": "0.0", "trial_number": "0", "skipped": "False", "complete": "False", "assignment": "3YW4XOSQKRTI0K0Z2YPDTDJVFABU1I", "start_time": "1.51683149538e+12", "human_length": "1", "nodes_expanded": "999", "instance": "prb23259", "end_time": "1.51683149538e+12", "optimal_length": "7", "subject": "A1LR0VQIHQUJAM"}
{"rt": "17327.0", "trial_number": "1", "skipped": "False", "complete": "True", "assignment": "3YW4XOSQKRTI0K0Z2YPDTDJVFABU1I", "start_time": "1.51683149538e+12", "human_length": "7", "nodes_expanded": "999", "instance": "prb23259", "end_time": "1.51683151271e+12", "optimal_length": "7", "subject": "A1LR0VQIHQUJAM"}
{"rt": "224014.0", "trial_number": "0", "skipped": "True", "complete": "False", "assignment": "31LM9EDVOM0C0BWUVMJXJINN3QPJNI", "start_time": "1.5175244233e+12", "human_length": "10", "nodes_expanded": "999", "instance": "prb23259", "end_time": "1.51752464731e+12", "optimal_length": "7", "subject": "A1NT8BT94ME6F5"}
{"rt": "44119.0", "trial_number": "0", "skipped": "False", "complete": "True", "assignment": "3RUIQRXJBCWS71H9MUFVM5WQ3SCLLJ", "start_time": "1.51815823706e+12", "human_length": "24", "nodes_expanded": "999", "instance": "prb23259", "end_time": "1.51815828118e+12", "optimal_length": "7", "subject": "A1SJRFJWFXSDH4"}
{"rt": "11830.0", "trial_number": "0", "skipped": "False", "complete": "True", "assignment": "3PB5A5BD0WED6OE679H5Q89HBDGG71", "start_time": "1.51795082687e+12", "human_length": "9", "nodes_expanded": "999", "instance": "prb23259", "end_time": "1.5179508387e+12", "optimal_length": "7", "subject": "A1USR9JCAMDGM3"}
{"rt": "106382.0", "trial_number": "0", "skipped": "False", "complete": "True", "assignment": "34BBWHLWHBJ6SUL255PK30LEGY5IWG", "start_time": "1.5163914521e+12", "human_length": "10", "nodes_expanded": "999", "instance": "prb23259", "end_time": "1.51639155848e+12", "optimal_length": "7", "subject": "A214HWAW1PYWO8"}
{"rt": "0.0", "trial_number": "0", "skipped": "False", "complete": "False", "assignment": "3IHR8NYAM89M0EPM8U9LH53ZJDTP4U", "start_time": "1.51682597275e+12", "human_length": "1", "nodes_expanded": "999", "instance": "prb23259", "end_time": "1.51682597275e+12", "optimal_length": "7", "subject": "A23437BMZ5T1FH"}
{"rt": "6629.0", "trial_number": "1", "skipped": "True", "complete": "False", "assignment": "3IHR8NYAM89M0EPM8U9LH53ZJDTP4U", "start_time": "1.51682597275e+12", "human_length": "9", "nodes_expanded": "999", "instance": "prb23259", "end_time": "1.51682597938e+12", "optimal_length": "7", "subject": "A23437BMZ5T1FH"}
{"rt": "48212.0", "trial_number": "0", "skipped": "False", "complete": "True", "assignment": "30IQTZXKALEAAZ9CBKW0ZFZP6O5X07", "start_time": "1.51794513622e+12", "human_length": "33", "nodes_expanded": "999", "instance": "prb23259", "end_time": "1.51794518443e+12", "optimal_length": "7", "subject": "A23XJ8I86R0O3B"}
{"rt": "25693.0", "trial_number": "0", "skipped": "False", "complete": "True", "assignment": "3ZV9H2YQQEFR2R3JK2IXZUJPXAF3WW", "start_time": "1.51630831995e+12", "human_length": "11", "nodes_expanded": "999", "instance": "prb23259", "end_time": "1.51630834564e+12", "optimal_length": "7", "subject": "A289D98Z4GAZ28"}
{"rt": "0.0", "trial_number": "0", "skipped": "False", "complete": "False", "assignment": "3X4MXAO0BHWJLTOLVSJTHSM54OHWRG", "start_time": "1.51682510942e+12", "human_length": "1", "nodes_expanded": "999", "instance": "prb23259", "end_time": "1.51682510942e+12", "optimal_length": "7", "subject": "A2IBQA01NR5N76"}
{"rt": "8431.0", "trial_number": "1", "skipped": "False", "complete": "True", "assignment": "3X4MXAO0BHWJLTOLVSJTHSM54OHWRG", "start_time": "1.51682510942e+12", "human_length": "7", "nodes_expanded": "999", "instance": "prb23259", "end_time": "1.51682511785e+12", "optimal_length": "7", "subject": "A2IBQA01NR5N76"}
{"rt": "12542.0", "trial_number": "0", "skipped": "False", "complete": "True", "assignment": "3FUI0JHJPY6UBT1VAI7VUX8S3KH33W", "start_time": "1.51815206051e+12", "human_length": "10", "nodes_expanded": "999", "instance": "prb23259", "end_time": "1.51815207306e+12", "optimal_length": "7", "subject": "A2QIZ31TMHU0GD"}
{"rt": "14213.0", "trial_number": "0", "skipped": "False", "complete": "True", "assignment": "3TAYZSBPLMG9ASQRWXURJVBCPLN2SH", "start_time": "1.51813730344e+12", "human_length": "9", "nodes_expanded": "999", "instance": "prb23259", "end_time": "1.51813731765e+12", "optimal_length": "7", "subject": "A2RCYLKY072XXO"}
{"rt": "0.0", "trial_number": "0", "skipped": "False", "complete": "False", "assignment": "3IJXV6UZ1YR1KY4G6BFEG1DXP7SRI1", "start_time": "1.51675063115e+12", "human_length": "1", "nodes_expanded": "999", "instance": "prb23259", "end_time": "1.51675063115e+12", "optimal_length": "7", "subject": "A2RTJ6BDY0DZVZ"}
{"rt": "0.0", "trial_number": "1", "skipped": "False", "complete": "False", "assignment": "3IJXV6UZ1YR1KY4G6BFEG1DXP7SRI1", "start_time": "1.51675063115e+12", "human_length": "1", "nodes_expanded": "999", "instance": "prb23259", "end_time": "1.51675063115e+12", "optimal_length": "7", "subject": "A2RTJ6BDY0DZVZ"}
{"rt": "45783.0", "trial_number": "2", "skipped": "False", "complete": "True", "assignment": "3IJXV6UZ1YR1KY4G6BFEG1DXP7SRI1", "start_time": "1.51675063115e+12", "human_length": "22", "nodes_expanded": "999", "instance": "prb23259", "end_time": "1.51675067694e+12", "optimal_length": "7", "subject": "A2RTJ6BDY0DZVZ"}
{"rt": "45783.0", "trial_number": "0", "skipped": "False", "complete": "True", "assignment": "3IJXV6UZ1YR1KY4G6BFEG1DXP7SRI1", "start_time": "1.51675063115e+12", "human_length": "22", "nodes_expanded": "999", "instance": "prb23259", "end_time": "1.51675067694e+12", "optimal_length": "7", "subject": "A2RTJ6BDY0DZVZ"}
{"rt": "0.0", "trial_number": "0", "skipped": "False", "complete": "False", "assignment": "3WSELTNVR4AZUVYAYCSWZIQW0J4ATB", "start_time": "1.51673956078e+12", "human_length": "1", "nodes_expanded": "999", "instance": "prb23259", "end_time": "1.51673956078e+12", "optimal_length": "7", "subject": "A2TQNX64349OZ9"}
{"rt": "0.0", "trial_number": "1", "skipped": "False", "complete": "False", "assignment": "3WSELTNVR4AZUVYAYCSWZIQW0J4ATB", "start_time": "1.51673956078e+12", "human_length": "1", "nodes_expanded": "999", "instance": "prb23259", "end_time": "1.51673956078e+12", "optimal_length": "7", "subject": "A2TQNX64349OZ9"}
{"rt": "19793.0", "trial_number": "2", "skipped": "False", "complete": "True", "assignment": "3WSELTNVR4AZUVYAYCSWZIQW0J4ATB", "start_time": "1.51673956078e+12", "human_length": "13", "nodes_expanded": "999", "instance": "prb23259", "end_time": "1.51673958057e+12", "optimal_length": "7", "subject": "A2TQNX64349OZ9"}
{"rt": "19793.0", "trial_number": "0", "skipped": "False", "complete": "True", "assignment": "3WSELTNVR4AZUVYAYCSWZIQW0J4ATB", "start_time": "1.51673956078e+12", "human_length": "13", "nodes_expanded": "999", "instance": "prb23259", "end_time": "1.51673958057e+12", "optimal_length": "7", "subject": "A2TQNX64349OZ9"}
{"rt": "35198.0", "trial_number": "0", "skipped": "False", "complete": "True", "assignment": "3TXD01ZLD5PZSJXIPG8FRBQYTI9U4X", "start_time": "1.51794510923e+12", "human_length": "15", "nodes_expanded": "999", "instance": "prb23259", "end_time": "1.51794514443e+12", "optimal_length": "7", "subject": "A3BPRPN10HJD4B"}
{"rt": "12707.0", "trial_number": "0", "skipped": "False", "complete": "True", "assignment": "34HJIJKLP64Z5YMIU6IKNXSH7PDV4I", "start_time": "1.5179424828e+12", "human_length": "8", "nodes_expanded": "999", "instance": "prb23259", "end_time": "1.5179424955e+12", "optimal_length": "7", "subject": "A3CTXNQ2GXIQSP"}
{"rt": "15089.0", "trial_number": "0", "skipped": "False", "complete": "True", "assignment": "3TMFV4NEP9MD3O9PWJDTQBR0HZYW8I", "start_time": "1.51814750053e+12", "human_length": "9", "nodes_expanded": "999", "instance": "prb23259", "end_time": "1.51814751562e+12", "optimal_length": "7", "subject": "A3GOOI75XOF24V"}
{"rt": "7623.0", "trial_number": "0", "skipped": "False", "complete": "True", "assignment": "3TPWUS5F8A9FFRZ2DVTYSXNJ6BWWC6", "start_time": "1.51794165611e+12", "human_length": "7", "nodes_expanded": "999", "instance": "prb23259", "end_time": "1.51794166374e+12", "optimal_length": "7", "subject": "A3GXC3VG37CQ3G"}
{"rt": "24168.0", "trial_number": "0", "skipped": "False", "complete": "False", "assignment": "3STRJBFXOXZ5687WA35LTWTS7QZKTT", "start_time": "1.51794350713e+12", "human_length": "17", "nodes_expanded": "999", "instance": "prb23259", "end_time": "1.5179435313e+12", "optimal_length": "7", "subject": "A3OB6REG5CGHK1"}
{"rt": "27431.0", "trial_number": "1", "skipped": "False", "complete": "True", "assignment": "3STRJBFXOXZ5687WA35LTWTS7QZKTT", "start_time": "1.51794353456e+12", "human_length": "18", "nodes_expanded": "999", "instance": "prb23259", "end_time": "1.51794356199e+12", "optimal_length": "7", "subject": "A3OB6REG5CGHK1"}
{"rt": "0.0", "trial_number": "0", "skipped": "False", "complete": "False", "assignment": "3X87C8JFV7JQ2BSCY8KSFD9F2ILSQK", "start_time": "1.51674008764e+12", "human_length": "1", "nodes_expanded": "999", "instance": "prb23259", "end_time": "1.51674008764e+12", "optimal_length": "7", "subject": "A3Q0XAGQ7TD7MP"}
{"rt": "0.0", "trial_number": "1", "skipped": "False", "complete": "False", "assignment": "3X87C8JFV7JQ2BSCY8KSFD9F2ILSQK", "start_time": "1.51674008764e+12", "human_length": "1", "nodes_expanded": "999", "instance": "prb23259", "end_time": "1.51674008764e+12", "optimal_length": "7", "subject": "A3Q0XAGQ7TD7MP"}
{"rt": "14197.0", "trial_number": "2", "skipped": "False", "complete": "True", "assignment": "3X87C8JFV7JQ2BSCY8KSFD9F2ILSQK", "start_time": "1.51674008764e+12", "human_length": "7", "nodes_expanded": "999", "instance": "prb23259", "end_time": "1.51674010184e+12", "optimal_length": "7", "subject": "A3Q0XAGQ7TD7MP"}
{"rt": "15342.0", "trial_number": "3", "skipped": "False", "complete": "True", "assignment": "3GLB5JMZFY3TNXFGYMKRQ0JDXNTDGZ", "start_time": "1.51794557590e+12", "human_length": "7", "nodes_expanded": "999", "instance": "prb23259", "end_time": "1.51794559125e+12", "optimal_length": "7", "subject": "A3Q0XAGQ7TD7MP"}
{"rt": "14197.0", "trial_number": "0", "skipped": "False", "complete": "True", "assignment": "3X87C8JFV7JQ2BSCY8KSFD9F2ILSQK", "start_time": "1.51674008764e+12", "human_length": "7", "nodes_expanded": "999", "instance": "prb23259", "end_time": "1.51674010184e+12", "optimal_length": "7", "subject": "A3Q0XAGQ7TD7MP"}
{"rt": "15342.0", "trial_number": "1", "skipped": "False", "complete": "True", "assignment": "3GLB5JMZFY3TNXFGYMKRQ0JDXNTDGZ", "start_time": "1.51794557590e+12", "human_length": "7", "nodes_expanded": "999", "instance": "prb23259", "end_time": "1.51794559125e+12", "optimal_length": "7", "subject": "A3Q0XAGQ7TD7MP"}
{"rt": "24412.0", "trial_number": "0", "skipped": "False", "complete": "True", "assignment": "3M0BCWMB8W4W5M7WZVX3HDH1P53WB1", "start_time": "1.51815926626e+12", "human_length": "11", "nodes_expanded": "999", "instance": "prb23259", "end_time": "1.51815929067e+12", "optimal_length": "7", "subject": "A53S7J4JGWG38"}
{"rt": "13908.0", "trial_number": "0", "skipped": "False", "complete": "True", "assignment": "3IXEICO793RY7TM78ZBKJDOA7ADT6Q", "start_time": "1.51816929963e+12", "human_length": "15", "nodes_expanded": "999", "instance": "prb23259", "end_time": "1.51816931354e+12", "optimal_length": "7", "subject": "ALH1K6ZAQQMN7"}
{"rt": "246601.0", "trial_number": "0", "skipped": "False", "complete": "True", "assignment": "3AZHRG4CU5SYU12YRVPCSZALW5003R", "start_time": "1.51630694188e+12", "human_length": "8", "nodes_expanded": "999", "instance": "prb23259", "end_time": "1.51630718848e+12", "optimal_length": "7", "subject": "ARWF605I7RWM7"}
{"rt": "21152.0", "trial_number": "0", "skipped": "False", "complete": "True", "assignment": "33PPO7FECWN7JOLBOAKUBCWTC0AIDL", "start_time": "1.51795001716e+12", "human_length": "7", "nodes_expanded": "999", "instance": "prb23259", "end_time": "1.51795003831e+12", "optimal_length": "7", "subject": "AXKM02NVXNGOM"}
