{"rt": "94823.0", "trial_number": "0", "skipped": "False", "complete": "True", "assignment": "36AHBNMV1SKT9O0GSS6XX0QHZV3YDN", "start_time": "1.51630491640e+12", "human_length": "11", "nodes_expanded": "999", "instance": "prb29414", "end_time": "1.51630501123e+12", "optimal_length": "11", "subject": "A39GADIK8RLMVC"}
{"rt": "13127.0", "trial_number": "0", "skipped": "False", "complete": "True", "assignment": "3AZHRG4CU5SYU12YRVPCSZALW5003R", "start_time": "1.51630624998e+12", "human_length": "11", "nodes_expanded": "999", "instance": "prb29414", "end_time": "1.51630626311e+12", "optimal_length": "11", "subject": "ARWF605I7RWM7"}
{"rt": "28788.0", "trial_number": "0", "skipped": "False", "complete": "True", "assignment": "3ZV9H2YQQEFR2R3JK2IXZUJPXAF3WW", "start_time": "1.51630850851e+12", "human_length": "17", "nodes_expanded": "999", "instance": "prb29414", "end_time": "1.5163085373e+12", "optimal_length": "11", "subject": "A289D98Z4GAZ28"}
{"rt": "11151.0", "trial_number": "0", "skipped": "False", "complete": "True", "assignment": "3PMBY0YE28B43VMUKKJ6EDF85RV9C8", "start_time": "1.51638592559e+12", "human_length": "12", "nodes_expanded": "999", "instance": "prb29414", "end_time": "1.51638593674e+12", "optimal_length": "11", "subject": "A191V7PT3DQKDP"}
{"rt": "11858.0", "trial_number": "0", "skipped": "False", "complete": "False", "assignment": "3ZSY5X72NYJBGKFJ46SJ0Y9J0RLROB", "start_time": "1.51638786378e+12", "human_length": "8", "nodes_expanded": "999", "instance": "prb29414", "end_time": "1.51638787563e+12", "optimal_length": "11", "subject": "AU4KK3OYS2UZF"}
{"rt": "3106.0", "trial_number": "1", "skipped": "False", "complete": "False", "assignment": "3ZSY5X72NYJBGKFJ46SJ0Y9J0RLROB", "start_time": "1.51638788226e+12", "human_length": "2", "nodes_expanded": "999", "instance": "prb29414", "end_time": "1.51638788536e+12", "optimal_length": "11", "subject": "AU4KK3OYS2UZF"}
{"rt": "15710.0", "trial_number": "2", "skipped": "False", "complete": "True", "assignment": "3ZSY5X72NYJBGKFJ46SJ0Y9J0RLROB", "start_time": "1.51638789656e+12", "human_length": "13", "nodes_expanded": "999", "instance": "prb29414", "end_time": "1.51638791227e+12", "optimal_length": "11", "subject": "AU4KK3OYS2UZF"}
{"rt": "2463.0", "trial_number": "0", "skipped": "False", "complete": "False", "assignment": "3VBEN272ML7ZPMYYVCFGLZ5DV7CGS0", "start_time": "1.51638774884e+12", "human_length": "2", "nodes_expanded": "999", "instance": "prb29414", "end_time": "1.5163877513e+12", "optimal_length": "11", "subject": "A3VZJ2T28HAQ2A"}
{"rt": "9251.0", "trial_number": "1", "skipped": "True", "complete": "False", "assignment": "3VBEN272ML7ZPMYYVCFGLZ5DV7CGS0", "start_time": "1.51638775165e+12", "human_length": "5", "nodes_expanded": "999", "instance": "prb29414", "end_time": "1.5163877609e+12", "optimal_length": "11", "subject": "A3VZJ2T28HAQ2A"}
{"rt": "33750.0", "trial_number": "0", "skipped": "False", "complete": "True", "assignment": "3TYCR1GOTDRCCQYD1V64UK7OE48LZS", "start_time": "1.51639057284e+12", "human_length": "14", "nodes_expanded": "999", "instance": "prb29414", "end_time": "1.51639060659e+12", "optimal_length": "11", "subject": "A2MYB6MLQW0IGN"}
{"rt": "9675.0", "trial_number": "0", "skipped": "False", "complete": "True", "assignment": "34BBWHLWHBJ6SUL255PK30LEGY5IWG", "start_time": "1.51639382457e+12", "human_length": "13", "nodes_expanded": "999", "instance": "prb29414", "end_time": "1.51639383424e+12", "optimal_length": "11", "subject": "A214HWAW1PYWO8"}
{"rt": "30141.0", "trial_number": "0", "skipped": "False", "complete": "False", "assignment": "3VE8AYVF8N5BS2NU6U3TMN50JMNF8V", "start_time": "1.51673470248e+12", "human_length": "3", "nodes_expanded": "999", "instance": "prb29414", "end_time": "1.51673473262e+12", "optimal_length": "11", "subject": "A18QU0YQB6Q8DF"}
{"rt": "0.0", "trial_number": "1", "skipped": "False", "complete": "False", "assignment": "3VE8AYVF8N5BS2NU6U3TMN50JMNF8V", "start_time": "1.51673474361e+12", "human_length": "1", "nodes_expanded": "999", "instance": "prb29414", "end_time": "1.51673474361e+12", "optimal_length": "11", "subject": "A18QU0YQB6Q8DF"}
{"rt": "0.0", "trial_number": "2", "skipped": "False", "complete": "False", "assignment": "3VE8AYVF8N5BS2NU6U3TMN50JMNF8V", "start_time": "1.51673470248e+12", "human_length": "1", "nodes_expanded": "999", "instance": "prb29414", "end_time": "1.51673470248e+12", "optimal_length": "11", "subject": "A18QU0YQB6Q8DF"}
{"rt": "0.0", "trial_number": "3", "skipped": "False", "complete": "False", "assignment": "3VE8AYVF8N5BS2NU6U3TMN50JMNF8V", "start_time": "1.51673474361e+12", "human_length": "1", "nodes_expanded": "999", "instance": "prb29414", "end_time": "1.51673474361e+12", "optimal_length": "11", "subject": "A18QU0YQB6Q8DF"}
{"rt": "0.0", "trial_number": "4", "skipped": "False", "complete": "False", "assignment": "3VE8AYVF8N5BS2NU6U3TMN50JMNF8V", "start_time": "1.51673470248e+12", "human_length": "1", "nodes_expanded": "999", "instance": "prb29414", "end_time": "1.51673470248e+12", "optimal_length": "11", "subject": "A18QU0YQB6Q8DF"}
{"rt": "38824.0", "trial_number": "5", "skipped": "False", "complete": "True", "assignment": "3VE8AYVF8N5BS2NU6U3TMN50JMNF8V", "start_time": "1.51673474361e+12", "human_length": "12", "nodes_expanded": "999", "instance": "prb29414", "end_time": "1.51673478244e+12", "optimal_length": "11", "subject": "A18QU0YQB6Q8DF"}
{"rt": "0.0", "trial_number": "0", "skipped": "False", "complete": "False", "assignment": "3X87C8JFV7JQ2BSCY8KSFD9F2ILSQK", "start_time": "1.51674119011e+12", "human_length": "1", "nodes_expanded": "999", "instance": "prb29414", "end_time": "1.51674119011e+12", "optimal_length": "11", "subject": "A3Q0XAGQ7TD7MP"}
{"rt": "0.0", "trial_number": "1", "skipped": "False", "complete": "False", "assignment": "3X87C8JFV7JQ2BSCY8KSFD9F2ILSQK", "start_time": "1.51674119011e+12", "human_length": "1", "nodes_expanded": "999", "instance": "prb29414", "end_time": "1.51674119011e+12", "optimal_length": "11", "subject": "A3Q0XAGQ7TD7MP"}
{"rt": "25338.0", "trial_number": "2", "skipped": "False", "complete": "False", "assignment": "3X87C8JFV7JQ2BSCY8KSFD9F2ILSQK", "start_time": "1.51674119011e+12", "human_length": "22", "nodes_expanded": "999", "instance": "prb29414", "end_time": "1.51674121545e+12", "optimal_length": "11", "subject": "A3Q0XAGQ7TD7MP"}
{"rt": "35212.0", "trial_number": "3", "skipped": "False", "complete": "True", "assignment": "3GLB5JMZFY3TNXFGYMKRQ0JDXNTDGZ", "start_time": "1.51794605441e+12", "human_length": "18", "nodes_expanded": "999", "instance": "prb29414", "end_time": "1.51794608963e+12", "optimal_length": "11", "subject": "A3Q0XAGQ7TD7MP"}
{"rt": "0.0", "trial_number": "0", "skipped": "False", "complete": "False", "assignment": "3WSELTNVR4AZUVYAYCSWZIQW0J4ATB", "start_time": "1.51674018871e+12", "human_length": "1", "nodes_expanded": "999", "instance": "prb29414", "end_time": "1.51674018871e+12", "optimal_length": "11", "subject": "A2TQNX64349OZ9"}
{"rt": "0.0", "trial_number": "1", "skipped": "False", "complete": "False", "assignment": "3WSELTNVR4AZUVYAYCSWZIQW0J4ATB", "start_time": "1.51674018871e+12", "human_length": "1", "nodes_expanded": "999", "instance": "prb29414", "end_time": "1.51674018871e+12", "optimal_length": "11", "subject": "A2TQNX64349OZ9"}
{"rt": "22875.0", "trial_number": "2", "skipped": "False", "complete": "True", "assignment": "3WSELTNVR4AZUVYAYCSWZIQW0J4ATB", "start_time": "1.51674018871e+12", "human_length": "15", "nodes_expanded": "999", "instance": "prb29414", "end_time": "1.51674021158e+12", "optimal_length": "11", "subject": "A2TQNX64349OZ9"}
{"rt": "0.0", "trial_number": "0", "skipped": "False", "complete": "False", "assignment": "3IJXV6UZ1YR1KY4G6BFEG1DXP7SRI1", "start_time": "1.51675211238e+12", "human_length": "1", "nodes_expanded": "999", "instance": "prb29414", "end_time": "1.51675211238e+12", "optimal_length": "11", "subject": "A2RTJ6BDY0DZVZ"}
{"rt": "0.0", "trial_number": "1", "skipped": "False", "complete": "False", "assignment": "3IJXV6UZ1YR1KY4G6BFEG1DXP7SRI1", "start_time": "1.51675211238e+12", "human_length": "1", "nodes_expanded": "999", "instance": "prb29414", "end_time": "1.51675211238e+12", "optimal_length": "11", "subject": "A2RTJ6BDY0DZVZ"}
{"rt": "22241.0", "trial_number": "2", "skipped": "False", "complete": "True", "assignment": "3IJXV6UZ1YR1KY4G6BFEG1DXP7SRI1", "start_time": "1.51675211238e+12", "human_length": "12", "nodes_expanded": "999", "instance": "prb29414", "end_time": "1.51675213462e+12", "optimal_length": "11", "subject": "A2RTJ6BDY0DZVZ"}
{"rt": "0.0", "trial_number": "0", "skipped": "False", "complete": "False", "assignment": "3I2PTA7R3U2SESF4TZBQORI5LSJQKK", "start_time": "1.51676074034e+12", "human_length": "1", "nodes_expanded": "999", "instance": "prb29414", "end_time": "1.51676074034e+12", "optimal_length": "11", "subject": "A3NMQ3019X6YE0"}
{"rt": "0.0", "trial_number": "1", "skipped": "False", "complete": "False", "assignment": "3I2PTA7R3U2SESF4TZBQORI5LSJQKK", "start_time": "1.51676074034e+12", "human_length": "1", "nodes_expanded": "999", "instance": "prb29414", "end_time": "1.51676074034e+12", "optimal_length": "11", "subject": "A3NMQ3019X6YE0"}
{"rt": "78628.0", "trial_number": "2", "skipped": "False", "complete": "True", "assignment": "3I2PTA7R3U2SESF4TZBQORI5LSJQKK", "start_time": "1.51676074034e+12", "human_length": "39", "nodes_expanded": "999", "instance": "prb29414", "end_time": "1.51676081897e+12", "optimal_length": "11", "subject": "A3NMQ3019X6YE0"}
{"rt": "116675.0", "trial_number": "3", "skipped": "False", "complete": "False", "assignment": "3V5Q80FXIYZ5QB5C6ITQBN30WY823U", "start_time": "1.51753258252e+12", "human_length": "51", "nodes_expanded": "999", "instance": "prb29414", "end_time": "1.51753269919e+12", "optimal_length": "11", "subject": "A3NMQ3019X6YE0"}
{"rt": "67254.0", "trial_number": "4", "skipped": "False", "complete": "True", "assignment": "3V5Q80FXIYZ5QB5C6ITQBN30WY823U", "start_time": "1.5175327024e+12", "human_length": "19", "nodes_expanded": "999", "instance": "prb29414", "end_time": "1.51753276965e+12", "optimal_length": "11", "subject": "A3NMQ3019X6YE0"}
{"rt": "0.0", "trial_number": "0", "skipped": "False", "complete": "False", "assignment": "3YW4XOSQKRTI0K0Z2YPDTDJVFABU1I", "start_time": "1.51682218279e+12", "human_length": "1", "nodes_expanded": "999", "instance": "prb29414", "end_time": "1.51682218279e+12", "optimal_length": "11", "subject": "A15781PHGW377Y"}
{"rt": "19942.0", "trial_number": "1", "skipped": "False", "complete": "True", "assignment": "3YW4XOSQKRTI0K0Z2YPDTDJVFABU1I", "start_time": "1.51682218279e+12", "human_length": "11", "nodes_expanded": "999", "instance": "prb29414", "end_time": "1.51682220273e+12", "optimal_length": "11", "subject": "A15781PHGW377Y"}
{"rt": "0.0", "trial_number": "0", "skipped": "False", "complete": "False", "assignment": "3X4MXAO0BHWJLTOLVSJTHSM54OHWRG", "start_time": "1.5168219497e+12", "human_length": "1", "nodes_expanded": "999", "instance": "prb29414", "end_time": "1.5168219497e+12", "optimal_length": "11", "subject": "A2IBQA01NR5N76"}
{"rt": "18362.0", "trial_number": "1", "skipped": "False", "complete": "True", "assignment": "3X4MXAO0BHWJLTOLVSJTHSM54OHWRG", "start_time": "1.5168219497e+12", "human_length": "12", "nodes_expanded": "999", "instance": "prb29414", "end_time": "1.51682196806e+12", "optimal_length": "11", "subject": "A2IBQA01NR5N76"}
{"rt": "18362.0", "trial_number": "0", "skipped": "False", "complete": "True", "assignment": "3X4MXAO0BHWJLTOLVSJTHSM54OHWRG", "start_time": "1.5168219497e+12", "human_length": "12", "nodes_expanded": "999", "instance": "prb29414", "end_time": "1.51682196806e+12", "optimal_length": "11", "subject": "A2IBQA01NR5N76"}
{"rt": "0.0", "trial_number": "0", "skipped": "False", "complete": "False", "assignment": "3IHR8NYAM89M0EPM8U9LH53ZJDTP4U", "start_time": "1.51682756258e+12", "human_length": "1", "nodes_expanded": "999", "instance": "prb29414", "end_time": "1.51682756258e+12", "optimal_length": "11", "subject": "A23437BMZ5T1FH"}
{"rt": "19109.0", "trial_number": "1", "skipped": "False", "complete": "True", "assignment": "3IHR8NYAM89M0EPM8U9LH53ZJDTP4U", "start_time": "1.51682756258e+12", "human_length": "16", "nodes_expanded": "999", "instance": "prb29414", "end_time": "1.51682758169e+12", "optimal_length": "11", "subject": "A23437BMZ5T1FH"}
{"rt": "0.0", "trial_number": "0", "skipped": "False", "complete": "False", "assignment": "3YW4XOSQKRTI0K0Z2YPDTDJVFABU1I", "start_time": "1.5168314101e+12", "human_length": "1", "nodes_expanded": "999", "instance": "prb29414", "end_time": "1.5168314101e+12", "optimal_length": "11", "subject": "A1LR0VQIHQUJAM"}
{"rt": "24041.0", "trial_number": "1", "skipped": "False", "complete": "True", "assignment": "3YW4XOSQKRTI0K0Z2YPDTDJVFABU1I", "start_time": "1.5168314101e+12", "human_length": "12", "nodes_expanded": "999", "instance": "prb29414", "end_time": "1.51683143414e+12", "optimal_length": "11", "subject": "A1LR0VQIHQUJAM"}
{"rt": "30141.0", "trial_number": "0", "skipped": "False", "complete": "False", "assignment": "3VE8AYVF8N5BS2NU6U3TMN50JMNF8V", "start_time": "1.51673470248e+12", "human_length": "3", "nodes_expanded": "999", "instance": "prb29414", "end_time": "1.51673473262e+12", "optimal_length": "11", "subject": "A18QU0YQB6Q8DF"}
{"rt": "38824.0", "trial_number": "1", "skipped": "False", "complete": "True", "assignment": "3VE8AYVF8N5BS2NU6U3TMN50JMNF8V", "start_time": "1.51673474361e+12", "human_length": "12", "nodes_expanded": "999", "instance": "prb29414", "end_time": "1.51673478244e+12", "optimal_length": "11", "subject": "A18QU0YQB6Q8DF"}
{"rt": "25338.0", "trial_number": "0", "skipped": "False", "complete": "False", "assignment": "3X87C8JFV7JQ2BSCY8KSFD9F2ILSQK", "start_time": "1.51674119011e+12", "human_length": "10", "nodes_expanded": "999", "instance": "prb29414", "end_time": "1.51674121545e+12", "optimal_length": "11", "subject": "A3Q0XAGQ7TD7MP"}
{"rt": "35212.0", "trial_number": "1", "skipped": "False", "complete": "True", "assignment": "3GLB5JMZFY3TNXFGYMKRQ0JDXNTDGZ", "start_time": "1.51794605441e+12", "human_length": "18", "nodes_expanded": "999", "instance": "prb29414", "end_time": "1.51794608963e+12", "optimal_length": "11", "subject": "A3Q0XAGQ7TD7MP"}
{"rt": "22875.0", "trial_number": "0", "skipped": "False", "complete": "True", "assignment": "3WSELTNVR4AZUVYAYCSWZIQW0J4ATB", "start_time": "1.51674018871e+12", "human_length": "15", "nodes_expanded": "999", "instance": "prb29414", "end_time": "1.51674021158e+12", "optimal_length": "11", "subject": "A2TQNX64349OZ9"}
{"rt": "22241.0", "trial_number": "0", "skipped": "False", "complete": "True", "assignment": "3IJXV6UZ1YR1KY4G6BFEG1DXP7SRI1", "start_time": "1.51675211238e+12", "human_length": "12", "nodes_expanded": "999", "instance": "prb29414", "end_time": "1.51675213462e+12", "optimal_length": "11", "subject": "A2RTJ6BDY0DZVZ"}
{"rt": "78628.0", "trial_number": "0", "skipped": "False", "complete": "True", "assignment": "3I2PTA7R3U2SESF4TZBQORI5LSJQKK", "start_time": "1.51676074034e+12", "human_length": "39", "nodes_expanded": "999", "instance": "prb29414", "end_time": "1.51676081897e+12", "optimal_length": "11", "subject": "A3NMQ3019X6YE0"}
{"rt": "116675.0", "trial_number": "1", "skipped": "False", "complete": "False", "assignment": "3V5Q80FXIYZ5QB5C6ITQBN30WY823U", "start_time": "1.51753258252e+12", "human_length": "51", "nodes_expanded": "999", "instance": "prb29414", "end_time": "1.51753269919e+12", "optimal_length": "11", "subject": "A3NMQ3019X6YE0"}
{"rt": "67254.0", "trial_number": "2", "skipped": "False", "complete": "True", "assignment": "3V5Q80FXIYZ5QB5C6ITQBN30WY823U", "start_time": "1.5175327024e+12", "human_length": "19", "nodes_expanded": "999", "instance": "prb29414", "end_time": "1.51753276965e+12", "optimal_length": "11", "subject": "A3NMQ3019X6YE0"}
{"rt": "19942.0", "trial_number": "0", "skipped": "False", "complete": "True", "assignment": "3YW4XOSQKRTI0K0Z2YPDTDJVFABU1I", "start_time": "1.51682218279e+12", "human_length": "11", "nodes_expanded": "999", "instance": "prb29414", "end_time": "1.51682220273e+12", "optimal_length": "11", "subject": "A15781PHGW377Y"}
{"rt": "17201.0", "trial_number": "0", "skipped": "False", "complete": "True", "assignment": "3TS1AR6UQRM7SOIBWPBN8N9589Y7FV", "start_time": "1.51683960669e+12", "human_length": "15", "nodes_expanded": "999", "instance": "prb29414", "end_time": "1.51683962389e+12", "optimal_length": "11", "subject": "A1F4N58CAX8IMK"}
{"rt": "10277.0", "trial_number": "1", "skipped": "False", "complete": "True", "assignment": "35DR22AR5ES6RR89U7EJ1DXW91AX3P", "start_time": "1.51795255341e+12", "human_length": "12", "nodes_expanded": "999", "instance": "prb29414", "end_time": "1.51795256368e+12", "optimal_length": "11", "subject": "A1F4N58CAX8IMK"}
{"rt": "27543.0", "trial_number": "0", "skipped": "False", "complete": "False", "assignment": "3TS1AR6UQRM7SOIBWPBN8N9589Y7FV", "start_time": "1.51684336888e+12", "human_length": "16", "nodes_expanded": "999", "instance": "prb29414", "end_time": "1.51684339642e+12", "optimal_length": "11", "subject": "A15FXHC1CVNW31"}
{"rt": "53116.0", "trial_number": "1", "skipped": "False", "complete": "True", "assignment": "3TS1AR6UQRM7SOIBWPBN8N9589Y7FV", "start_time": "1.51684339823e+12", "human_length": "24", "nodes_expanded": "999", "instance": "prb29414", "end_time": "1.51684345134e+12", "optimal_length": "11", "subject": "A15FXHC1CVNW31"}
{"rt": "18343.0", "trial_number": "0", "skipped": "True", "complete": "False", "assignment": "31LM9EDVOM0C0BWUVMJXJINN3QPJNI", "start_time": "1.51752381061e+12", "human_length": "7", "nodes_expanded": "999", "instance": "prb29414", "end_time": "1.51752382895e+12", "optimal_length": "11", "subject": "A1NT8BT94ME6F5"}
{"rt": "27602.0", "trial_number": "0", "skipped": "False", "complete": "True", "assignment": "37TD41K0AIHM8AITTQJXV8KY05QCSB", "start_time": "1.51752543664e+12", "human_length": "11", "nodes_expanded": "999", "instance": "prb29414", "end_time": "1.51752546424e+12", "optimal_length": "11", "subject": "A30KYQGABO7JER"}
{"rt": "21982.0", "trial_number": "0", "skipped": "False", "complete": "True", "assignment": "36H9ULYP6320CJJDXY0KBDEE1Z3JFB", "start_time": "1.51753265835e+12", "human_length": "13", "nodes_expanded": "999", "instance": "prb29414", "end_time": "1.51753268033e+12", "optimal_length": "11", "subject": "AN098C29EGJ6"}
{"rt": "10247.0", "trial_number": "0", "skipped": "False", "complete": "True", "assignment": "3TYCR1GOTDRCCQYD1V64UK7OHTBZLQ", "start_time": "1.51753673018e+12", "human_length": "11", "nodes_expanded": "999", "instance": "prb29414", "end_time": "1.51753674042e+12", "optimal_length": "11", "subject": "A13BZCNJ0WR1T7"}
{"rt": "34571.0", "trial_number": "0", "skipped": "False", "complete": "True", "assignment": "3H0W84IWBLAP4T2UASPNVMF5ZH7ER9", "start_time": "1.51755315176e+12", "human_length": "12", "nodes_expanded": "999", "instance": "prb29414", "end_time": "1.51755318633e+12", "optimal_length": "11", "subject": "A1AKX1C8GCVCTP"}
{"rt": "30851.0", "trial_number": "0", "skipped": "False", "complete": "True", "assignment": "30IQTZXKALEAAZ9CBKW0ZFZP6O5X07", "start_time": "1.5179392339e+12", "human_length": "12", "nodes_expanded": "999", "instance": "prb29414", "end_time": "1.51793926475e+12", "optimal_length": "11", "subject": "A10YS8AVLQWUZZ"}
{"rt": "29452.0", "trial_number": "0", "skipped": "False", "complete": "True", "assignment": "3TPWUS5F8A9FFRZ2DVTYSXNJ6BWWC6", "start_time": "1.51794027098e+12", "human_length": "15", "nodes_expanded": "999", "instance": "prb29414", "end_time": "1.51794030044e+12", "optimal_length": "11", "subject": "A3GXC3VG37CQ3G"}
{"rt": "39652.0", "trial_number": "0", "skipped": "False", "complete": "False", "assignment": "34HJIJKLP64Z5YMIU6IKNXSH7PDV4I", "start_time": "1.51794115478e+12", "human_length": "15", "nodes_expanded": "999", "instance": "prb29414", "end_time": "1.51794119443e+12", "optimal_length": "11", "subject": "A3CTXNQ2GXIQSP"}
{"rt": "32099.0", "trial_number": "1", "skipped": "False", "complete": "True", "assignment": "34HJIJKLP64Z5YMIU6IKNXSH7PDV4I", "start_time": "1.51794119955e+12", "human_length": "15", "nodes_expanded": "999", "instance": "prb29414", "end_time": "1.51794123165e+12", "optimal_length": "11", "subject": "A3CTXNQ2GXIQSP"}
{"rt": "58992.0", "trial_number": "0", "skipped": "False", "complete": "True", "assignment": "3TXD01ZLD5PZSJXIPG8FRBQYTI9U4X", "start_time": "1.51794177221e+12", "human_length": "21", "nodes_expanded": "999", "instance": "prb29414", "end_time": "1.51794183121e+12", "optimal_length": "11", "subject": "A3BPRPN10HJD4B"}
{"rt": "4663.0", "trial_number": "0", "skipped": "False", "complete": "False", "assignment": "30IQTZXKALEAAZ9CBKW0ZFZP6O5X07", "start_time": "1.51794533957e+12", "human_length": "3", "nodes_expanded": "999", "instance": "prb29414", "end_time": "1.51794534423e+12", "optimal_length": "11", "subject": "A23XJ8I86R0O3B"}
{"rt": "4672.0", "trial_number": "1", "skipped": "False", "complete": "False", "assignment": "30IQTZXKALEAAZ9CBKW0ZFZP6O5X07", "start_time": "1.51794534674e+12", "human_length": "2", "nodes_expanded": "999", "instance": "prb29414", "end_time": "1.51794535142e+12", "optimal_length": "11", "subject": "A23XJ8I86R0O3B"}
{"rt": "9498.0", "trial_number": "2", "skipped": "False", "complete": "False", "assignment": "30IQTZXKALEAAZ9CBKW0ZFZP6O5X07", "start_time": "1.51794535614e+12", "human_length": "5", "nodes_expanded": "999", "instance": "prb29414", "end_time": "1.51794536564e+12", "optimal_length": "11", "subject": "A23XJ8I86R0O3B"}
{"rt": "13205.0", "trial_number": "3", "skipped": "True", "complete": "False", "assignment": "30IQTZXKALEAAZ9CBKW0ZFZP6O5X07", "start_time": "1.51794537474e+12", "human_length": "5", "nodes_expanded": "999", "instance": "prb29414", "end_time": "1.51794538795e+12", "optimal_length": "11", "subject": "A23XJ8I86R0O3B"}
{"rt": "17125.0", "trial_number": "0", "skipped": "False", "complete": "True", "assignment": "3STRJBFXOXZ5687WA35LTWTS7QZKTT", "start_time": "1.51794611986e+12", "human_length": "13", "nodes_expanded": "999", "instance": "prb29414", "end_time": "1.51794613698e+12", "optimal_length": "11", "subject": "A3OB6REG5CGHK1"}
{"rt": "28788.0", "trial_number": "0", "skipped": "False", "complete": "False", "assignment": "33PPO7FECWN7JOLBOAKUBCWTC0AIDL", "start_time": "1.51794887813e+12", "human_length": "10", "nodes_expanded": "999", "instance": "prb29414", "end_time": "1.51794890692e+12", "optimal_length": "11", "subject": "AXKM02NVXNGOM"}
{"rt": "48821.0", "trial_number": "1", "skipped": "False", "complete": "False", "assignment": "33PPO7FECWN7JOLBOAKUBCWTC0AIDL", "start_time": "1.51794891162e+12", "human_length": "13", "nodes_expanded": "999", "instance": "prb29414", "end_time": "1.51794896044e+12", "optimal_length": "11", "subject": "AXKM02NVXNGOM"}
{"rt": "39072.0", "trial_number": "2", "skipped": "False", "complete": "True", "assignment": "33PPO7FECWN7JOLBOAKUBCWTC0AIDL", "start_time": "1.51794896279e+12", "human_length": "11", "nodes_expanded": "999", "instance": "prb29414", "end_time": "1.51794900186e+12", "optimal_length": "11", "subject": "AXKM02NVXNGOM"}
{"rt": "31232.0", "trial_number": "0", "skipped": "False", "complete": "True", "assignment": "33F859I567LE8WC74WB3GA7E94XBHW", "start_time": "1.51797016554e+12", "human_length": "22", "nodes_expanded": "999", "instance": "prb29414", "end_time": "1.51797019677e+12", "optimal_length": "11", "subject": "A1GQS6USF2JEYG"}
{"rt": "10588.0", "trial_number": "0", "skipped": "False", "complete": "True", "assignment": "3IJXV6UZ1YR1KY4G6BFEG1DXR47RIC", "start_time": "1.5179722602e+12", "human_length": "14", "nodes_expanded": "999", "instance": "prb29414", "end_time": "1.51797227079e+12", "optimal_length": "11", "subject": "A18T3WK7J16C1B"}
{"rt": "9815.0", "trial_number": "0", "skipped": "False", "complete": "True", "assignment": "3FTF2T8WLSQDHTSZ1BJ7Q7MB14SW9H", "start_time": "1.51813692791e+12", "human_length": "11", "nodes_expanded": "999", "instance": "prb29414", "end_time": "1.51813693773e+12", "optimal_length": "11", "subject": "A1IUH9D7N69VS"}
{"rt": "36011.0", "trial_number": "0", "skipped": "False", "complete": "True", "assignment": "3XC1O3LBOTUGQEPEV3HM8W67X4RTLL", "start_time": "1.51813753817e+12", "human_length": "21", "nodes_expanded": "999", "instance": "prb29414", "end_time": "1.51813757418e+12", "optimal_length": "11", "subject": "A1ZTSCPETU3UJW"}
{"rt": "19710.0", "trial_number": "0", "skipped": "False", "complete": "True", "assignment": "3TAYZSBPLMG9ASQRWXURJVBCPLN2SH", "start_time": "1.51813599027e+12", "human_length": "12", "nodes_expanded": "999", "instance": "prb29414", "end_time": "1.51813600998e+12", "optimal_length": "11", "subject": "A2RCYLKY072XXO"}
{"rt": "15599.0", "trial_number": "0", "skipped": "False", "complete": "True", "assignment": "3E1QT0TDFQHV2TPK729EPKIS2ND8IY", "start_time": "1.51813856777e+12", "human_length": "13", "nodes_expanded": "999", "instance": "prb29414", "end_time": "1.51813858337e+12", "optimal_length": "11", "subject": "A1MTRZDRKNB9GV"}
{"rt": "12091.0", "trial_number": "0", "skipped": "False", "complete": "True", "assignment": "3ZSANO2JCGFTBM23KS9Y3E51YP4FSQ", "start_time": "1.51814257828e+12", "human_length": "11", "nodes_expanded": "999", "instance": "prb29414", "end_time": "1.51814259037e+12", "optimal_length": "11", "subject": "A1F42D4L22K5ND"}
{"rt": "30320.0", "trial_number": "0", "skipped": "False", "complete": "True", "assignment": "3VE8AYVF8N5BS2NU6U3TMN50MV38FP", "start_time": "1.51814318733e+12", "human_length": "13", "nodes_expanded": "999", "instance": "prb29414", "end_time": "1.51814321765e+12", "optimal_length": "11", "subject": "A1JN13098RIE78"}
{"rt": "13809.0", "trial_number": "0", "skipped": "False", "complete": "True", "assignment": "3HWRJOOET6A15827PHPSLWK1MOYSEU", "start_time": "1.51814366067e+12", "human_length": "11", "nodes_expanded": "999", "instance": "prb29414", "end_time": "1.51814367448e+12", "optimal_length": "11", "subject": "AO1QGAUZ85T6L"}
{"rt": "23928.0", "trial_number": "0", "skipped": "False", "complete": "True", "assignment": "3TMFV4NEP9MD3O9PWJDTQBR0HZYW8I", "start_time": "1.51814680021e+12", "human_length": "14", "nodes_expanded": "999", "instance": "prb29414", "end_time": "1.51814682414e+12", "optimal_length": "11", "subject": "A3GOOI75XOF24V"}
{"rt": "36923.0", "trial_number": "0", "skipped": "True", "complete": "False", "assignment": "3XLBSAQ9Z5KDX59BX15UBFPNNHYZ7Q", "start_time": "1.51814752943e+12", "human_length": "34", "nodes_expanded": "999", "instance": "prb29414", "end_time": "1.51814756635e+12", "optimal_length": "11", "subject": "A1HFNOKU591WCY"}
{"rt": "54452.0", "trial_number": "0", "skipped": "False", "complete": "True", "assignment": "3EWIJTFFVPF14ZIVGF68BQEIRXP0ER", "start_time": "1.51814770414e+12", "human_length": "19", "nodes_expanded": "999", "instance": "prb29414", "end_time": "1.51814775859e+12", "optimal_length": "11", "subject": "A30AGR5KF8IEL"}
{"rt": "18224.0", "trial_number": "0", "skipped": "False", "complete": "True", "assignment": "3FUI0JHJPY6UBT1VAI7VUX8S3KH33W", "start_time": "1.5181525534e+12", "human_length": "13", "nodes_expanded": "999", "instance": "prb29414", "end_time": "1.51815257163e+12", "optimal_length": "11", "subject": "A2QIZ31TMHU0GD"}
{"rt": "58179.0", "trial_number": "0", "skipped": "False", "complete": "False", "assignment": "3RUIQRXJBCWS71H9MUFVM5WQ3SCLLJ", "start_time": "1.5181556429e+12", "human_length": "16", "nodes_expanded": "999", "instance": "prb29414", "end_time": "1.51815570108e+12", "optimal_length": "11", "subject": "A1SJRFJWFXSDH4"}
{"rt": "31689.0", "trial_number": "1", "skipped": "True", "complete": "False", "assignment": "3RUIQRXJBCWS71H9MUFVM5WQ3SCLLJ", "start_time": "1.51815570556e+12", "human_length": "5", "nodes_expanded": "999", "instance": "prb29414", "end_time": "1.51815573724e+12", "optimal_length": "11", "subject": "A1SJRFJWFXSDH4"}
{"rt": "18379.0", "trial_number": "0", "skipped": "False", "complete": "True", "assignment": "3M0BCWMB8W4W5M7WZVX3HDH1P53WB1", "start_time": "1.51815759353e+12", "human_length": "13", "nodes_expanded": "999", "instance": "prb29414", "end_time": "1.51815761190e+12", "optimal_length": "11", "subject": "A53S7J4JGWG38"}
{"rt": "14821.0", "trial_number": "0", "skipped": "False", "complete": "True", "assignment": "3IXEICO793RY7TM78ZBKJDOA7ADT6Q", "start_time": "1.51816858659e+12", "human_length": "11", "nodes_expanded": "999", "instance": "prb29414", "end_time": "1.51816860141e+12", "optimal_length": "11", "subject": "ALH1K6ZAQQMN7"}
