{"rt": "17103.0", "trial_number": "0", "skipped": "False", "complete": "True", "assignment": "3AZHRG4CU5SYU12YRVPCSZALW5003R", "start_time": "1.51630810035e+12", "human_length": "19", "nodes_expanded": "999", "instance": "prb23404", "end_time": "1.51630811745e+12", "optimal_length": "14", "subject": "ARWF605I7RWM7"}
{"rt": "50257.0", "trial_number": "0", "skipped": "False", "complete": "True", "assignment": "3ZV9H2YQQEFR2R3JK2IXZUJPXAF3WW", "start_time": "1.51630963217e+12", "human_length": "28", "nodes_expanded": "999", "instance": "prb23404", "end_time": "1.51630968243e+12", "optimal_length": "14", "subject": "A289D98Z4GAZ28"}
{"rt": "17900.0", "trial_number": "0", "skipped": "False", "complete": "True", "assignment": "3PMBY0YE28B43VMUKKJ6EDF85RV9C8", "start_time": "1.51638707078e+12", "human_length": "17", "nodes_expanded": "999", "instance": "prb23404", "end_time": "1.51638708868e+12", "optimal_length": "14", "subject": "A191V7PT3DQKDP"}
{"rt": "60788.0", "trial_number": "0", "skipped": "False", "complete": "True", "assignment": "3TYCR1GOTDRCCQYD1V64UK7OE48LZS", "start_time": "1.51639244022e+12", "human_length": "39", "nodes_expanded": "999", "instance": "prb23404", "end_time": "1.516392501e+12", "optimal_length": "14", "subject": "A2MYB6MLQW0IGN"}
{"rt": "23965.0", "trial_number": "0", "skipped": "False", "complete": "True", "assignment": "34BBWHLWHBJ6SUL255PK30LEGY5IWG", "start_time": "1.51639156467e+12", "human_length": "14", "nodes_expanded": "999", "instance": "prb23404", "end_time": "1.51639158864e+12", "optimal_length": "14", "subject": "A214HWAW1PYWO8"}
{"rt": "0.0", "trial_number": "0", "skipped": "False", "complete": "False", "assignment": "3X87C8JFV7JQ2BSCY8KSFD9F2ILSQK", "start_time": "1.51673883612e+12", "human_length": "1", "nodes_expanded": "999", "instance": "prb23404", "end_time": "1.51673883612e+12", "optimal_length": "14", "subject": "A3Q0XAGQ7TD7MP"}
{"rt": "0.0", "trial_number": "1", "skipped": "False", "complete": "False", "assignment": "3X87C8JFV7JQ2BSCY8KSFD9F2ILSQK", "start_time": "1.51673883612e+12", "human_length": "1", "nodes_expanded": "999", "instance": "prb23404", "end_time": "1.51673883612e+12", "optimal_length": "14", "subject": "A3Q0XAGQ7TD7MP"}
{"rt": "52509.0", "trial_number": "2", "skipped": "False", "complete": "True", "assignment": "3X87C8JFV7JQ2BSCY8KSFD9F2ILSQK", "start_time": "1.51673883612e+12", "human_length": "25", "nodes_expanded": "999", "instance": "prb23404", "end_time": "1.51673888863e+12", "optimal_length": "14", "subject": "A3Q0XAGQ7TD7MP"}
{"rt": "41155.0", "trial_number": "3", "skipped": "False", "complete": "True", "assignment": "3GLB5JMZFY3TNXFGYMKRQ0JDXNTDGZ", "start_time": "1.51794533022e+12", "human_length": "18", "nodes_expanded": "999", "instance": "prb23404", "end_time": "1.51794537138e+12", "optimal_length": "14", "subject": "A3Q0XAGQ7TD7MP"}
{"rt": "34560.0", "trial_number": "0", "skipped": "False", "complete": "False", "assignment": "3WSELTNVR4AZUVYAYCSWZIQW0J4ATB", "start_time": "1.51673729406e+12", "human_length": "17", "nodes_expanded": "999", "instance": "prb23404", "end_time": "1.51673732862e+12", "optimal_length": "14", "subject": "A2TQNX64349OZ9"}
{"rt": "0.0", "trial_number": "1", "skipped": "False", "complete": "False", "assignment": "3WSELTNVR4AZUVYAYCSWZIQW0J4ATB", "start_time": "1.51673733451e+12", "human_length": "1", "nodes_expanded": "999", "instance": "prb23404", "end_time": "1.51673733451e+12", "optimal_length": "14", "subject": "A2TQNX64349OZ9"}
{"rt": "0.0", "trial_number": "2", "skipped": "False", "complete": "False", "assignment": "3WSELTNVR4AZUVYAYCSWZIQW0J4ATB", "start_time": "1.51673729406e+12", "human_length": "1", "nodes_expanded": "999", "instance": "prb23404", "end_time": "1.51673729406e+12", "optimal_length": "14", "subject": "A2TQNX64349OZ9"}
{"rt": "0.0", "trial_number": "3", "skipped": "False", "complete": "False", "assignment": "3WSELTNVR4AZUVYAYCSWZIQW0J4ATB", "start_time": "1.51673733451e+12", "human_length": "1", "nodes_expanded": "999", "instance": "prb23404", "end_time": "1.51673733451e+12", "optimal_length": "14", "subject": "A2TQNX64349OZ9"}
{"rt": "0.0", "trial_number": "4", "skipped": "False", "complete": "False", "assignment": "3WSELTNVR4AZUVYAYCSWZIQW0J4ATB", "start_time": "1.51673729406e+12", "human_length": "1", "nodes_expanded": "999", "instance": "prb23404", "end_time": "1.51673729406e+12", "optimal_length": "14", "subject": "A2TQNX64349OZ9"}
{"rt": "32728.0", "trial_number": "5", "skipped": "False", "complete": "True", "assignment": "3WSELTNVR4AZUVYAYCSWZIQW0J4ATB", "start_time": "1.51673733451e+12", "human_length": "14", "nodes_expanded": "999", "instance": "prb23404", "end_time": "1.51673736724e+12", "optimal_length": "14", "subject": "A2TQNX64349OZ9"}
{"rt": "0.0", "trial_number": "0", "skipped": "False", "complete": "False", "assignment": "3X87C8JFV7JQ2BSCY8KSFD9F2ILSQK", "start_time": "1.51674596034e+12", "human_length": "1", "nodes_expanded": "999", "instance": "prb23404", "end_time": "1.51674596034e+12", "optimal_length": "14", "subject": "A21S7MA9DCW95E"}
{"rt": "9464.0", "trial_number": "1", "skipped": "False", "complete": "False", "assignment": "3X87C8JFV7JQ2BSCY8KSFD9F2ILSQK", "start_time": "1.51674596038e+12", "human_length": "5", "nodes_expanded": "999", "instance": "prb23404", "end_time": "1.51674596984e+12", "optimal_length": "14", "subject": "A21S7MA9DCW95E"}
{"rt": "0.0", "trial_number": "2", "skipped": "False", "complete": "False", "assignment": "3X87C8JFV7JQ2BSCY8KSFD9F2ILSQK", "start_time": "1.51674598216e+12", "human_length": "1", "nodes_expanded": "999", "instance": "prb23404", "end_time": "1.51674598216e+12", "optimal_length": "14", "subject": "A21S7MA9DCW95E"}
{"rt": "0.0", "trial_number": "3", "skipped": "False", "complete": "False", "assignment": "3X87C8JFV7JQ2BSCY8KSFD9F2ILSQK", "start_time": "1.51674596034e+12", "human_length": "1", "nodes_expanded": "999", "instance": "prb23404", "end_time": "1.51674596034e+12", "optimal_length": "14", "subject": "A21S7MA9DCW95E"}
{"rt": "0.0", "trial_number": "4", "skipped": "False", "complete": "False", "assignment": "3X87C8JFV7JQ2BSCY8KSFD9F2ILSQK", "start_time": "1.51674596038e+12", "human_length": "1", "nodes_expanded": "999", "instance": "prb23404", "end_time": "1.51674596038e+12", "optimal_length": "14", "subject": "A21S7MA9DCW95E"}
{"rt": "0.0", "trial_number": "5", "skipped": "False", "complete": "False", "assignment": "3X87C8JFV7JQ2BSCY8KSFD9F2ILSQK", "start_time": "1.51674598216e+12", "human_length": "1", "nodes_expanded": "999", "instance": "prb23404", "end_time": "1.51674598216e+12", "optimal_length": "14", "subject": "A21S7MA9DCW95E"}
{"rt": "0.0", "trial_number": "6", "skipped": "False", "complete": "False", "assignment": "3X87C8JFV7JQ2BSCY8KSFD9F2ILSQK", "start_time": "1.51674596034e+12", "human_length": "1", "nodes_expanded": "999", "instance": "prb23404", "end_time": "1.51674596034e+12", "optimal_length": "14", "subject": "A21S7MA9DCW95E"}
{"rt": "0.0", "trial_number": "7", "skipped": "False", "complete": "False", "assignment": "3X87C8JFV7JQ2BSCY8KSFD9F2ILSQK", "start_time": "1.51674596038e+12", "human_length": "1", "nodes_expanded": "999", "instance": "prb23404", "end_time": "1.51674596038e+12", "optimal_length": "14", "subject": "A21S7MA9DCW95E"}
{"rt": "55268.0", "trial_number": "8", "skipped": "False", "complete": "True", "assignment": "3X87C8JFV7JQ2BSCY8KSFD9F2ILSQK", "start_time": "1.51674598216e+12", "human_length": "31", "nodes_expanded": "999", "instance": "prb23404", "end_time": "1.51674603743e+12", "optimal_length": "14", "subject": "A21S7MA9DCW95E"}
{"rt": "55628.0", "trial_number": "0", "skipped": "False", "complete": "False", "assignment": "3X4MXAO0BHWJLTOLVSJTHSM54OHWRG", "start_time": "1.51682279077e+12", "human_length": "19", "nodes_expanded": "999", "instance": "prb23404", "end_time": "1.5168228464e+12", "optimal_length": "14", "subject": "A2IBQA01NR5N76"}
{"rt": "0.0", "trial_number": "1", "skipped": "False", "complete": "False", "assignment": "3X4MXAO0BHWJLTOLVSJTHSM54OHWRG", "start_time": "1.51682284994e+12", "human_length": "1", "nodes_expanded": "999", "instance": "prb23404", "end_time": "1.51682284994e+12", "optimal_length": "14", "subject": "A2IBQA01NR5N76"}
{"rt": "0.0", "trial_number": "2", "skipped": "False", "complete": "False", "assignment": "3X4MXAO0BHWJLTOLVSJTHSM54OHWRG", "start_time": "1.51682279077e+12", "human_length": "1", "nodes_expanded": "999", "instance": "prb23404", "end_time": "1.51682279077e+12", "optimal_length": "14", "subject": "A2IBQA01NR5N76"}
{"rt": "12229.0", "trial_number": "3", "skipped": "False", "complete": "True", "assignment": "3X4MXAO0BHWJLTOLVSJTHSM54OHWRG", "start_time": "1.51682284994e+12", "human_length": "14", "nodes_expanded": "999", "instance": "prb23404", "end_time": "1.51682286217e+12", "optimal_length": "14", "subject": "A2IBQA01NR5N76"}
{"rt": "55628.0", "trial_number": "0", "skipped": "False", "complete": "False", "assignment": "3X4MXAO0BHWJLTOLVSJTHSM54OHWRG", "start_time": "1.51682279077e+12", "human_length": "19", "nodes_expanded": "999", "instance": "prb23404", "end_time": "1.5168228464e+12", "optimal_length": "14", "subject": "A2IBQA01NR5N76"}
{"rt": "12229.0", "trial_number": "1", "skipped": "False", "complete": "True", "assignment": "3X4MXAO0BHWJLTOLVSJTHSM54OHWRG", "start_time": "1.51682284994e+12", "human_length": "14", "nodes_expanded": "999", "instance": "prb23404", "end_time": "1.51682286217e+12", "optimal_length": "14", "subject": "A2IBQA01NR5N76"}
{"rt": "0.0", "trial_number": "0", "skipped": "False", "complete": "False", "assignment": "3IHR8NYAM89M0EPM8U9LH53ZJDTP4U", "start_time": "1.51682497679e+12", "human_length": "1", "nodes_expanded": "999", "instance": "prb23404", "end_time": "1.51682497679e+12", "optimal_length": "14", "subject": "A23437BMZ5T1FH"}
{"rt": "44641.0", "trial_number": "1", "skipped": "False", "complete": "True", "assignment": "3IHR8NYAM89M0EPM8U9LH53ZJDTP4U", "start_time": "1.51682497679e+12", "human_length": "38", "nodes_expanded": "999", "instance": "prb23404", "end_time": "1.51682502143e+12", "optimal_length": "14", "subject": "A23437BMZ5T1FH"}
{"rt": "0.0", "trial_number": "0", "skipped": "False", "complete": "False", "assignment": "3YW4XOSQKRTI0K0Z2YPDTDJVFABU1I", "start_time": "1.51683151477e+12", "human_length": "1", "nodes_expanded": "999", "instance": "prb23404", "end_time": "1.51683151477e+12", "optimal_length": "14", "subject": "A1LR0VQIHQUJAM"}
{"rt": "12234.0", "trial_number": "1", "skipped": "False", "complete": "True", "assignment": "3YW4XOSQKRTI0K0Z2YPDTDJVFABU1I", "start_time": "1.51683151477e+12", "human_length": "15", "nodes_expanded": "999", "instance": "prb23404", "end_time": "1.516831527e+12", "optimal_length": "14", "subject": "A1LR0VQIHQUJAM"}
{"rt": "52509.0", "trial_number": "0", "skipped": "False", "complete": "True", "assignment": "3X87C8JFV7JQ2BSCY8KSFD9F2ILSQK", "start_time": "1.51673883612e+12", "human_length": "25", "nodes_expanded": "999", "instance": "prb23404", "end_time": "1.51673888863e+12", "optimal_length": "14", "subject": "A3Q0XAGQ7TD7MP"}
{"rt": "41155.0", "trial_number": "1", "skipped": "False", "complete": "True", "assignment": "3GLB5JMZFY3TNXFGYMKRQ0JDXNTDGZ", "start_time": "1.51794533022e+12", "human_length": "18", "nodes_expanded": "999", "instance": "prb23404", "end_time": "1.51794537138e+12", "optimal_length": "14", "subject": "A3Q0XAGQ7TD7MP"}
{"rt": "34560.0", "trial_number": "0", "skipped": "False", "complete": "False", "assignment": "3WSELTNVR4AZUVYAYCSWZIQW0J4ATB", "start_time": "1.51673729406e+12", "human_length": "17", "nodes_expanded": "999", "instance": "prb23404", "end_time": "1.51673732862e+12", "optimal_length": "14", "subject": "A2TQNX64349OZ9"}
{"rt": "32728.0", "trial_number": "1", "skipped": "False", "complete": "True", "assignment": "3WSELTNVR4AZUVYAYCSWZIQW0J4ATB", "start_time": "1.51673733451e+12", "human_length": "14", "nodes_expanded": "999", "instance": "prb23404", "end_time": "1.51673736724e+12", "optimal_length": "14", "subject": "A2TQNX64349OZ9"}
{"rt": "0.0", "trial_number": "0", "skipped": "False", "complete": "False", "assignment": "3X87C8JFV7JQ2BSCY8KSFD9F2ILSQK", "start_time": "1.51674596034e+12", "human_length": "1", "nodes_expanded": "999", "instance": "prb23404", "end_time": "1.51674596034e+12", "optimal_length": "14", "subject": "A21S7MA9DCW95E"}
{"rt": "9464.0", "trial_number": "1", "skipped": "False", "complete": "False", "assignment": "3X87C8JFV7JQ2BSCY8KSFD9F2ILSQK", "start_time": "1.51674596038e+12", "human_length": "5", "nodes_expanded": "999", "instance": "prb23404", "end_time": "1.51674596984e+12", "optimal_length": "14", "subject": "A21S7MA9DCW95E"}
{"rt": "55268.0", "trial_number": "2", "skipped": "False", "complete": "True", "assignment": "3X87C8JFV7JQ2BSCY8KSFD9F2ILSQK", "start_time": "1.51674598216e+12", "human_length": "31", "nodes_expanded": "999", "instance": "prb23404", "end_time": "1.51674603743e+12", "optimal_length": "14", "subject": "A21S7MA9DCW95E"}
{"rt": "68087.0", "trial_number": "0", "skipped": "False", "complete": "True", "assignment": "3TS1AR6UQRM7SOIBWPBN8N9589Y7FV", "start_time": "1.51683995474e+12", "human_length": "57", "nodes_expanded": "999", "instance": "prb23404", "end_time": "1.51684002283e+12", "optimal_length": "14", "subject": "A1F4N58CAX8IMK"}
{"rt": "20740.0", "trial_number": "1", "skipped": "False", "complete": "True", "assignment": "35DR22AR5ES6RR89U7EJ1DXW91AX3P", "start_time": "1.51795446428e+12", "human_length": "21", "nodes_expanded": "999", "instance": "prb23404", "end_time": "1.51795448502e+12", "optimal_length": "14", "subject": "A1F4N58CAX8IMK"}
{"rt": "222040.0", "trial_number": "0", "skipped": "False", "complete": "True", "assignment": "3TS1AR6UQRM7SOIBWPBN8N9589Y7FV", "start_time": "1.51684299624e+12", "human_length": "141", "nodes_expanded": "999", "instance": "prb23404", "end_time": "1.51684321828e+12", "optimal_length": "14", "subject": "A15FXHC1CVNW31"}
{"rt": "19438.0", "trial_number": "0", "skipped": "False", "complete": "True", "assignment": "31LM9EDVOM0C0BWUVMJXJINN3QPJNI", "start_time": "1.51752379017e+12", "human_length": "15", "nodes_expanded": "999", "instance": "prb23404", "end_time": "1.51752380961e+12", "optimal_length": "14", "subject": "A1NT8BT94ME6F5"}
{"rt": "61822.0", "trial_number": "0", "skipped": "False", "complete": "True", "assignment": "36H9ULYP6320CJJDXY0KBDEE1Z3JFB", "start_time": "1.51753244186e+12", "human_length": "30", "nodes_expanded": "999", "instance": "prb23404", "end_time": "1.51753250368e+12", "optimal_length": "14", "subject": "AN098C29EGJ6"}
{"rt": "30821.0", "trial_number": "0", "skipped": "False", "complete": "True", "assignment": "3TYCR1GOTDRCCQYD1V64UK7OHTBZLQ", "start_time": "1.51753719541e+12", "human_length": "27", "nodes_expanded": "999", "instance": "prb23404", "end_time": "1.51753722623e+12", "optimal_length": "14", "subject": "A13BZCNJ0WR1T7"}
{"rt": "45504.0", "trial_number": "0", "skipped": "False", "complete": "True", "assignment": "3H0W84IWBLAP4T2UASPNVMF5ZH7ER9", "start_time": "1.51755391294e+12", "human_length": "22", "nodes_expanded": "999", "instance": "prb23404", "end_time": "1.51755395845e+12", "optimal_length": "14", "subject": "A1AKX1C8GCVCTP"}
{"rt": "16250.0", "trial_number": "0", "skipped": "False", "complete": "False", "assignment": "3TPWUS5F8A9FFRZ2DVTYSXNJ6BWWC6", "start_time": "1.51794044212e+12", "human_length": "9", "nodes_expanded": "999", "instance": "prb23404", "end_time": "1.51794045837e+12", "optimal_length": "14", "subject": "A3GXC3VG37CQ3G"}
{"rt": "15396.0", "trial_number": "1", "skipped": "False", "complete": "True", "assignment": "3TPWUS5F8A9FFRZ2DVTYSXNJ6BWWC6", "start_time": "1.51794046069e+12", "human_length": "14", "nodes_expanded": "999", "instance": "prb23404", "end_time": "1.51794047609e+12", "optimal_length": "14", "subject": "A3GXC3VG37CQ3G"}
{"rt": "39730.0", "trial_number": "0", "skipped": "False", "complete": "True", "assignment": "34HJIJKLP64Z5YMIU6IKNXSH7PDV4I", "start_time": "1.51794168711e+12", "human_length": "24", "nodes_expanded": "999", "instance": "prb23404", "end_time": "1.51794172684e+12", "optimal_length": "14", "subject": "A3CTXNQ2GXIQSP"}
{"rt": "25812.0", "trial_number": "0", "skipped": "False", "complete": "True", "assignment": "33PPO7FECWN7JOLBOAKUBCWTC0AIDL", "start_time": "1.51794092011e+12", "human_length": "16", "nodes_expanded": "999", "instance": "prb23404", "end_time": "1.51794094592e+12", "optimal_length": "14", "subject": "AB5IVPS4OP9M8"}
{"rt": "33384.0", "trial_number": "0", "skipped": "False", "complete": "True", "assignment": "3TXD01ZLD5PZSJXIPG8FRBQYTI9U4X", "start_time": "1.51794483572e+12", "human_length": "18", "nodes_expanded": "999", "instance": "prb23404", "end_time": "1.51794486911e+12", "optimal_length": "14", "subject": "A3BPRPN10HJD4B"}
{"rt": "11206.0", "trial_number": "0", "skipped": "False", "complete": "False", "assignment": "3STRJBFXOXZ5687WA35LTWTS7QZKTT", "start_time": "1.51794559381e+12", "human_length": "4", "nodes_expanded": "999", "instance": "prb23404", "end_time": "1.51794560502e+12", "optimal_length": "14", "subject": "A3OB6REG5CGHK1"}
{"rt": "11467.0", "trial_number": "1", "skipped": "False", "complete": "True", "assignment": "3STRJBFXOXZ5687WA35LTWTS7QZKTT", "start_time": "1.51794560828e+12", "human_length": "14", "nodes_expanded": "999", "instance": "prb23404", "end_time": "1.51794561974e+12", "optimal_length": "14", "subject": "A3OB6REG5CGHK1"}
{"rt": "20554.0", "trial_number": "0", "skipped": "False", "complete": "False", "assignment": "33PPO7FECWN7JOLBOAKUBCWTC0AIDL", "start_time": "1.51794942708e+12", "human_length": "6", "nodes_expanded": "999", "instance": "prb23404", "end_time": "1.51794944764e+12", "optimal_length": "14", "subject": "AXKM02NVXNGOM"}
{"rt": "36508.0", "trial_number": "1", "skipped": "False", "complete": "True", "assignment": "33PPO7FECWN7JOLBOAKUBCWTC0AIDL", "start_time": "1.51794945254e+12", "human_length": "14", "nodes_expanded": "999", "instance": "prb23404", "end_time": "1.51794948905e+12", "optimal_length": "14", "subject": "AXKM02NVXNGOM"}
{"rt": "13681.0", "trial_number": "0", "skipped": "False", "complete": "True", "assignment": "3PB5A5BD0WED6OE679H5Q89HBDGG71", "start_time": "1.51795314589e+12", "human_length": "14", "nodes_expanded": "999", "instance": "prb23404", "end_time": "1.51795315957e+12", "optimal_length": "14", "subject": "A1USR9JCAMDGM3"}
{"rt": "27542.0", "trial_number": "0", "skipped": "False", "complete": "True", "assignment": "33F859I567LE8WC74WB3GA7E94XBHW", "start_time": "1.51796781705e+12", "human_length": "15", "nodes_expanded": "999", "instance": "prb23404", "end_time": "1.51796784459e+12", "optimal_length": "14", "subject": "A1GQS6USF2JEYG"}
{"rt": "29602.0", "trial_number": "0", "skipped": "False", "complete": "True", "assignment": "3IJXV6UZ1YR1KY4G6BFEG1DXR47RIC", "start_time": "1.51797325474e+12", "human_length": "31", "nodes_expanded": "999", "instance": "prb23404", "end_time": "1.51797328435e+12", "optimal_length": "14", "subject": "A18T3WK7J16C1B"}
{"rt": "15857.0", "trial_number": "0", "skipped": "False", "complete": "True", "assignment": "3FTF2T8WLSQDHTSZ1BJ7Q7MB14SW9H", "start_time": "1.51813676845e+12", "human_length": "14", "nodes_expanded": "999", "instance": "prb23404", "end_time": "1.5181367843e+12", "optimal_length": "14", "subject": "A1IUH9D7N69VS"}
{"rt": "55577.0", "trial_number": "0", "skipped": "False", "complete": "False", "assignment": "3XC1O3LBOTUGQEPEV3HM8W67X4RTLL", "start_time": "1.51813621462e+12", "human_length": "23", "nodes_expanded": "999", "instance": "prb23404", "end_time": "1.5181362702e+12", "optimal_length": "14", "subject": "A1ZTSCPETU3UJW"}
{"rt": "57812.0", "trial_number": "1", "skipped": "True", "complete": "False", "assignment": "3XC1O3LBOTUGQEPEV3HM8W67X4RTLL", "start_time": "1.5181362779e+12", "human_length": "20", "nodes_expanded": "999", "instance": "prb23404", "end_time": "1.51813633572e+12", "optimal_length": "14", "subject": "A1ZTSCPETU3UJW"}
{"rt": "39639.0", "trial_number": "0", "skipped": "False", "complete": "True", "assignment": "3TAYZSBPLMG9ASQRWXURJVBCPLN2SH", "start_time": "1.51813692198e+12", "human_length": "26", "nodes_expanded": "999", "instance": "prb23404", "end_time": "1.51813696162e+12", "optimal_length": "14", "subject": "A2RCYLKY072XXO"}
{"rt": "52712.0", "trial_number": "0", "skipped": "False", "complete": "True", "assignment": "3ZSANO2JCGFTBM23KS9Y3E51YP4FSQ", "start_time": "1.51814240746e+12", "human_length": "40", "nodes_expanded": "999", "instance": "prb23404", "end_time": "1.51814246018e+12", "optimal_length": "14", "subject": "A1F42D4L22K5ND"}
{"rt": "307525.0", "trial_number": "0", "skipped": "False", "complete": "True", "assignment": "3HWRJOOET6A15827PHPSLWK1MOYSEU", "start_time": "1.51814420646e+12", "human_length": "203", "nodes_expanded": "999", "instance": "prb23404", "end_time": "1.51814451399e+12", "optimal_length": "14", "subject": "AO1QGAUZ85T6L"}
{"rt": "28189.0", "trial_number": "0", "skipped": "False", "complete": "True", "assignment": "3XLBSAQ9Z5KDX59BX15UBFPNNHYZ7Q", "start_time": "1.51814622681e+12", "human_length": "21", "nodes_expanded": "999", "instance": "prb23404", "end_time": "1.518146255e+12", "optimal_length": "14", "subject": "A1HFNOKU591WCY"}
{"rt": "0.0", "trial_number": "0", "skipped": "False", "complete": "False", "assignment": "3EWIJTFFVPF14ZIVGF68BQEIRXP0ER", "start_time": "1.51814862058e+12", "human_length": "1", "nodes_expanded": "999", "instance": "prb23404", "end_time": "1.51814862058e+12", "optimal_length": "14", "subject": "A30AGR5KF8IEL"}
{"rt": "13697.0", "trial_number": "1", "skipped": "False", "complete": "False", "assignment": "3EWIJTFFVPF14ZIVGF68BQEIRXP0ER", "start_time": "1.51814862059e+12", "human_length": "4", "nodes_expanded": "999", "instance": "prb23404", "end_time": "1.51814863429e+12", "optimal_length": "14", "subject": "A30AGR5KF8IEL"}
{"rt": "31833.0", "trial_number": "2", "skipped": "False", "complete": "True", "assignment": "3EWIJTFFVPF14ZIVGF68BQEIRXP0ER", "start_time": "1.5181486581e+12", "human_length": "15", "nodes_expanded": "999", "instance": "prb23404", "end_time": "1.51814868993e+12", "optimal_length": "14", "subject": "A30AGR5KF8IEL"}
{"rt": "24382.0", "trial_number": "0", "skipped": "False", "complete": "True", "assignment": "3FUI0JHJPY6UBT1VAI7VUX8S3KH33W", "start_time": "1.51815200784e+12", "human_length": "22", "nodes_expanded": "999", "instance": "prb23404", "end_time": "1.51815203222e+12", "optimal_length": "14", "subject": "A2QIZ31TMHU0GD"}
{"rt": "28567.0", "trial_number": "0", "skipped": "False", "complete": "True", "assignment": "37QW5D2ZRHUKW7SGCE3STMOFBMK8SX", "start_time": "1.51815664989e+12", "human_length": "18", "nodes_expanded": "999", "instance": "prb23404", "end_time": "1.51815667846e+12", "optimal_length": "14", "subject": "AMW2XLD9443OH"}
{"rt": "13125.0", "trial_number": "0", "skipped": "True", "complete": "False", "assignment": "3M0BCWMB8W4W5M7WZVX3HDH1P53WB1", "start_time": "1.51816109534e+12", "human_length": "7", "nodes_expanded": "999", "instance": "prb23404", "end_time": "1.51816110847e+12", "optimal_length": "14", "subject": "A53S7J4JGWG38"}
{"rt": "255160.0", "trial_number": "0", "skipped": "True", "complete": "False", "assignment": "3SITXWYCNWHBUMCM90TPJWV8Y7AXBW", "start_time": "1.51816388766e+12", "human_length": "74", "nodes_expanded": "999", "instance": "prb23404", "end_time": "1.51816414282e+12", "optimal_length": "14", "subject": "A28RX7L0QZ993M"}
{"rt": "26906.0", "trial_number": "0", "skipped": "False", "complete": "True", "assignment": "3IXEICO793RY7TM78ZBKJDOA7ADT6Q", "start_time": "1.51816727448e+12", "human_length": "21", "nodes_expanded": "999", "instance": "prb23404", "end_time": "1.51816730139e+12", "optimal_length": "14", "subject": "ALH1K6ZAQQMN7"}
