{"rt": "166095.0", "trial_number": "0", "skipped": "False", "complete": "True", "assignment": "3AZHRG4CU5SYU12YRVPCSZALW5003R", "start_time": "1.51630659783e+12", "human_length": "149", "nodes_expanded": "999", "instance": "prb20888", "end_time": "1.51630676392e+12", "optimal_length": "14", "subject": "ARWF605I7RWM7"}
{"rt": "564462.0", "trial_number": "0", "skipped": "False", "complete": "True", "assignment": "3ZV9H2YQQEFR2R3JK2IXZUJPXAF3WW", "start_time": "1.51630856936e+12", "human_length": "245", "nodes_expanded": "999", "instance": "prb20888", "end_time": "1.51630913382e+12", "optimal_length": "14", "subject": "A289D98Z4GAZ28"}
{"rt": "32402.0", "trial_number": "0", "skipped": "False", "complete": "True", "assignment": "3PMBY0YE28B43VMUKKJ6EDF85RV9C8", "start_time": "1.51638737842e+12", "human_length": "28", "nodes_expanded": "999", "instance": "prb20888", "end_time": "1.51638741082e+12", "optimal_length": "14", "subject": "A191V7PT3DQKDP"}
{"rt": "0.0", "trial_number": "0", "skipped": "False", "complete": "False", "assignment": "34BBWHLWHBJ6SUL255PK30LEGY5IWG", "start_time": "1.51639121694e+12", "human_length": "1", "nodes_expanded": "999", "instance": "prb20888", "end_time": "1.51639121694e+12", "optimal_length": "14", "subject": "A214HWAW1PYWO8"}
{"rt": "38125.0", "trial_number": "1", "skipped": "False", "complete": "False", "assignment": "34BBWHLWHBJ6SUL255PK30LEGY5IWG", "start_time": "1.51639121717e+12", "human_length": "34", "nodes_expanded": "999", "instance": "prb20888", "end_time": "1.51639125529e+12", "optimal_length": "14", "subject": "A214HWAW1PYWO8"}
{"rt": "128791.0", "trial_number": "2", "skipped": "False", "complete": "True", "assignment": "34BBWHLWHBJ6SUL255PK30LEGY5IWG", "start_time": "1.51639129612e+12", "human_length": "28", "nodes_expanded": "999", "instance": "prb20888", "end_time": "1.51639142491e+12", "optimal_length": "14", "subject": "A214HWAW1PYWO8"}
{"rt": "31123.0", "trial_number": "0", "skipped": "False", "complete": "False", "assignment": "3VE8AYVF8N5BS2NU6U3TMN50JMNF8V", "start_time": "1.51673731569e+12", "human_length": "10", "nodes_expanded": "999", "instance": "prb20888", "end_time": "1.51673734681e+12", "optimal_length": "14", "subject": "A18QU0YQB6Q8DF"}
{"rt": "0.0", "trial_number": "1", "skipped": "False", "complete": "False", "assignment": "3VE8AYVF8N5BS2NU6U3TMN50JMNF8V", "start_time": "1.51673735503e+12", "human_length": "1", "nodes_expanded": "999", "instance": "prb20888", "end_time": "1.51673735503e+12", "optimal_length": "14", "subject": "A18QU0YQB6Q8DF"}
{"rt": "0.0", "trial_number": "2", "skipped": "False", "complete": "False", "assignment": "3VE8AYVF8N5BS2NU6U3TMN50JMNF8V", "start_time": "1.51673731569e+12", "human_length": "1", "nodes_expanded": "999", "instance": "prb20888", "end_time": "1.51673731569e+12", "optimal_length": "14", "subject": "A18QU0YQB6Q8DF"}
{"rt": "0.0", "trial_number": "3", "skipped": "False", "complete": "False", "assignment": "3VE8AYVF8N5BS2NU6U3TMN50JMNF8V", "start_time": "1.51673735503e+12", "human_length": "1", "nodes_expanded": "999", "instance": "prb20888", "end_time": "1.51673735503e+12", "optimal_length": "14", "subject": "A18QU0YQB6Q8DF"}
{"rt": "0.0", "trial_number": "4", "skipped": "False", "complete": "False", "assignment": "3VE8AYVF8N5BS2NU6U3TMN50JMNF8V", "start_time": "1.51673731569e+12", "human_length": "1", "nodes_expanded": "999", "instance": "prb20888", "end_time": "1.51673731569e+12", "optimal_length": "14", "subject": "A18QU0YQB6Q8DF"}
{"rt": "33556.0", "trial_number": "5", "skipped": "False", "complete": "True", "assignment": "3VE8AYVF8N5BS2NU6U3TMN50JMNF8V", "start_time": "1.51673735503e+12", "human_length": "19", "nodes_expanded": "999", "instance": "prb20888", "end_time": "1.51673738859e+12", "optimal_length": "14", "subject": "A18QU0YQB6Q8DF"}
{"rt": "0.0", "trial_number": "0", "skipped": "False", "complete": "False", "assignment": "3X87C8JFV7JQ2BSCY8KSFD9F2ILSQK", "start_time": "1.51674082108e+12", "human_length": "1", "nodes_expanded": "999", "instance": "prb20888", "end_time": "1.51674082108e+12", "optimal_length": "14", "subject": "A3Q0XAGQ7TD7MP"}
{"rt": "0.0", "trial_number": "1", "skipped": "False", "complete": "False", "assignment": "3X87C8JFV7JQ2BSCY8KSFD9F2ILSQK", "start_time": "1.51674082108e+12", "human_length": "1", "nodes_expanded": "999", "instance": "prb20888", "end_time": "1.51674082108e+12", "optimal_length": "14", "subject": "A3Q0XAGQ7TD7MP"}
{"rt": "48652.0", "trial_number": "2", "skipped": "False", "complete": "True", "assignment": "3X87C8JFV7JQ2BSCY8KSFD9F2ILSQK", "start_time": "1.51674082108e+12", "human_length": "26", "nodes_expanded": "999", "instance": "prb20888", "end_time": "1.51674086974e+12", "optimal_length": "14", "subject": "A3Q0XAGQ7TD7MP"}
{"rt": "175386.0", "trial_number": "3", "skipped": "False", "complete": "False", "assignment": "3GLB5JMZFY3TNXFGYMKRQ0JDXNTDGZ", "start_time": "1.51794758356e+12", "human_length": "65", "nodes_expanded": "999", "instance": "prb20888", "end_time": "1.51794775895e+12", "optimal_length": "14", "subject": "A3Q0XAGQ7TD7MP"}
{"rt": "20058.0", "trial_number": "4", "skipped": "True", "complete": "False", "assignment": "3GLB5JMZFY3TNXFGYMKRQ0JDXNTDGZ", "start_time": "1.51794776528e+12", "human_length": "7", "nodes_expanded": "999", "instance": "prb20888", "end_time": "1.51794778534e+12", "optimal_length": "14", "subject": "A3Q0XAGQ7TD7MP"}
{"rt": "12070.0", "trial_number": "0", "skipped": "False", "complete": "False", "assignment": "3WSELTNVR4AZUVYAYCSWZIQW0J4ATB", "start_time": "1.51673948489e+12", "human_length": "8", "nodes_expanded": "999", "instance": "prb20888", "end_time": "1.51673949696e+12", "optimal_length": "14", "subject": "A2TQNX64349OZ9"}
{"rt": "25612.0", "trial_number": "1", "skipped": "False", "complete": "False", "assignment": "3WSELTNVR4AZUVYAYCSWZIQW0J4ATB", "start_time": "1.51673950114e+12", "human_length": "18", "nodes_expanded": "999", "instance": "prb20888", "end_time": "1.51673952676e+12", "optimal_length": "14", "subject": "A2TQNX64349OZ9"}
{"rt": "0.0", "trial_number": "2", "skipped": "False", "complete": "False", "assignment": "3WSELTNVR4AZUVYAYCSWZIQW0J4ATB", "start_time": "1.51673952939e+12", "human_length": "1", "nodes_expanded": "999", "instance": "prb20888", "end_time": "1.51673952939e+12", "optimal_length": "14", "subject": "A2TQNX64349OZ9"}
{"rt": "0.0", "trial_number": "3", "skipped": "False", "complete": "False", "assignment": "3WSELTNVR4AZUVYAYCSWZIQW0J4ATB", "start_time": "1.51673948489e+12", "human_length": "1", "nodes_expanded": "999", "instance": "prb20888", "end_time": "1.51673948489e+12", "optimal_length": "14", "subject": "A2TQNX64349OZ9"}
{"rt": "0.0", "trial_number": "4", "skipped": "False", "complete": "False", "assignment": "3WSELTNVR4AZUVYAYCSWZIQW0J4ATB", "start_time": "1.51673950114e+12", "human_length": "1", "nodes_expanded": "999", "instance": "prb20888", "end_time": "1.51673950114e+12", "optimal_length": "14", "subject": "A2TQNX64349OZ9"}
{"rt": "0.0", "trial_number": "5", "skipped": "False", "complete": "False", "assignment": "3WSELTNVR4AZUVYAYCSWZIQW0J4ATB", "start_time": "1.51673952939e+12", "human_length": "1", "nodes_expanded": "999", "instance": "prb20888", "end_time": "1.51673952939e+12", "optimal_length": "14", "subject": "A2TQNX64349OZ9"}
{"rt": "0.0", "trial_number": "6", "skipped": "False", "complete": "False", "assignment": "3WSELTNVR4AZUVYAYCSWZIQW0J4ATB", "start_time": "1.51673948489e+12", "human_length": "1", "nodes_expanded": "999", "instance": "prb20888", "end_time": "1.51673948489e+12", "optimal_length": "14", "subject": "A2TQNX64349OZ9"}
{"rt": "0.0", "trial_number": "7", "skipped": "False", "complete": "False", "assignment": "3WSELTNVR4AZUVYAYCSWZIQW0J4ATB", "start_time": "1.51673950114e+12", "human_length": "1", "nodes_expanded": "999", "instance": "prb20888", "end_time": "1.51673950114e+12", "optimal_length": "14", "subject": "A2TQNX64349OZ9"}
{"rt": "26334.0", "trial_number": "8", "skipped": "False", "complete": "True", "assignment": "3WSELTNVR4AZUVYAYCSWZIQW0J4ATB", "start_time": "1.51673952939e+12", "human_length": "25", "nodes_expanded": "999", "instance": "prb20888", "end_time": "1.51673955573e+12", "optimal_length": "14", "subject": "A2TQNX64349OZ9"}
{"rt": "32337.0", "trial_number": "0", "skipped": "False", "complete": "False", "assignment": "3X87C8JFV7JQ2BSCY8KSFD9F2ILSQK", "start_time": "1.51674395242e+12", "human_length": "8", "nodes_expanded": "999", "instance": "prb20888", "end_time": "1.51674398475e+12", "optimal_length": "14", "subject": "A21S7MA9DCW95E"}
{"rt": "16826.0", "trial_number": "1", "skipped": "False", "complete": "False", "assignment": "3X87C8JFV7JQ2BSCY8KSFD9F2ILSQK", "start_time": "1.51674398826e+12", "human_length": "7", "nodes_expanded": "999", "instance": "prb20888", "end_time": "1.51674400509e+12", "optimal_length": "14", "subject": "A21S7MA9DCW95E"}
{"rt": "7589.0", "trial_number": "2", "skipped": "False", "complete": "False", "assignment": "3X87C8JFV7JQ2BSCY8KSFD9F2ILSQK", "start_time": "1.51674400796e+12", "human_length": "5", "nodes_expanded": "999", "instance": "prb20888", "end_time": "1.51674401555e+12", "optimal_length": "14", "subject": "A21S7MA9DCW95E"}
{"rt": "26477.0", "trial_number": "3", "skipped": "False", "complete": "False", "assignment": "3X87C8JFV7JQ2BSCY8KSFD9F2ILSQK", "start_time": "1.5167440228e+12", "human_length": "14", "nodes_expanded": "999", "instance": "prb20888", "end_time": "1.51674404928e+12", "optimal_length": "14", "subject": "A21S7MA9DCW95E"}
{"rt": "0.0", "trial_number": "4", "skipped": "False", "complete": "False", "assignment": "3X87C8JFV7JQ2BSCY8KSFD9F2ILSQK", "start_time": "1.51674406204e+12", "human_length": "1", "nodes_expanded": "999", "instance": "prb20888", "end_time": "1.51674406204e+12", "optimal_length": "14", "subject": "A21S7MA9DCW95E"}
{"rt": "0.0", "trial_number": "5", "skipped": "False", "complete": "False", "assignment": "3X87C8JFV7JQ2BSCY8KSFD9F2ILSQK", "start_time": "1.51674395242e+12", "human_length": "1", "nodes_expanded": "999", "instance": "prb20888", "end_time": "1.51674395242e+12", "optimal_length": "14", "subject": "A21S7MA9DCW95E"}
{"rt": "0.0", "trial_number": "6", "skipped": "False", "complete": "False", "assignment": "3X87C8JFV7JQ2BSCY8KSFD9F2ILSQK", "start_time": "1.51674398826e+12", "human_length": "1", "nodes_expanded": "999", "instance": "prb20888", "end_time": "1.51674398826e+12", "optimal_length": "14", "subject": "A21S7MA9DCW95E"}
{"rt": "0.0", "trial_number": "7", "skipped": "False", "complete": "False", "assignment": "3X87C8JFV7JQ2BSCY8KSFD9F2ILSQK", "start_time": "1.51674400796e+12", "human_length": "1", "nodes_expanded": "999", "instance": "prb20888", "end_time": "1.51674400796e+12", "optimal_length": "14", "subject": "A21S7MA9DCW95E"}
{"rt": "0.0", "trial_number": "8", "skipped": "False", "complete": "False", "assignment": "3X87C8JFV7JQ2BSCY8KSFD9F2ILSQK", "start_time": "1.5167440228e+12", "human_length": "1", "nodes_expanded": "999", "instance": "prb20888", "end_time": "1.5167440228e+12", "optimal_length": "14", "subject": "A21S7MA9DCW95E"}
{"rt": "0.0", "trial_number": "9", "skipped": "False", "complete": "False", "assignment": "3X87C8JFV7JQ2BSCY8KSFD9F2ILSQK", "start_time": "1.51674406204e+12", "human_length": "1", "nodes_expanded": "999", "instance": "prb20888", "end_time": "1.51674406204e+12", "optimal_length": "14", "subject": "A21S7MA9DCW95E"}
{"rt": "0.0", "trial_number": "10", "skipped": "False", "complete": "False", "assignment": "3X87C8JFV7JQ2BSCY8KSFD9F2ILSQK", "start_time": "1.51674395242e+12", "human_length": "1", "nodes_expanded": "999", "instance": "prb20888", "end_time": "1.51674395242e+12", "optimal_length": "14", "subject": "A21S7MA9DCW95E"}
{"rt": "0.0", "trial_number": "11", "skipped": "False", "complete": "False", "assignment": "3X87C8JFV7JQ2BSCY8KSFD9F2ILSQK", "start_time": "1.51674398826e+12", "human_length": "1", "nodes_expanded": "999", "instance": "prb20888", "end_time": "1.51674398826e+12", "optimal_length": "14", "subject": "A21S7MA9DCW95E"}
{"rt": "0.0", "trial_number": "12", "skipped": "False", "complete": "False", "assignment": "3X87C8JFV7JQ2BSCY8KSFD9F2ILSQK", "start_time": "1.51674400796e+12", "human_length": "1", "nodes_expanded": "999", "instance": "prb20888", "end_time": "1.51674400796e+12", "optimal_length": "14", "subject": "A21S7MA9DCW95E"}
{"rt": "0.0", "trial_number": "13", "skipped": "False", "complete": "False", "assignment": "3X87C8JFV7JQ2BSCY8KSFD9F2ILSQK", "start_time": "1.5167440228e+12", "human_length": "1", "nodes_expanded": "999", "instance": "prb20888", "end_time": "1.5167440228e+12", "optimal_length": "14", "subject": "A21S7MA9DCW95E"}
{"rt": "40568.0", "trial_number": "14", "skipped": "True", "complete": "False", "assignment": "3X87C8JFV7JQ2BSCY8KSFD9F2ILSQK", "start_time": "1.51674406204e+12", "human_length": "103", "nodes_expanded": "999", "instance": "prb20888", "end_time": "1.5167441026e+12", "optimal_length": "14", "subject": "A21S7MA9DCW95E"}
{"rt": "63797.0", "trial_number": "0", "skipped": "False", "complete": "False", "assignment": "3IJXV6UZ1YR1KY4G6BFEG1DXP7SRI1", "start_time": "1.51674895645e+12", "human_length": "34", "nodes_expanded": "999", "instance": "prb20888", "end_time": "1.51674902025e+12", "optimal_length": "14", "subject": "A2RTJ6BDY0DZVZ"}
{"rt": "40464.0", "trial_number": "1", "skipped": "False", "complete": "False", "assignment": "3IJXV6UZ1YR1KY4G6BFEG1DXP7SRI1", "start_time": "1.51674902351e+12", "human_length": "19", "nodes_expanded": "999", "instance": "prb20888", "end_time": "1.51674906397e+12", "optimal_length": "14", "subject": "A2RTJ6BDY0DZVZ"}
{"rt": "0.0", "trial_number": "2", "skipped": "False", "complete": "False", "assignment": "3IJXV6UZ1YR1KY4G6BFEG1DXP7SRI1", "start_time": "1.51674906686e+12", "human_length": "1", "nodes_expanded": "999", "instance": "prb20888", "end_time": "1.51674906686e+12", "optimal_length": "14", "subject": "A2RTJ6BDY0DZVZ"}
{"rt": "0.0", "trial_number": "3", "skipped": "False", "complete": "False", "assignment": "3IJXV6UZ1YR1KY4G6BFEG1DXP7SRI1", "start_time": "1.51674895645e+12", "human_length": "1", "nodes_expanded": "999", "instance": "prb20888", "end_time": "1.51674895645e+12", "optimal_length": "14", "subject": "A2RTJ6BDY0DZVZ"}
{"rt": "0.0", "trial_number": "4", "skipped": "False", "complete": "False", "assignment": "3IJXV6UZ1YR1KY4G6BFEG1DXP7SRI1", "start_time": "1.51674902351e+12", "human_length": "1", "nodes_expanded": "999", "instance": "prb20888", "end_time": "1.51674902351e+12", "optimal_length": "14", "subject": "A2RTJ6BDY0DZVZ"}
{"rt": "0.0", "trial_number": "5", "skipped": "False", "complete": "False", "assignment": "3IJXV6UZ1YR1KY4G6BFEG1DXP7SRI1", "start_time": "1.51674906686e+12", "human_length": "1", "nodes_expanded": "999", "instance": "prb20888", "end_time": "1.51674906686e+12", "optimal_length": "14", "subject": "A2RTJ6BDY0DZVZ"}
{"rt": "0.0", "trial_number": "6", "skipped": "False", "complete": "False", "assignment": "3IJXV6UZ1YR1KY4G6BFEG1DXP7SRI1", "start_time": "1.51674895645e+12", "human_length": "1", "nodes_expanded": "999", "instance": "prb20888", "end_time": "1.51674895645e+12", "optimal_length": "14", "subject": "A2RTJ6BDY0DZVZ"}
{"rt": "0.0", "trial_number": "7", "skipped": "False", "complete": "False", "assignment": "3IJXV6UZ1YR1KY4G6BFEG1DXP7SRI1", "start_time": "1.51674902351e+12", "human_length": "1", "nodes_expanded": "999", "instance": "prb20888", "end_time": "1.51674902351e+12", "optimal_length": "14", "subject": "A2RTJ6BDY0DZVZ"}
{"rt": "41375.0", "trial_number": "8", "skipped": "False", "complete": "True", "assignment": "3IJXV6UZ1YR1KY4G6BFEG1DXP7SRI1", "start_time": "1.51674906686e+12", "human_length": "21", "nodes_expanded": "999", "instance": "prb20888", "end_time": "1.51674910823e+12", "optimal_length": "14", "subject": "A2RTJ6BDY0DZVZ"}
{"rt": "0.0", "trial_number": "0", "skipped": "False", "complete": "False", "assignment": "3I2PTA7R3U2SESF4TZBQORI5LSJQKK", "start_time": "1.51676000249e+12", "human_length": "1", "nodes_expanded": "999", "instance": "prb20888", "end_time": "1.51676000249e+12", "optimal_length": "14", "subject": "A3NMQ3019X6YE0"}
{"rt": "0.0", "trial_number": "1", "skipped": "False", "complete": "False", "assignment": "3I2PTA7R3U2SESF4TZBQORI5LSJQKK", "start_time": "1.51676000249e+12", "human_length": "1", "nodes_expanded": "999", "instance": "prb20888", "end_time": "1.51676000249e+12", "optimal_length": "14", "subject": "A3NMQ3019X6YE0"}
{"rt": "443881.0", "trial_number": "2", "skipped": "False", "complete": "True", "assignment": "3I2PTA7R3U2SESF4TZBQORI5LSJQKK", "start_time": "1.51676000249e+12", "human_length": "174", "nodes_expanded": "999", "instance": "prb20888", "end_time": "1.51676044637e+12", "optimal_length": "14", "subject": "A3NMQ3019X6YE0"}
{"rt": "42456.0", "trial_number": "3", "skipped": "False", "complete": "True", "assignment": "3V5Q80FXIYZ5QB5C6ITQBN30WY823U", "start_time": "1.51753318974e+12", "human_length": "27", "nodes_expanded": "999", "instance": "prb20888", "end_time": "1.51753323219e+12", "optimal_length": "14", "subject": "A3NMQ3019X6YE0"}
{"rt": "61336.0", "trial_number": "0", "skipped": "False", "complete": "False", "assignment": "3X4MXAO0BHWJLTOLVSJTHSM54OHWRG", "start_time": "1.51682242518e+12", "human_length": "42", "nodes_expanded": "999", "instance": "prb20888", "end_time": "1.51682248651e+12", "optimal_length": "14", "subject": "A2IBQA01NR5N76"}
{"rt": "0.0", "trial_number": "1", "skipped": "False", "complete": "False", "assignment": "3X4MXAO0BHWJLTOLVSJTHSM54OHWRG", "start_time": "1.51682249092e+12", "human_length": "1", "nodes_expanded": "999", "instance": "prb20888", "end_time": "1.51682249092e+12", "optimal_length": "14", "subject": "A2IBQA01NR5N76"}
{"rt": "0.0", "trial_number": "2", "skipped": "False", "complete": "False", "assignment": "3X4MXAO0BHWJLTOLVSJTHSM54OHWRG", "start_time": "1.51682242518e+12", "human_length": "1", "nodes_expanded": "999", "instance": "prb20888", "end_time": "1.51682242518e+12", "optimal_length": "14", "subject": "A2IBQA01NR5N76"}
{"rt": "207921.0", "trial_number": "3", "skipped": "False", "complete": "True", "assignment": "3X4MXAO0BHWJLTOLVSJTHSM54OHWRG", "start_time": "1.51682249092e+12", "human_length": "61", "nodes_expanded": "999", "instance": "prb20888", "end_time": "1.51682269884e+12", "optimal_length": "14", "subject": "A2IBQA01NR5N76"}
{"rt": "61336.0", "trial_number": "0", "skipped": "False", "complete": "False", "assignment": "3X4MXAO0BHWJLTOLVSJTHSM54OHWRG", "start_time": "1.51682242518e+12", "human_length": "42", "nodes_expanded": "999", "instance": "prb20888", "end_time": "1.51682248651e+12", "optimal_length": "14", "subject": "A2IBQA01NR5N76"}
{"rt": "207921.0", "trial_number": "1", "skipped": "False", "complete": "True", "assignment": "3X4MXAO0BHWJLTOLVSJTHSM54OHWRG", "start_time": "1.51682249092e+12", "human_length": "61", "nodes_expanded": "999", "instance": "prb20888", "end_time": "1.51682269884e+12", "optimal_length": "14", "subject": "A2IBQA01NR5N76"}
{"rt": "0.0", "trial_number": "0", "skipped": "False", "complete": "False", "assignment": "3IHR8NYAM89M0EPM8U9LH53ZJDTP4U", "start_time": "1.51682642151e+12", "human_length": "1", "nodes_expanded": "999", "instance": "prb20888", "end_time": "1.51682642151e+12", "optimal_length": "14", "subject": "A23437BMZ5T1FH"}
{"rt": "31466.0", "trial_number": "1", "skipped": "False", "complete": "True", "assignment": "3IHR8NYAM89M0EPM8U9LH53ZJDTP4U", "start_time": "1.51682642151e+12", "human_length": "28", "nodes_expanded": "999", "instance": "prb20888", "end_time": "1.51682645298e+12", "optimal_length": "14", "subject": "A23437BMZ5T1FH"}
{"rt": "0.0", "trial_number": "0", "skipped": "False", "complete": "False", "assignment": "3YW4XOSQKRTI0K0Z2YPDTDJVFABU1I", "start_time": "1.51683171709e+12", "human_length": "1", "nodes_expanded": "999", "instance": "prb20888", "end_time": "1.51683171709e+12", "optimal_length": "14", "subject": "A1LR0VQIHQUJAM"}
{"rt": "43976.0", "trial_number": "1", "skipped": "True", "complete": "False", "assignment": "3YW4XOSQKRTI0K0Z2YPDTDJVFABU1I", "start_time": "1.51683171709e+12", "human_length": "50", "nodes_expanded": "999", "instance": "prb20888", "end_time": "1.51683176107e+12", "optimal_length": "14", "subject": "A1LR0VQIHQUJAM"}
{"rt": "31123.0", "trial_number": "0", "skipped": "False", "complete": "False", "assignment": "3VE8AYVF8N5BS2NU6U3TMN50JMNF8V", "start_time": "1.51673731569e+12", "human_length": "10", "nodes_expanded": "999", "instance": "prb20888", "end_time": "1.51673734681e+12", "optimal_length": "14", "subject": "A18QU0YQB6Q8DF"}
{"rt": "33556.0", "trial_number": "1", "skipped": "False", "complete": "True", "assignment": "3VE8AYVF8N5BS2NU6U3TMN50JMNF8V", "start_time": "1.51673735503e+12", "human_length": "19", "nodes_expanded": "999", "instance": "prb20888", "end_time": "1.51673738859e+12", "optimal_length": "14", "subject": "A18QU0YQB6Q8DF"}
{"rt": "48652.0", "trial_number": "0", "skipped": "False", "complete": "True", "assignment": "3X87C8JFV7JQ2BSCY8KSFD9F2ILSQK", "start_time": "1.51674082108e+12", "human_length": "26", "nodes_expanded": "999", "instance": "prb20888", "end_time": "1.51674086974e+12", "optimal_length": "14", "subject": "A3Q0XAGQ7TD7MP"}
{"rt": "175386.0", "trial_number": "1", "skipped": "False", "complete": "False", "assignment": "3GLB5JMZFY3TNXFGYMKRQ0JDXNTDGZ", "start_time": "1.51794758356e+12", "human_length": "65", "nodes_expanded": "999", "instance": "prb20888", "end_time": "1.51794775895e+12", "optimal_length": "14", "subject": "A3Q0XAGQ7TD7MP"}
{"rt": "20058.0", "trial_number": "2", "skipped": "True", "complete": "False", "assignment": "3GLB5JMZFY3TNXFGYMKRQ0JDXNTDGZ", "start_time": "1.51794776528e+12", "human_length": "7", "nodes_expanded": "999", "instance": "prb20888", "end_time": "1.51794778534e+12", "optimal_length": "14", "subject": "A3Q0XAGQ7TD7MP"}
{"rt": "12070.0", "trial_number": "0", "skipped": "False", "complete": "False", "assignment": "3WSELTNVR4AZUVYAYCSWZIQW0J4ATB", "start_time": "1.51673948489e+12", "human_length": "8", "nodes_expanded": "999", "instance": "prb20888", "end_time": "1.51673949696e+12", "optimal_length": "14", "subject": "A2TQNX64349OZ9"}
{"rt": "25612.0", "trial_number": "1", "skipped": "False", "complete": "False", "assignment": "3WSELTNVR4AZUVYAYCSWZIQW0J4ATB", "start_time": "1.51673950114e+12", "human_length": "18", "nodes_expanded": "999", "instance": "prb20888", "end_time": "1.51673952676e+12", "optimal_length": "14", "subject": "A2TQNX64349OZ9"}
{"rt": "26334.0", "trial_number": "2", "skipped": "False", "complete": "True", "assignment": "3WSELTNVR4AZUVYAYCSWZIQW0J4ATB", "start_time": "1.51673952939e+12", "human_length": "25", "nodes_expanded": "999", "instance": "prb20888", "end_time": "1.51673955573e+12", "optimal_length": "14", "subject": "A2TQNX64349OZ9"}
{"rt": "32337.0", "trial_number": "0", "skipped": "False", "complete": "False", "assignment": "3X87C8JFV7JQ2BSCY8KSFD9F2ILSQK", "start_time": "1.51674395242e+12", "human_length": "8", "nodes_expanded": "999", "instance": "prb20888", "end_time": "1.51674398475e+12", "optimal_length": "14", "subject": "A21S7MA9DCW95E"}
{"rt": "16826.0", "trial_number": "1", "skipped": "False", "complete": "False", "assignment": "3X87C8JFV7JQ2BSCY8KSFD9F2ILSQK", "start_time": "1.51674398826e+12", "human_length": "7", "nodes_expanded": "999", "instance": "prb20888", "end_time": "1.51674400509e+12", "optimal_length": "14", "subject": "A21S7MA9DCW95E"}
{"rt": "7589.0", "trial_number": "2", "skipped": "False", "complete": "False", "assignment": "3X87C8JFV7JQ2BSCY8KSFD9F2ILSQK", "start_time": "1.51674400796e+12", "human_length": "5", "nodes_expanded": "999", "instance": "prb20888", "end_time": "1.51674401555e+12", "optimal_length": "14", "subject": "A21S7MA9DCW95E"}
{"rt": "26477.0", "trial_number": "3", "skipped": "False", "complete": "False", "assignment": "3X87C8JFV7JQ2BSCY8KSFD9F2ILSQK", "start_time": "1.5167440228e+12", "human_length": "14", "nodes_expanded": "999", "instance": "prb20888", "end_time": "1.51674404928e+12", "optimal_length": "14", "subject": "A21S7MA9DCW95E"}
{"rt": "42137.0", "trial_number": "4", "skipped": "True", "complete": "False", "assignment": "3X87C8JFV7JQ2BSCY8KSFD9F2ILSQK", "start_time": "1.51674406204e+12", "human_length": "23", "nodes_expanded": "999", "instance": "prb20888", "end_time": "1.51674410417e+12", "optimal_length": "14", "subject": "A21S7MA9DCW95E"}
{"rt": "63797.0", "trial_number": "0", "skipped": "False", "complete": "False", "assignment": "3IJXV6UZ1YR1KY4G6BFEG1DXP7SRI1", "start_time": "1.51674895645e+12", "human_length": "34", "nodes_expanded": "999", "instance": "prb20888", "end_time": "1.51674902025e+12", "optimal_length": "14", "subject": "A2RTJ6BDY0DZVZ"}
{"rt": "40464.0", "trial_number": "1", "skipped": "False", "complete": "False", "assignment": "3IJXV6UZ1YR1KY4G6BFEG1DXP7SRI1", "start_time": "1.51674902351e+12", "human_length": "19", "nodes_expanded": "999", "instance": "prb20888", "end_time": "1.51674906397e+12", "optimal_length": "14", "subject": "A2RTJ6BDY0DZVZ"}
{"rt": "41375.0", "trial_number": "2", "skipped": "False", "complete": "True", "assignment": "3IJXV6UZ1YR1KY4G6BFEG1DXP7SRI1", "start_time": "1.51674906686e+12", "human_length": "21", "nodes_expanded": "999", "instance": "prb20888", "end_time": "1.51674910823e+12", "optimal_length": "14", "subject": "A2RTJ6BDY0DZVZ"}
{"rt": "443881.0", "trial_number": "0", "skipped": "False", "complete": "True", "assignment": "3I2PTA7R3U2SESF4TZBQORI5LSJQKK", "start_time": "1.51676000249e+12", "human_length": "174", "nodes_expanded": "999", "instance": "prb20888", "end_time": "1.51676044637e+12", "optimal_length": "14", "subject": "A3NMQ3019X6YE0"}
{"rt": "42456.0", "trial_number": "1", "skipped": "False", "complete": "True", "assignment": "3V5Q80FXIYZ5QB5C6ITQBN30WY823U", "start_time": "1.51753318974e+12", "human_length": "27", "nodes_expanded": "999", "instance": "prb20888", "end_time": "1.51753323219e+12", "optimal_length": "14", "subject": "A3NMQ3019X6YE0"}
{"rt": "83770.0", "trial_number": "0", "skipped": "False", "complete": "False", "assignment": "3TS1AR6UQRM7SOIBWPBN8N9589Y7FV", "start_time": "1.51683825902e+12", "human_length": "57", "nodes_expanded": "999", "instance": "prb20888", "end_time": "1.51683834279e+12", "optimal_length": "14", "subject": "A1F4N58CAX8IMK"}
{"rt": "76169.0", "trial_number": "1", "skipped": "False", "complete": "True", "assignment": "35DR22AR5ES6RR89U7EJ1DXW91AX3P", "start_time": "1.51795277875e+12", "human_length": "65", "nodes_expanded": "999", "instance": "prb20888", "end_time": "1.51795285492e+12", "optimal_length": "14", "subject": "A1F4N58CAX8IMK"}
{"rt": "132362.0", "trial_number": "0", "skipped": "False", "complete": "True", "assignment": "3TS1AR6UQRM7SOIBWPBN8N9589Y7FV", "start_time": "1.51684246813e+12", "human_length": "58", "nodes_expanded": "999", "instance": "prb20888", "end_time": "1.51684260049e+12", "optimal_length": "14", "subject": "A15FXHC1CVNW31"}
{"rt": "35527.0", "trial_number": "0", "skipped": "False", "complete": "False", "assignment": "31LM9EDVOM0C0BWUVMJXJINN3QPJNI", "start_time": "1.51752416571e+12", "human_length": "20", "nodes_expanded": "999", "instance": "prb20888", "end_time": "1.51752420124e+12", "optimal_length": "14", "subject": "A1NT8BT94ME6F5"}
{"rt": "35668.0", "trial_number": "1", "skipped": "False", "complete": "True", "assignment": "31LM9EDVOM0C0BWUVMJXJINN3QPJNI", "start_time": "1.51752420203e+12", "human_length": "17", "nodes_expanded": "999", "instance": "prb20888", "end_time": "1.5175242377e+12", "optimal_length": "14", "subject": "A1NT8BT94ME6F5"}
{"rt": "95955.0", "trial_number": "0", "skipped": "True", "complete": "False", "assignment": "37TD41K0AIHM8AITTQJXV8KY05QCSB", "start_time": "1.51752282601e+12", "human_length": "42", "nodes_expanded": "999", "instance": "prb20888", "end_time": "1.51752292196e+12", "optimal_length": "14", "subject": "A30KYQGABO7JER"}
{"rt": "60928.0", "trial_number": "0", "skipped": "False", "complete": "True", "assignment": "36H9ULYP6320CJJDXY0KBDEE1Z3JFB", "start_time": "1.51753211154e+12", "human_length": "27", "nodes_expanded": "999", "instance": "prb20888", "end_time": "1.51753217247e+12", "optimal_length": "14", "subject": "AN098C29EGJ6"}
{"rt": "32823.0", "trial_number": "0", "skipped": "False", "complete": "True", "assignment": "3TYCR1GOTDRCCQYD1V64UK7OHTBZLQ", "start_time": "1.51753725727e+12", "human_length": "28", "nodes_expanded": "999", "instance": "prb20888", "end_time": "1.51753729009e+12", "optimal_length": "14", "subject": "A13BZCNJ0WR1T7"}
{"rt": "13656.0", "trial_number": "0", "skipped": "False", "complete": "False", "assignment": "3TPWUS5F8A9FFRZ2DVTYSXNJ6BWWC6", "start_time": "1.51793971799e+12", "human_length": "6", "nodes_expanded": "999", "instance": "prb20888", "end_time": "1.51793973165e+12", "optimal_length": "14", "subject": "A3GXC3VG37CQ3G"}
{"rt": "5911.0", "trial_number": "1", "skipped": "False", "complete": "False", "assignment": "3TPWUS5F8A9FFRZ2DVTYSXNJ6BWWC6", "start_time": "1.51793973636e+12", "human_length": "4", "nodes_expanded": "999", "instance": "prb20888", "end_time": "1.51793974227e+12", "optimal_length": "14", "subject": "A3GXC3VG37CQ3G"}
{"rt": "7760.0", "trial_number": "2", "skipped": "False", "complete": "False", "assignment": "3TPWUS5F8A9FFRZ2DVTYSXNJ6BWWC6", "start_time": "1.51793974656e+12", "human_length": "5", "nodes_expanded": "999", "instance": "prb20888", "end_time": "1.51793975432e+12", "optimal_length": "14", "subject": "A3GXC3VG37CQ3G"}
{"rt": "38362.0", "trial_number": "3", "skipped": "False", "complete": "False", "assignment": "3TPWUS5F8A9FFRZ2DVTYSXNJ6BWWC6", "start_time": "1.51793976040e+12", "human_length": "17", "nodes_expanded": "999", "instance": "prb20888", "end_time": "1.51793979877e+12", "optimal_length": "14", "subject": "A3GXC3VG37CQ3G"}
{"rt": "34492.0", "trial_number": "4", "skipped": "False", "complete": "False", "assignment": "3TPWUS5F8A9FFRZ2DVTYSXNJ6BWWC6", "start_time": "1.51793980496e+12", "human_length": "14", "nodes_expanded": "999", "instance": "prb20888", "end_time": "1.51793983945e+12", "optimal_length": "14", "subject": "A3GXC3VG37CQ3G"}
{"rt": "20314.0", "trial_number": "5", "skipped": "False", "complete": "False", "assignment": "3TPWUS5F8A9FFRZ2DVTYSXNJ6BWWC6", "start_time": "1.51793984355e+12", "human_length": "13", "nodes_expanded": "999", "instance": "prb20888", "end_time": "1.51793986386e+12", "optimal_length": "14", "subject": "A3GXC3VG37CQ3G"}
{"rt": "41101.0", "trial_number": "6", "skipped": "False", "complete": "False", "assignment": "3TPWUS5F8A9FFRZ2DVTYSXNJ6BWWC6", "start_time": "1.51793986476e+12", "human_length": "18", "nodes_expanded": "999", "instance": "prb20888", "end_time": "1.51793990587e+12", "optimal_length": "14", "subject": "A3GXC3VG37CQ3G"}
{"rt": "11511.0", "trial_number": "7", "skipped": "False", "complete": "False", "assignment": "3TPWUS5F8A9FFRZ2DVTYSXNJ6BWWC6", "start_time": "1.51793990984e+12", "human_length": "7", "nodes_expanded": "999", "instance": "prb20888", "end_time": "1.51793992135e+12", "optimal_length": "14", "subject": "A3GXC3VG37CQ3G"}
{"rt": "23333.0", "trial_number": "8", "skipped": "False", "complete": "False", "assignment": "3TPWUS5F8A9FFRZ2DVTYSXNJ6BWWC6", "start_time": "1.51793992248e+12", "human_length": "18", "nodes_expanded": "999", "instance": "prb20888", "end_time": "1.51793994582e+12", "optimal_length": "14", "subject": "A3GXC3VG37CQ3G"}
{"rt": "16230.0", "trial_number": "9", "skipped": "False", "complete": "True", "assignment": "3TPWUS5F8A9FFRZ2DVTYSXNJ6BWWC6", "start_time": "1.51793994858e+12", "human_length": "14", "nodes_expanded": "999", "instance": "prb20888", "end_time": "1.51793996481e+12", "optimal_length": "14", "subject": "A3GXC3VG37CQ3G"}
{"rt": "28544.0", "trial_number": "0", "skipped": "False", "complete": "True", "assignment": "34HJIJKLP64Z5YMIU6IKNXSH7PDV4I", "start_time": "1.51794245293e+12", "human_length": "20", "nodes_expanded": "999", "instance": "prb20888", "end_time": "1.51794248147e+12", "optimal_length": "14", "subject": "A3CTXNQ2GXIQSP"}
{"rt": "50447.0", "trial_number": "0", "skipped": "False", "complete": "True", "assignment": "3TXD01ZLD5PZSJXIPG8FRBQYTI9U4X", "start_time": "1.51794477108e+12", "human_length": "25", "nodes_expanded": "999", "instance": "prb20888", "end_time": "1.51794482153e+12", "optimal_length": "14", "subject": "A3BPRPN10HJD4B"}
{"rt": "21645.0", "trial_number": "0", "skipped": "False", "complete": "False", "assignment": "3STRJBFXOXZ5687WA35LTWTS7QZKTT", "start_time": "1.51794657289e+12", "human_length": "11", "nodes_expanded": "999", "instance": "prb20888", "end_time": "1.51794659453e+12", "optimal_length": "14", "subject": "A3OB6REG5CGHK1"}
{"rt": "0.0", "trial_number": "1", "skipped": "False", "complete": "False", "assignment": "3STRJBFXOXZ5687WA35LTWTS7QZKTT", "start_time": "1.51794660317e+12", "human_length": "1", "nodes_expanded": "999", "instance": "prb20888", "end_time": "1.51794660317e+12", "optimal_length": "14", "subject": "A3OB6REG5CGHK1"}
{"rt": "51400.0", "trial_number": "2", "skipped": "False", "complete": "False", "assignment": "3STRJBFXOXZ5687WA35LTWTS7QZKTT", "start_time": "1.51794660352e+12", "human_length": "25", "nodes_expanded": "999", "instance": "prb20888", "end_time": "1.51794665492e+12", "optimal_length": "14", "subject": "A3OB6REG5CGHK1"}
{"rt": "53411.0", "trial_number": "3", "skipped": "False", "complete": "True", "assignment": "3STRJBFXOXZ5687WA35LTWTS7QZKTT", "start_time": "1.51794666713e+12", "human_length": "28", "nodes_expanded": "999", "instance": "prb20888", "end_time": "1.51794672054e+12", "optimal_length": "14", "subject": "A3OB6REG5CGHK1"}
{"rt": "92086.0", "trial_number": "0", "skipped": "False", "complete": "False", "assignment": "3JCG6DTRV4YEPVDZ64VNKDUEMPGQQ1", "start_time": "1.51794620317e+12", "human_length": "36", "nodes_expanded": "999", "instance": "prb20888", "end_time": "1.51794629526e+12", "optimal_length": "14", "subject": "A2V7KYLBCBTI3B"}
{"rt": "98707.0", "trial_number": "1", "skipped": "False", "complete": "False", "assignment": "3JCG6DTRV4YEPVDZ64VNKDUEMPGQQ1", "start_time": "1.51794630093e+12", "human_length": "33", "nodes_expanded": "999", "instance": "prb20888", "end_time": "1.51794639964e+12", "optimal_length": "14", "subject": "A2V7KYLBCBTI3B"}
{"rt": "41744.0", "trial_number": "2", "skipped": "True", "complete": "False", "assignment": "3JCG6DTRV4YEPVDZ64VNKDUEMPGQQ1", "start_time": "1.51794641281e+12", "human_length": "12", "nodes_expanded": "999", "instance": "prb20888", "end_time": "1.51794645456e+12", "optimal_length": "14", "subject": "A2V7KYLBCBTI3B"}
{"rt": "44198.0", "trial_number": "0", "skipped": "True", "complete": "False", "assignment": "33PPO7FECWN7JOLBOAKUBCWTC0AIDL", "start_time": "1.51795008769e+12", "human_length": "13", "nodes_expanded": "999", "instance": "prb20888", "end_time": "1.51795013189e+12", "optimal_length": "14", "subject": "AXKM02NVXNGOM"}
{"rt": "56415.0", "trial_number": "0", "skipped": "False", "complete": "True", "assignment": "3PB5A5BD0WED6OE679H5Q89HBDGG71", "start_time": "1.51795308859e+12", "human_length": "41", "nodes_expanded": "999", "instance": "prb20888", "end_time": "1.51795314501e+12", "optimal_length": "14", "subject": "A1USR9JCAMDGM3"}
{"rt": "73774.0", "trial_number": "0", "skipped": "False", "complete": "True", "assignment": "33F859I567LE8WC74WB3GA7E94XBHW", "start_time": "1.51796827549e+12", "human_length": "28", "nodes_expanded": "999", "instance": "prb20888", "end_time": "1.51796834926e+12", "optimal_length": "14", "subject": "A1GQS6USF2JEYG"}
{"rt": "65370.0", "trial_number": "0", "skipped": "False", "complete": "True", "assignment": "3IJXV6UZ1YR1KY4G6BFEG1DXR47RIC", "start_time": "1.5179731509e+12", "human_length": "61", "nodes_expanded": "999", "instance": "prb20888", "end_time": "1.51797321627e+12", "optimal_length": "14", "subject": "A18T3WK7J16C1B"}
{"rt": "96974.0", "trial_number": "0", "skipped": "False", "complete": "True", "assignment": "3FTF2T8WLSQDHTSZ1BJ7Q7MB14SW9H", "start_time": "1.51813644039e+12", "human_length": "66", "nodes_expanded": "999", "instance": "prb20888", "end_time": "1.51813653737e+12", "optimal_length": "14", "subject": "A1IUH9D7N69VS"}
{"rt": "16506.0", "trial_number": "0", "skipped": "False", "complete": "False", "assignment": "3XC1O3LBOTUGQEPEV3HM8W67X4RTLL", "start_time": "1.51813678412e+12", "human_length": "6", "nodes_expanded": "999", "instance": "prb20888", "end_time": "1.51813680063e+12", "optimal_length": "14", "subject": "A1ZTSCPETU3UJW"}
{"rt": "97889.0", "trial_number": "1", "skipped": "False", "complete": "True", "assignment": "3XC1O3LBOTUGQEPEV3HM8W67X4RTLL", "start_time": "1.5181368043e+12", "human_length": "49", "nodes_expanded": "999", "instance": "prb20888", "end_time": "1.51813690219e+12", "optimal_length": "14", "subject": "A1ZTSCPETU3UJW"}
{"rt": "25639.0", "trial_number": "0", "skipped": "False", "complete": "True", "assignment": "3TAYZSBPLMG9ASQRWXURJVBCPLN2SH", "start_time": "1.51813723447e+12", "human_length": "18", "nodes_expanded": "999", "instance": "prb20888", "end_time": "1.51813726011e+12", "optimal_length": "14", "subject": "A2RCYLKY072XXO"}
{"rt": "27753.0", "trial_number": "0", "skipped": "False", "complete": "False", "assignment": "3ZSANO2JCGFTBM23KS9Y3E51YP4FSQ", "start_time": "1.51814363257e+12", "human_length": "30", "nodes_expanded": "999", "instance": "prb20888", "end_time": "1.51814366032e+12", "optimal_length": "14", "subject": "A1F42D4L22K5ND"}
{"rt": "24634.0", "trial_number": "1", "skipped": "False", "complete": "True", "assignment": "3ZSANO2JCGFTBM23KS9Y3E51YP4FSQ", "start_time": "1.51814366422e+12", "human_length": "25", "nodes_expanded": "999", "instance": "prb20888", "end_time": "1.51814368885e+12", "optimal_length": "14", "subject": "A1F42D4L22K5ND"}
{"rt": "34517.0", "trial_number": "0", "skipped": "True", "complete": "False", "assignment": "3VE8AYVF8N5BS2NU6U3TMN50MV38FP", "start_time": "1.51814477983e+12", "human_length": "12", "nodes_expanded": "999", "instance": "prb20888", "end_time": "1.51814481435e+12", "optimal_length": "14", "subject": "A1JN13098RIE78"}
{"rt": "40925.0", "trial_number": "0", "skipped": "True", "complete": "False", "assignment": "3XLBSAQ9Z5KDX59BX15UBFPNNHYZ7Q", "start_time": "1.51814703188e+12", "human_length": "37", "nodes_expanded": "999", "instance": "prb20888", "end_time": "1.51814707281e+12", "optimal_length": "14", "subject": "A1HFNOKU591WCY"}
{"rt": "104131.0", "trial_number": "0", "skipped": "False", "complete": "True", "assignment": "37QW5D2ZRHUKW7SGCE3STMOFBMK8SX", "start_time": "1.51815897156e+12", "human_length": "65", "nodes_expanded": "999", "instance": "prb20888", "end_time": "1.51815907569e+12", "optimal_length": "14", "subject": "AMW2XLD9443OH"}
{"rt": "37140.0", "trial_number": "0", "skipped": "True", "complete": "False", "assignment": "3M0BCWMB8W4W5M7WZVX3HDH1P53WB1", "start_time": "1.51816073808e+12", "human_length": "13", "nodes_expanded": "999", "instance": "prb20888", "end_time": "1.51816077522e+12", "optimal_length": "14", "subject": "A53S7J4JGWG38"}
{"rt": "72689.0", "trial_number": "0", "skipped": "True", "complete": "False", "assignment": "3SITXWYCNWHBUMCM90TPJWV8Y7AXBW", "start_time": "1.51816629127e+12", "human_length": "36", "nodes_expanded": "999", "instance": "prb20888", "end_time": "1.51816636396e+12", "optimal_length": "14", "subject": "A28RX7L0QZ993M"}
{"rt": "36513.0", "trial_number": "0", "skipped": "False", "complete": "True", "assignment": "3IXEICO793RY7TM78ZBKJDOA7ADT6Q", "start_time": "1.51816781195e+12", "human_length": "34", "nodes_expanded": "999", "instance": "prb20888", "end_time": "1.51816784846e+12", "optimal_length": "14", "subject": "ALH1K6ZAQQMN7"}
