{"rt": "21169.0", "trial_number": "0", "skipped": "False", "complete": "True", "assignment": "3TYCR1GOTDRCCQYD1V64UK7OHTBZLQ", "start_time": "1.51753713752e+12", "human_length": "20", "nodes_expanded": "999", "instance": "prb26567", "end_time": "1.51753715869e+12", "optimal_length": "7", "subject": "A13BZCNJ0WR1T7"}
{"rt": "20176.0", "trial_number": "0", "skipped": "False", "complete": "True", "assignment": "3TS1AR6UQRM7SOIBWPBN8N9589Y7FV", "start_time": "1.51684487668e+12", "human_length": "23", "nodes_expanded": "999", "instance": "prb26567", "end_time": "1.51684489686e+12", "optimal_length": "7", "subject": "A15FXHC1CVNW31"}
{"rt": "7206.0", "trial_number": "0", "skipped": "False", "complete": "True", "assignment": "3IJXV6UZ1YR1KY4G6BFEG1DXR47RIC", "start_time": "1.51797307772e+12", "human_length": "9", "nodes_expanded": "999", "instance": "prb26567", "end_time": "1.51797308493e+12", "optimal_length": "7", "subject": "A18T3WK7J16C1B"}
{"rt": "10060.0", "trial_number": "0", "skipped": "False", "complete": "True", "assignment": "3PMBY0YE28B43VMUKKJ6EDF85RV9C8", "start_time": "1.51638647476e+12", "human_length": "13", "nodes_expanded": "999", "instance": "prb26567", "end_time": "1.51638648482e+12", "optimal_length": "7", "subject": "A191V7PT3DQKDP"}
{"rt": "11121.0", "trial_number": "0", "skipped": "False", "complete": "True", "assignment": "3H0W84IWBLAP4T2UASPNVMF5ZH7ER9", "start_time": "1.51755234787e+12", "human_length": "8", "nodes_expanded": "999", "instance": "prb26567", "end_time": "1.51755235899e+12", "optimal_length": "7", "subject": "A1AKX1C8GCVCTP"}
{"rt": "9817.0", "trial_number": "0", "skipped": "False", "complete": "True", "assignment": "3ZSANO2JCGFTBM23KS9Y3E51YP4FSQ", "start_time": "1.5181435087e+12", "human_length": "10", "nodes_expanded": "999", "instance": "prb26567", "end_time": "1.51814351851e+12", "optimal_length": "7", "subject": "A1F42D4L22K5ND"}
{"rt": "39518.0", "trial_number": "0", "skipped": "False", "complete": "True", "assignment": "3TS1AR6UQRM7SOIBWPBN8N9589Y7FV", "start_time": "1.51683868497e+12", "human_length": "29", "nodes_expanded": "999", "instance": "prb26567", "end_time": "1.51683872449e+12", "optimal_length": "7", "subject": "A1F4N58CAX8IMK"}
{"rt": "18281.0", "trial_number": "1", "skipped": "False", "complete": "True", "assignment": "35DR22AR5ES6RR89U7EJ1DXW91AX3P", "start_time": "1.51795308753e+12", "human_length": "18", "nodes_expanded": "999", "instance": "prb26567", "end_time": "1.51795310581e+12", "optimal_length": "7", "subject": "A1F4N58CAX8IMK"}
{"rt": "15820.0", "trial_number": "0", "skipped": "False", "complete": "True", "assignment": "33F859I567LE8WC74WB3GA7E94XBHW", "start_time": "1.5179703404e+12", "human_length": "10", "nodes_expanded": "999", "instance": "prb26567", "end_time": "1.51797035622e+12", "optimal_length": "7", "subject": "A1GQS6USF2JEYG"}
{"rt": "15553.0", "trial_number": "0", "skipped": "False", "complete": "True", "assignment": "3XLBSAQ9Z5KDX59BX15UBFPNNHYZ7Q", "start_time": "1.51814669008e+12", "human_length": "10", "nodes_expanded": "999", "instance": "prb26567", "end_time": "1.51814670563e+12", "optimal_length": "7", "subject": "A1HFNOKU591WCY"}
{"rt": "14041.0", "trial_number": "0", "skipped": "False", "complete": "True", "assignment": "3FTF2T8WLSQDHTSZ1BJ7Q7MB14SW9H", "start_time": "1.51813598213e+12", "human_length": "10", "nodes_expanded": "999", "instance": "prb26567", "end_time": "1.51813599617e+12", "optimal_length": "7", "subject": "A1IUH9D7N69VS"}
{"rt": "9754.0", "trial_number": "0", "skipped": "False", "complete": "True", "assignment": "3YW4XOSQKRTI0K0Z2YPDTDJVFABU1I", "start_time": "1.51683264140e+12", "human_length": "10", "nodes_expanded": "999", "instance": "prb26567", "end_time": "1.51683265116e+12", "optimal_length": "7", "subject": "A1LR0VQIHQUJAM"}
{"rt": "16001.0", "trial_number": "0", "skipped": "False", "complete": "True", "assignment": "31LM9EDVOM0C0BWUVMJXJINN3QPJNI", "start_time": "1.51752414885e+12", "human_length": "15", "nodes_expanded": "999", "instance": "prb26567", "end_time": "1.51752416485e+12", "optimal_length": "7", "subject": "A1NT8BT94ME6F5"}
{"rt": "34640.0", "trial_number": "0", "skipped": "False", "complete": "True", "assignment": "3RUIQRXJBCWS71H9MUFVM5WQ3SCLLJ", "start_time": "1.51815591318e+12", "human_length": "17", "nodes_expanded": "999", "instance": "prb26567", "end_time": "1.51815594782e+12", "optimal_length": "7", "subject": "A1SJRFJWFXSDH4"}
{"rt": "41729.0", "trial_number": "0", "skipped": "False", "complete": "True", "assignment": "3M0BCWMB8W4W5M7WZVX3HDH1M3FBWL", "start_time": "1.51683967852e+12", "human_length": "20", "nodes_expanded": "999", "instance": "prb26567", "end_time": "1.51683972025e+12", "optimal_length": "7", "subject": "A1XDMS0KFSF5JW"}
{"rt": "14590.0", "trial_number": "0", "skipped": "False", "complete": "True", "assignment": "3XC1O3LBOTUGQEPEV3HM8W67X4RTLL", "start_time": "1.51813752202e+12", "human_length": "12", "nodes_expanded": "999", "instance": "prb26567", "end_time": "1.51813753661e+12", "optimal_length": "7", "subject": "A1ZTSCPETU3UJW"}
{"rt": "5292.0", "trial_number": "0", "skipped": "False", "complete": "True", "assignment": "34BBWHLWHBJ6SUL255PK30LEGY5IWG", "start_time": "1.51639235535e+12", "human_length": "7", "nodes_expanded": "999", "instance": "prb26567", "end_time": "1.51639236064e+12", "optimal_length": "7", "subject": "A214HWAW1PYWO8"}
{"rt": "0.0", "trial_number": "0", "skipped": "False", "complete": "False", "assignment": "3IHR8NYAM89M0EPM8U9LH53ZJDTP4U", "start_time": "1.51682746311e+12", "human_length": "1", "nodes_expanded": "999", "instance": "prb26567", "end_time": "1.51682746311e+12", "optimal_length": "7", "subject": "A23437BMZ5T1FH"}
{"rt": "19806.0", "trial_number": "1", "skipped": "False", "complete": "True", "assignment": "3IHR8NYAM89M0EPM8U9LH53ZJDTP4U", "start_time": "1.51682746311e+12", "human_length": "13", "nodes_expanded": "999", "instance": "prb26567", "end_time": "1.51682748292e+12", "optimal_length": "7", "subject": "A23437BMZ5T1FH"}
{"rt": "20095.0", "trial_number": "0", "skipped": "False", "complete": "True", "assignment": "30IQTZXKALEAAZ9CBKW0ZFZP6O5X07", "start_time": "1.51794531294e+12", "human_length": "13", "nodes_expanded": "999", "instance": "prb26567", "end_time": "1.51794533304e+12", "optimal_length": "7", "subject": "A23XJ8I86R0O3B"}
{"rt": "29479.0", "trial_number": "0", "skipped": "False", "complete": "True", "assignment": "3SITXWYCNWHBUMCM90TPJWV8Y7AXBW", "start_time": "1.51816649704e+12", "human_length": "15", "nodes_expanded": "999", "instance": "prb26567", "end_time": "1.51816652652e+12", "optimal_length": "7", "subject": "A28RX7L0QZ993M"}
{"rt": "0.0", "trial_number": "0", "skipped": "False", "complete": "False", "assignment": "3X4MXAO0BHWJLTOLVSJTHSM54OHWRG", "start_time": "1.51682380591e+12", "human_length": "1", "nodes_expanded": "999", "instance": "prb26567", "end_time": "1.51682380591e+12", "optimal_length": "7", "subject": "A2IBQA01NR5N76"}
{"rt": "21919.0", "trial_number": "1", "skipped": "False", "complete": "True", "assignment": "3X4MXAO0BHWJLTOLVSJTHSM54OHWRG", "start_time": "1.51682380591e+12", "human_length": "15", "nodes_expanded": "999", "instance": "prb26567", "end_time": "1.51682382783e+12", "optimal_length": "7", "subject": "A2IBQA01NR5N76"}
{"rt": "21919.0", "trial_number": "0", "skipped": "False", "complete": "True", "assignment": "3X4MXAO0BHWJLTOLVSJTHSM54OHWRG", "start_time": "1.51682380591e+12", "human_length": "15", "nodes_expanded": "999", "instance": "prb26567", "end_time": "1.51682382783e+12", "optimal_length": "7", "subject": "A2IBQA01NR5N76"}
{"rt": "45949.0", "trial_number": "0", "skipped": "False", "complete": "True", "assignment": "3TYCR1GOTDRCCQYD1V64UK7OE48LZS", "start_time": "1.51638948802e+12", "human_length": "25", "nodes_expanded": "999", "instance": "prb26567", "end_time": "1.51638953397e+12", "optimal_length": "7", "subject": "A2MYB6MLQW0IGN"}
{"rt": "12660.0", "trial_number": "0", "skipped": "False", "complete": "True", "assignment": "3FUI0JHJPY6UBT1VAI7VUX8S3KH33W", "start_time": "1.51815142653e+12", "human_length": "13", "nodes_expanded": "999", "instance": "prb26567", "end_time": "1.51815143919e+12", "optimal_length": "7", "subject": "A2QIZ31TMHU0GD"}
{"rt": "11691.0", "trial_number": "0", "skipped": "False", "complete": "True", "assignment": "3TAYZSBPLMG9ASQRWXURJVBCPLN2SH", "start_time": "1.51813728961e+12", "human_length": "9", "nodes_expanded": "999", "instance": "prb26567", "end_time": "1.51813730130e+12", "optimal_length": "7", "subject": "A2RCYLKY072XXO"}
{"rt": "0.0", "trial_number": "0", "skipped": "False", "complete": "False", "assignment": "3WSELTNVR4AZUVYAYCSWZIQW0J4ATB", "start_time": "1.51674024301e+12", "human_length": "1", "nodes_expanded": "999", "instance": "prb26567", "end_time": "1.51674024301e+12", "optimal_length": "7", "subject": "A2TQNX64349OZ9"}
{"rt": "0.0", "trial_number": "1", "skipped": "False", "complete": "False", "assignment": "3WSELTNVR4AZUVYAYCSWZIQW0J4ATB", "start_time": "1.51674024301e+12", "human_length": "1", "nodes_expanded": "999", "instance": "prb26567", "end_time": "1.51674024301e+12", "optimal_length": "7", "subject": "A2TQNX64349OZ9"}
{"rt": "10020.0", "trial_number": "2", "skipped": "True", "complete": "False", "assignment": "3WSELTNVR4AZUVYAYCSWZIQW0J4ATB", "start_time": "1.51674024301e+12", "human_length": "30", "nodes_expanded": "999", "instance": "prb26567", "end_time": "1.51674025303e+12", "optimal_length": "7", "subject": "A2TQNX64349OZ9"}
{"rt": "10570.0", "trial_number": "0", "skipped": "True", "complete": "False", "assignment": "3WSELTNVR4AZUVYAYCSWZIQW0J4ATB", "start_time": "1.51674024301e+12", "human_length": "12", "nodes_expanded": "999", "instance": "prb26567", "end_time": "1.51674025358e+12", "optimal_length": "7", "subject": "A2TQNX64349OZ9"}
{"rt": "15441.0", "trial_number": "0", "skipped": "False", "complete": "True", "assignment": "3JCG6DTRV4YEPVDZ64VNKDUEMPGQQ1", "start_time": "1.51794694112e+12", "human_length": "9", "nodes_expanded": "999", "instance": "prb26567", "end_time": "1.51794695656e+12", "optimal_length": "7", "subject": "A2V7KYLBCBTI3B"}
{"rt": "27326.0", "trial_number": "0", "skipped": "False", "complete": "True", "assignment": "37TD41K0AIHM8AITTQJXV8KY05QCSB", "start_time": "1.51752348109e+12", "human_length": "11", "nodes_expanded": "999", "instance": "prb26567", "end_time": "1.51752350842e+12", "optimal_length": "7", "subject": "A30KYQGABO7JER"}
{"rt": "14565.0", "trial_number": "0", "skipped": "False", "complete": "True", "assignment": "34HJIJKLP64Z5YMIU6IKNXSH7PDV4I", "start_time": "1.51794059508e+12", "human_length": "7", "nodes_expanded": "999", "instance": "prb26567", "end_time": "1.51794060964e+12", "optimal_length": "7", "subject": "A3CTXNQ2GXIQSP"}
{"rt": "16422.0", "trial_number": "0", "skipped": "False", "complete": "True", "assignment": "3TMFV4NEP9MD3O9PWJDTQBR0HZYW8I", "start_time": "1.5181457282e+12", "human_length": "11", "nodes_expanded": "999", "instance": "prb26567", "end_time": "1.51814574462e+12", "optimal_length": "7", "subject": "A3GOOI75XOF24V"}
{"rt": "11078.0", "trial_number": "0", "skipped": "False", "complete": "True", "assignment": "3TPWUS5F8A9FFRZ2DVTYSXNJ6BWWC6", "start_time": "1.51794186781e+12", "human_length": "10", "nodes_expanded": "999", "instance": "prb26567", "end_time": "1.51794187888e+12", "optimal_length": "7", "subject": "A3GXC3VG37CQ3G"}
{"rt": "12268.0", "trial_number": "0", "skipped": "False", "complete": "True", "assignment": "3STRJBFXOXZ5687WA35LTWTS7QZKTT", "start_time": "1.51794614521e+12", "human_length": "9", "nodes_expanded": "999", "instance": "prb26567", "end_time": "1.51794615748e+12", "optimal_length": "7", "subject": "A3OB6REG5CGHK1"}
{"rt": "0.0", "trial_number": "0", "skipped": "False", "complete": "False", "assignment": "3X87C8JFV7JQ2BSCY8KSFD9F2ILSQK", "start_time": "1.51673856295e+12", "human_length": "1", "nodes_expanded": "999", "instance": "prb26567", "end_time": "1.51673856295e+12", "optimal_length": "7", "subject": "A3Q0XAGQ7TD7MP"}
{"rt": "0.0", "trial_number": "1", "skipped": "False", "complete": "False", "assignment": "3X87C8JFV7JQ2BSCY8KSFD9F2ILSQK", "start_time": "1.51673856295e+12", "human_length": "1", "nodes_expanded": "999", "instance": "prb26567", "end_time": "1.51673856295e+12", "optimal_length": "7", "subject": "A3Q0XAGQ7TD7MP"}
{"rt": "21989.0", "trial_number": "2", "skipped": "False", "complete": "True", "assignment": "3X87C8JFV7JQ2BSCY8KSFD9F2ILSQK", "start_time": "1.51673856295e+12", "human_length": "10", "nodes_expanded": "999", "instance": "prb26567", "end_time": "1.51673858494e+12", "optimal_length": "7", "subject": "A3Q0XAGQ7TD7MP"}
{"rt": "19833.0", "trial_number": "3", "skipped": "False", "complete": "True", "assignment": "3GLB5JMZFY3TNXFGYMKRQ0JDXNTDGZ", "start_time": "1.51794632728e+12", "human_length": "9", "nodes_expanded": "999", "instance": "prb26567", "end_time": "1.51794634712e+12", "optimal_length": "7", "subject": "A3Q0XAGQ7TD7MP"}
{"rt": "21989.0", "trial_number": "0", "skipped": "False", "complete": "True", "assignment": "3X87C8JFV7JQ2BSCY8KSFD9F2ILSQK", "start_time": "1.51673856295e+12", "human_length": "10", "nodes_expanded": "999", "instance": "prb26567", "end_time": "1.51673858494e+12", "optimal_length": "7", "subject": "A3Q0XAGQ7TD7MP"}
{"rt": "19833.0", "trial_number": "1", "skipped": "False", "complete": "True", "assignment": "3GLB5JMZFY3TNXFGYMKRQ0JDXNTDGZ", "start_time": "1.51794632728e+12", "human_length": "9", "nodes_expanded": "999", "instance": "prb26567", "end_time": "1.51794634712e+12", "optimal_length": "7", "subject": "A3Q0XAGQ7TD7MP"}
{"rt": "19807.0", "trial_number": "0", "skipped": "True", "complete": "False", "assignment": "3M0BCWMB8W4W5M7WZVX3HDH1P53WB1", "start_time": "1.51816040424e+12", "human_length": "12", "nodes_expanded": "999", "instance": "prb26567", "end_time": "1.51816042404e+12", "optimal_length": "7", "subject": "A53S7J4JGWG38"}
{"rt": "27389.0", "trial_number": "0", "skipped": "False", "complete": "True", "assignment": "3U84XHCDIDLGEIRSV37N835DV0K4ZS", "start_time": "1.51794072877e+12", "human_length": "14", "nodes_expanded": "999", "instance": "prb26567", "end_time": "1.51794075616e+12", "optimal_length": "7", "subject": "A8KX1HFH8NE2Q"}
{"rt": "18283.0", "trial_number": "0", "skipped": "False", "complete": "True", "assignment": "33PPO7FECWN7JOLBOAKUBCWTC0AIDL", "start_time": "1.5179415027e+12", "human_length": "10", "nodes_expanded": "999", "instance": "prb26567", "end_time": "1.51794152098e+12", "optimal_length": "7", "subject": "AB5IVPS4OP9M8"}
{"rt": "7753.0", "trial_number": "0", "skipped": "False", "complete": "True", "assignment": "3IXEICO793RY7TM78ZBKJDOA7ADT6Q", "start_time": "1.51816875308e+12", "human_length": "8", "nodes_expanded": "999", "instance": "prb26567", "end_time": "1.51816876083e+12", "optimal_length": "7", "subject": "ALH1K6ZAQQMN7"}
{"rt": "18250.0", "trial_number": "0", "skipped": "False", "complete": "True", "assignment": "36H9ULYP6320CJJDXY0KBDEE1Z3JFB", "start_time": "1.51753320445e+12", "human_length": "9", "nodes_expanded": "999", "instance": "prb26567", "end_time": "1.5175332227e+12", "optimal_length": "7", "subject": "AN098C29EGJ6"}
{"rt": "28326.0", "trial_number": "0", "skipped": "False", "complete": "True", "assignment": "3HWRJOOET6A15827PHPSLWK1MOYSEU", "start_time": "1.51814362873e+12", "human_length": "25", "nodes_expanded": "999", "instance": "prb26567", "end_time": "1.51814365706e+12", "optimal_length": "7", "subject": "AO1QGAUZ85T6L"}
{"rt": "10158.0", "trial_number": "0", "skipped": "False", "complete": "True", "assignment": "3AZHRG4CU5SYU12YRVPCSZALW5003R", "start_time": "1.51630786538e+12", "human_length": "12", "nodes_expanded": "999", "instance": "prb26567", "end_time": "1.51630787554e+12", "optimal_length": "7", "subject": "ARWF605I7RWM7"}
{"rt": "25766.0", "trial_number": "0", "skipped": "False", "complete": "True", "assignment": "33PPO7FECWN7JOLBOAKUBCWTC0AIDL", "start_time": "1.51794912556e+12", "human_length": "9", "nodes_expanded": "999", "instance": "prb26567", "end_time": "1.51794915133e+12", "optimal_length": "7", "subject": "AXKM02NVXNGOM"}
