{"rt": "8944.0", "trial_number": "0", "skipped": "False", "complete": "True", "assignment": "3ON104KXQL4CKNMNKGNG9ZBVBAB4WI", "start_time": "1.51631243878e+12", "human_length": "7", "nodes_expanded": "999", "instance": "prb20059", "end_time": "1.51631244772e+12", "optimal_length": "7", "subject": "AYPOAY43REHC8"}
{"rt": "5488.0", "trial_number": "0", "skipped": "False", "complete": "True", "assignment": "3PMBY0YE28B43VMUKKJ6EDF85RV9C8", "start_time": "1.51638750008e+12", "human_length": "8", "nodes_expanded": "999", "instance": "prb20059", "end_time": "1.51638750557e+12", "optimal_length": "7", "subject": "A191V7PT3DQKDP"}
{"rt": "99539.0", "trial_number": "0", "skipped": "False", "complete": "True", "assignment": "34BBWHLWHBJ6SUL255PK30LEGY5IWG", "start_time": "1.51639173483e+12", "human_length": "7", "nodes_expanded": "999", "instance": "prb20059", "end_time": "1.51639183437e+12", "optimal_length": "7", "subject": "A214HWAW1PYWO8"}
{"rt": "0.0", "trial_number": "0", "skipped": "False", "complete": "False", "assignment": "3VE8AYVF8N5BS2NU6U3TMN50JMNF8V", "start_time": "1.51673599638e+12", "human_length": "1", "nodes_expanded": "999", "instance": "prb20059", "end_time": "1.51673599638e+12", "optimal_length": "7", "subject": "A18QU0YQB6Q8DF"}
{"rt": "0.0", "trial_number": "1", "skipped": "False", "complete": "False", "assignment": "3VE8AYVF8N5BS2NU6U3TMN50JMNF8V", "start_time": "1.51673599638e+12", "human_length": "1", "nodes_expanded": "999", "instance": "prb20059", "end_time": "1.51673599638e+12", "optimal_length": "7", "subject": "A18QU0YQB6Q8DF"}
{"rt": "13067.0", "trial_number": "2", "skipped": "False", "complete": "True", "assignment": "3VE8AYVF8N5BS2NU6U3TMN50JMNF8V", "start_time": "1.51673599638e+12", "human_length": "8", "nodes_expanded": "999", "instance": "prb20059", "end_time": "1.51673600945e+12", "optimal_length": "7", "subject": "A18QU0YQB6Q8DF"}
{"rt": "0.0", "trial_number": "0", "skipped": "False", "complete": "False", "assignment": "3U84XHCDIDLGEIRSV37N835DT5LZ4W", "start_time": "1.516735957e+12", "human_length": "1", "nodes_expanded": "999", "instance": "prb20059", "end_time": "1.516735957e+12", "optimal_length": "7", "subject": "A12723JDRPT207"}
{"rt": "0.0", "trial_number": "1", "skipped": "False", "complete": "False", "assignment": "3U84XHCDIDLGEIRSV37N835DT5LZ4W", "start_time": "1.516735957e+12", "human_length": "1", "nodes_expanded": "999", "instance": "prb20059", "end_time": "1.516735957e+12", "optimal_length": "7", "subject": "A12723JDRPT207"}
{"rt": "9192.0", "trial_number": "2", "skipped": "False", "complete": "True", "assignment": "3U84XHCDIDLGEIRSV37N835DT5LZ4W", "start_time": "1.516735957e+12", "human_length": "9", "nodes_expanded": "999", "instance": "prb20059", "end_time": "1.51673596619e+12", "optimal_length": "7", "subject": "A12723JDRPT207"}
{"rt": "0.0", "trial_number": "0", "skipped": "False", "complete": "False", "assignment": "3X87C8JFV7JQ2BSCY8KSFD9F2ILSQK", "start_time": "1.5167407008e+12", "human_length": "1", "nodes_expanded": "999", "instance": "prb20059", "end_time": "1.5167407008e+12", "optimal_length": "7", "subject": "A3Q0XAGQ7TD7MP"}
{"rt": "0.0", "trial_number": "1", "skipped": "False", "complete": "False", "assignment": "3X87C8JFV7JQ2BSCY8KSFD9F2ILSQK", "start_time": "1.5167407008e+12", "human_length": "1", "nodes_expanded": "999", "instance": "prb20059", "end_time": "1.5167407008e+12", "optimal_length": "7", "subject": "A3Q0XAGQ7TD7MP"}
{"rt": "11988.0", "trial_number": "2", "skipped": "False", "complete": "True", "assignment": "3X87C8JFV7JQ2BSCY8KSFD9F2ILSQK", "start_time": "1.5167407008e+12", "human_length": "8", "nodes_expanded": "999", "instance": "prb20059", "end_time": "1.51674071279e+12", "optimal_length": "7", "subject": "A3Q0XAGQ7TD7MP"}
{"rt": "11099.0", "trial_number": "3", "skipped": "False", "complete": "True", "assignment": "3GLB5JMZFY3TNXFGYMKRQ0JDXNTDGZ", "start_time": "1.51794653215e+12", "human_length": "8", "nodes_expanded": "999", "instance": "prb20059", "end_time": "1.51794654325e+12", "optimal_length": "7", "subject": "A3Q0XAGQ7TD7MP"}
{"rt": "0.0", "trial_number": "0", "skipped": "False", "complete": "False", "assignment": "3WSELTNVR4AZUVYAYCSWZIQW0J4ATB", "start_time": "1.51674014006e+12", "human_length": "1", "nodes_expanded": "999", "instance": "prb20059", "end_time": "1.51674014006e+12", "optimal_length": "7", "subject": "A2TQNX64349OZ9"}
{"rt": "0.0", "trial_number": "1", "skipped": "False", "complete": "False", "assignment": "3WSELTNVR4AZUVYAYCSWZIQW0J4ATB", "start_time": "1.51674014006e+12", "human_length": "1", "nodes_expanded": "999", "instance": "prb20059", "end_time": "1.51674014006e+12", "optimal_length": "7", "subject": "A2TQNX64349OZ9"}
{"rt": "8294.0", "trial_number": "2", "skipped": "False", "complete": "True", "assignment": "3WSELTNVR4AZUVYAYCSWZIQW0J4ATB", "start_time": "1.51674014006e+12", "human_length": "7", "nodes_expanded": "999", "instance": "prb20059", "end_time": "1.51674014836e+12", "optimal_length": "7", "subject": "A2TQNX64349OZ9"}
{"rt": "0.0", "trial_number": "0", "skipped": "False", "complete": "False", "assignment": "3X87C8JFV7JQ2BSCY8KSFD9F2ILSQK", "start_time": "1.51674582788e+12", "human_length": "1", "nodes_expanded": "999", "instance": "prb20059", "end_time": "1.51674582788e+12", "optimal_length": "7", "subject": "A21S7MA9DCW95E"}
{"rt": "0.0", "trial_number": "1", "skipped": "False", "complete": "False", "assignment": "3X87C8JFV7JQ2BSCY8KSFD9F2ILSQK", "start_time": "1.51674582788e+12", "human_length": "1", "nodes_expanded": "999", "instance": "prb20059", "end_time": "1.51674582788e+12", "optimal_length": "7", "subject": "A21S7MA9DCW95E"}
{"rt": "11809.0", "trial_number": "2", "skipped": "False", "complete": "True", "assignment": "3X87C8JFV7JQ2BSCY8KSFD9F2ILSQK", "start_time": "1.51674582788e+12", "human_length": "8", "nodes_expanded": "999", "instance": "prb20059", "end_time": "1.51674583969e+12", "optimal_length": "7", "subject": "A21S7MA9DCW95E"}
{"rt": "0.0", "trial_number": "0", "skipped": "False", "complete": "False", "assignment": "3IJXV6UZ1YR1KY4G6BFEG1DXP7SRI1", "start_time": "1.516750858e+12", "human_length": "1", "nodes_expanded": "999", "instance": "prb20059", "end_time": "1.516750858e+12", "optimal_length": "7", "subject": "A2RTJ6BDY0DZVZ"}
{"rt": "0.0", "trial_number": "1", "skipped": "False", "complete": "False", "assignment": "3IJXV6UZ1YR1KY4G6BFEG1DXP7SRI1", "start_time": "1.516750858e+12", "human_length": "1", "nodes_expanded": "999", "instance": "prb20059", "end_time": "1.516750858e+12", "optimal_length": "7", "subject": "A2RTJ6BDY0DZVZ"}
{"rt": "11018.0", "trial_number": "2", "skipped": "False", "complete": "True", "assignment": "3IJXV6UZ1YR1KY4G6BFEG1DXP7SRI1", "start_time": "1.516750858e+12", "human_length": "8", "nodes_expanded": "999", "instance": "prb20059", "end_time": "1.51675086901e+12", "optimal_length": "7", "subject": "A2RTJ6BDY0DZVZ"}
{"rt": "0.0", "trial_number": "0", "skipped": "False", "complete": "False", "assignment": "3I2PTA7R3U2SESF4TZBQORI5LSJQKK", "start_time": "1.5167584262e+12", "human_length": "1", "nodes_expanded": "999", "instance": "prb20059", "end_time": "1.5167584262e+12", "optimal_length": "7", "subject": "A3NMQ3019X6YE0"}
{"rt": "0.0", "trial_number": "1", "skipped": "False", "complete": "False", "assignment": "3I2PTA7R3U2SESF4TZBQORI5LSJQKK", "start_time": "1.5167584262e+12", "human_length": "1", "nodes_expanded": "999", "instance": "prb20059", "end_time": "1.5167584262e+12", "optimal_length": "7", "subject": "A3NMQ3019X6YE0"}
{"rt": "10000.0", "trial_number": "2", "skipped": "False", "complete": "True", "assignment": "3I2PTA7R3U2SESF4TZBQORI5LSJQKK", "start_time": "1.5167584262e+12", "human_length": "9", "nodes_expanded": "999", "instance": "prb20059", "end_time": "1.5167584362e+12", "optimal_length": "7", "subject": "A3NMQ3019X6YE0"}
{"rt": "0.0", "trial_number": "0", "skipped": "False", "complete": "False", "assignment": "3YW4XOSQKRTI0K0Z2YPDTDJVFABU1I", "start_time": "1.51682545121e+12", "human_length": "1", "nodes_expanded": "999", "instance": "prb20059", "end_time": "1.51682545121e+12", "optimal_length": "7", "subject": "A15781PHGW377Y"}
{"rt": "23161.0", "trial_number": "1", "skipped": "False", "complete": "True", "assignment": "3YW4XOSQKRTI0K0Z2YPDTDJVFABU1I", "start_time": "1.51682545121e+12", "human_length": "8", "nodes_expanded": "999", "instance": "prb20059", "end_time": "1.51682547437e+12", "optimal_length": "7", "subject": "A15781PHGW377Y"}
{"rt": "0.0", "trial_number": "0", "skipped": "False", "complete": "False", "assignment": "3X4MXAO0BHWJLTOLVSJTHSM54OHWRG", "start_time": "1.5168220779e+12", "human_length": "1", "nodes_expanded": "999", "instance": "prb20059", "end_time": "1.5168220779e+12", "optimal_length": "7", "subject": "A2IBQA01NR5N76"}
{"rt": "9033.0", "trial_number": "1", "skipped": "False", "complete": "True", "assignment": "3X4MXAO0BHWJLTOLVSJTHSM54OHWRG", "start_time": "1.5168220779e+12", "human_length": "10", "nodes_expanded": "999", "instance": "prb20059", "end_time": "1.51682208693e+12", "optimal_length": "7", "subject": "A2IBQA01NR5N76"}
{"rt": "9033.0", "trial_number": "0", "skipped": "False", "complete": "True", "assignment": "3X4MXAO0BHWJLTOLVSJTHSM54OHWRG", "start_time": "1.5168220779e+12", "human_length": "10", "nodes_expanded": "999", "instance": "prb20059", "end_time": "1.51682208693e+12", "optimal_length": "7", "subject": "A2IBQA01NR5N76"}
{"rt": "0.0", "trial_number": "0", "skipped": "False", "complete": "False", "assignment": "3IHR8NYAM89M0EPM8U9LH53ZJDTP4U", "start_time": "1.51682591526e+12", "human_length": "1", "nodes_expanded": "999", "instance": "prb20059", "end_time": "1.51682591526e+12", "optimal_length": "7", "subject": "A23437BMZ5T1FH"}
{"rt": "16153.0", "trial_number": "1", "skipped": "False", "complete": "True", "assignment": "3IHR8NYAM89M0EPM8U9LH53ZJDTP4U", "start_time": "1.51682591526e+12", "human_length": "10", "nodes_expanded": "999", "instance": "prb20059", "end_time": "1.51682593141e+12", "optimal_length": "7", "subject": "A23437BMZ5T1FH"}
{"rt": "15964.0", "trial_number": "0", "skipped": "False", "complete": "True", "assignment": "3YW4XOSQKRTI0K0Z2YPDTDJVFABU1I", "start_time": "1.51683247527e+12", "human_length": "8", "nodes_expanded": "999", "instance": "prb20059", "end_time": "1.51683249124e+12", "optimal_length": "7", "subject": "A1LR0VQIHQUJAM"}
{"rt": "13067.0", "trial_number": "0", "skipped": "False", "complete": "True", "assignment": "3VE8AYVF8N5BS2NU6U3TMN50JMNF8V", "start_time": "1.51673599638e+12", "human_length": "8", "nodes_expanded": "999", "instance": "prb20059", "end_time": "1.51673600945e+12", "optimal_length": "7", "subject": "A18QU0YQB6Q8DF"}
{"rt": "9192.0", "trial_number": "0", "skipped": "False", "complete": "True", "assignment": "3U84XHCDIDLGEIRSV37N835DT5LZ4W", "start_time": "1.516735957e+12", "human_length": "9", "nodes_expanded": "999", "instance": "prb20059", "end_time": "1.51673596619e+12", "optimal_length": "7", "subject": "A12723JDRPT207"}
{"rt": "11988.0", "trial_number": "0", "skipped": "False", "complete": "True", "assignment": "3X87C8JFV7JQ2BSCY8KSFD9F2ILSQK", "start_time": "1.5167407008e+12", "human_length": "8", "nodes_expanded": "999", "instance": "prb20059", "end_time": "1.51674071279e+12", "optimal_length": "7", "subject": "A3Q0XAGQ7TD7MP"}
{"rt": "11099.0", "trial_number": "1", "skipped": "False", "complete": "True", "assignment": "3GLB5JMZFY3TNXFGYMKRQ0JDXNTDGZ", "start_time": "1.51794653215e+12", "human_length": "8", "nodes_expanded": "999", "instance": "prb20059", "end_time": "1.51794654325e+12", "optimal_length": "7", "subject": "A3Q0XAGQ7TD7MP"}
{"rt": "8294.0", "trial_number": "0", "skipped": "False", "complete": "True", "assignment": "3WSELTNVR4AZUVYAYCSWZIQW0J4ATB", "start_time": "1.51674014006e+12", "human_length": "7", "nodes_expanded": "999", "instance": "prb20059", "end_time": "1.51674014836e+12", "optimal_length": "7", "subject": "A2TQNX64349OZ9"}
{"rt": "11809.0", "trial_number": "0", "skipped": "False", "complete": "True", "assignment": "3X87C8JFV7JQ2BSCY8KSFD9F2ILSQK", "start_time": "1.51674582788e+12", "human_length": "8", "nodes_expanded": "999", "instance": "prb20059", "end_time": "1.51674583969e+12", "optimal_length": "7", "subject": "A21S7MA9DCW95E"}
{"rt": "11018.0", "trial_number": "0", "skipped": "False", "complete": "True", "assignment": "3IJXV6UZ1YR1KY4G6BFEG1DXP7SRI1", "start_time": "1.516750858e+12", "human_length": "8", "nodes_expanded": "999", "instance": "prb20059", "end_time": "1.51675086901e+12", "optimal_length": "7", "subject": "A2RTJ6BDY0DZVZ"}
{"rt": "10000.0", "trial_number": "0", "skipped": "False", "complete": "True", "assignment": "3I2PTA7R3U2SESF4TZBQORI5LSJQKK", "start_time": "1.5167584262e+12", "human_length": "9", "nodes_expanded": "999", "instance": "prb20059", "end_time": "1.5167584362e+12", "optimal_length": "7", "subject": "A3NMQ3019X6YE0"}
{"rt": "23161.0", "trial_number": "0", "skipped": "False", "complete": "True", "assignment": "3YW4XOSQKRTI0K0Z2YPDTDJVFABU1I", "start_time": "1.51682545121e+12", "human_length": "8", "nodes_expanded": "999", "instance": "prb20059", "end_time": "1.51682547437e+12", "optimal_length": "7", "subject": "A15781PHGW377Y"}
{"rt": "7703.0", "trial_number": "0", "skipped": "False", "complete": "True", "assignment": "3TS1AR6UQRM7SOIBWPBN8N9589Y7FV", "start_time": "1.51683834505e+12", "human_length": "9", "nodes_expanded": "999", "instance": "prb20059", "end_time": "1.51683835275e+12", "optimal_length": "7", "subject": "A1F4N58CAX8IMK"}
{"rt": "7151.0", "trial_number": "1", "skipped": "False", "complete": "True", "assignment": "35DR22AR5ES6RR89U7EJ1DXW91AX3P", "start_time": "1.51795373966e+12", "human_length": "10", "nodes_expanded": "999", "instance": "prb20059", "end_time": "1.51795374681e+12", "optimal_length": "7", "subject": "A1F4N58CAX8IMK"}
{"rt": "0.0", "trial_number": "0", "skipped": "False", "complete": "False", "assignment": "3M0BCWMB8W4W5M7WZVX3HDH1M3FBWL", "start_time": "1.51684011632e+12", "human_length": "1", "nodes_expanded": "999", "instance": "prb20059", "end_time": "1.51684011632e+12", "optimal_length": "7", "subject": "A1XDMS0KFSF5JW"}
{"rt": "17995.0", "trial_number": "1", "skipped": "False", "complete": "False", "assignment": "3M0BCWMB8W4W5M7WZVX3HDH1M3FBWL", "start_time": "1.51684012254e+12", "human_length": "4", "nodes_expanded": "999", "instance": "prb20059", "end_time": "1.51684014054e+12", "optimal_length": "7", "subject": "A1XDMS0KFSF5JW"}
{"rt": "31397.0", "trial_number": "2", "skipped": "False", "complete": "True", "assignment": "3M0BCWMB8W4W5M7WZVX3HDH1M3FBWL", "start_time": "1.51684016762e+12", "human_length": "9", "nodes_expanded": "999", "instance": "prb20059", "end_time": "1.51684019902e+12", "optimal_length": "7", "subject": "A1XDMS0KFSF5JW"}
{"rt": "22753.0", "trial_number": "0", "skipped": "False", "complete": "True", "assignment": "3TS1AR6UQRM7SOIBWPBN8N9589Y7FV", "start_time": "1.51684323114e+12", "human_length": "15", "nodes_expanded": "999", "instance": "prb20059", "end_time": "1.51684325389e+12", "optimal_length": "7", "subject": "A15FXHC1CVNW31"}
{"rt": "7824.0", "trial_number": "0", "skipped": "False", "complete": "True", "assignment": "31LM9EDVOM0C0BWUVMJXJINN3QPJNI", "start_time": "1.51752383021e+12", "human_length": "10", "nodes_expanded": "999", "instance": "prb20059", "end_time": "1.51752383803e+12", "optimal_length": "7", "subject": "A1NT8BT94ME6F5"}
{"rt": "9018.0", "trial_number": "0", "skipped": "False", "complete": "True", "assignment": "37TD41K0AIHM8AITTQJXV8KY05QCSB", "start_time": "1.51752487856e+12", "human_length": "7", "nodes_expanded": "999", "instance": "prb20059", "end_time": "1.51752488758e+12", "optimal_length": "7", "subject": "A30KYQGABO7JER"}
{"rt": "5938.0", "trial_number": "0", "skipped": "False", "complete": "True", "assignment": "3TYCR1GOTDRCCQYD1V64UK7OHTBZLQ", "start_time": "1.51753669667e+12", "human_length": "7", "nodes_expanded": "999", "instance": "prb20059", "end_time": "1.51753670261e+12", "optimal_length": "7", "subject": "A13BZCNJ0WR1T7"}
{"rt": "22768.0", "trial_number": "0", "skipped": "False", "complete": "True", "assignment": "3H0W84IWBLAP4T2UASPNVMF5ZH7ER9", "start_time": "1.51755239208e+12", "human_length": "13", "nodes_expanded": "999", "instance": "prb20059", "end_time": "1.51755241485e+12", "optimal_length": "7", "subject": "A1AKX1C8GCVCTP"}
{"rt": "24419.0", "trial_number": "0", "skipped": "False", "complete": "True", "assignment": "3TPWUS5F8A9FFRZ2DVTYSXNJ6BWWC6", "start_time": "1.5179412444e+12", "human_length": "8", "nodes_expanded": "999", "instance": "prb20059", "end_time": "1.51794126882e+12", "optimal_length": "7", "subject": "A3GXC3VG37CQ3G"}
{"rt": "9227.0", "trial_number": "0", "skipped": "False", "complete": "True", "assignment": "3IAS3U3I0GOAT69PLB8WT61CKJ22BO", "start_time": "1.5179394486e+12", "human_length": "7", "nodes_expanded": "999", "instance": "prb20059", "end_time": "1.51793945783e+12", "optimal_length": "7", "subject": "A2C84POENS2UNY"}
{"rt": "8171.0", "trial_number": "0", "skipped": "False", "complete": "True", "assignment": "34HJIJKLP64Z5YMIU6IKNXSH7PDV4I", "start_time": "1.51794197678e+12", "human_length": "8", "nodes_expanded": "999", "instance": "prb20059", "end_time": "1.51794198495e+12", "optimal_length": "7", "subject": "A3CTXNQ2GXIQSP"}
{"rt": "12088.0", "trial_number": "0", "skipped": "False", "complete": "True", "assignment": "3TXD01ZLD5PZSJXIPG8FRBQYTI9U4X", "start_time": "1.51794482259e+12", "human_length": "7", "nodes_expanded": "999", "instance": "prb20059", "end_time": "1.51794483468e+12", "optimal_length": "7", "subject": "A3BPRPN10HJD4B"}
{"rt": "7565.0", "trial_number": "0", "skipped": "False", "complete": "True", "assignment": "3STRJBFXOXZ5687WA35LTWTS7QZKTT", "start_time": "1.51794490652e+12", "human_length": "7", "nodes_expanded": "999", "instance": "prb20059", "end_time": "1.51794491408e+12", "optimal_length": "7", "subject": "A3OB6REG5CGHK1"}
{"rt": "16622.0", "trial_number": "0", "skipped": "False", "complete": "True", "assignment": "3JCG6DTRV4YEPVDZ64VNKDUEMPGQQ1", "start_time": "1.51794690836e+12", "human_length": "7", "nodes_expanded": "999", "instance": "prb20059", "end_time": "1.51794692499e+12", "optimal_length": "7", "subject": "A2V7KYLBCBTI3B"}
{"rt": "13093.0", "trial_number": "0", "skipped": "False", "complete": "True", "assignment": "33PPO7FECWN7JOLBOAKUBCWTC0AIDL", "start_time": "1.51795105435e+12", "human_length": "8", "nodes_expanded": "999", "instance": "prb20059", "end_time": "1.51795106745e+12", "optimal_length": "7", "subject": "AXKM02NVXNGOM"}
{"rt": "26039.0", "trial_number": "0", "skipped": "False", "complete": "True", "assignment": "3HYA4D452SR06NL5QDUSCWSXZI12FF", "start_time": "1.51795004754e+12", "human_length": "13", "nodes_expanded": "999", "instance": "prb20059", "end_time": "1.51795007358e+12", "optimal_length": "7", "subject": "A2OFWHV8IP7HK"}
{"rt": "8276.0", "trial_number": "0", "skipped": "False", "complete": "True", "assignment": "3PB5A5BD0WED6OE679H5Q89HBDGG71", "start_time": "1.51795282562e+12", "human_length": "7", "nodes_expanded": "999", "instance": "prb20059", "end_time": "1.51795283389e+12", "optimal_length": "7", "subject": "A1USR9JCAMDGM3"}
{"rt": "7195.0", "trial_number": "0", "skipped": "False", "complete": "True", "assignment": "3R5F3LQFV3SKIB1AENMWM1BICT5OZB", "start_time": "1.51795973444e+12", "human_length": "8", "nodes_expanded": "999", "instance": "prb20059", "end_time": "1.51795974164e+12", "optimal_length": "7", "subject": "A1N1EF0MIRSEZZ"}
{"rt": "6420.0", "trial_number": "0", "skipped": "False", "complete": "True", "assignment": "33F859I567LE8WC74WB3GA7E94XBHW", "start_time": "1.51796977877e+12", "human_length": "7", "nodes_expanded": "999", "instance": "prb20059", "end_time": "1.51796978519e+12", "optimal_length": "7", "subject": "A1GQS6USF2JEYG"}
{"rt": "6641.0", "trial_number": "0", "skipped": "False", "complete": "True", "assignment": "3IJXV6UZ1YR1KY4G6BFEG1DXR47RIC", "start_time": "1.5179719095e+12", "human_length": "10", "nodes_expanded": "999", "instance": "prb20059", "end_time": "1.51797191614e+12", "optimal_length": "7", "subject": "A18T3WK7J16C1B"}
{"rt": "5484.0", "trial_number": "0", "skipped": "False", "complete": "True", "assignment": "3FTF2T8WLSQDHTSZ1BJ7Q7MB14SW9H", "start_time": "1.51813690717e+12", "human_length": "7", "nodes_expanded": "999", "instance": "prb20059", "end_time": "1.51813691266e+12", "optimal_length": "7", "subject": "A1IUH9D7N69VS"}
{"rt": "10475.0", "trial_number": "0", "skipped": "False", "complete": "True", "assignment": "3XC1O3LBOTUGQEPEV3HM8W67X4RTLL", "start_time": "1.5181360472e+12", "human_length": "10", "nodes_expanded": "999", "instance": "prb20059", "end_time": "1.51813605767e+12", "optimal_length": "7", "subject": "A1ZTSCPETU3UJW"}
{"rt": "25069.0", "trial_number": "0", "skipped": "False", "complete": "True", "assignment": "3TAYZSBPLMG9ASQRWXURJVBCPLN2SH", "start_time": "1.51813710955e+12", "human_length": "8", "nodes_expanded": "999", "instance": "prb20059", "end_time": "1.51813713462e+12", "optimal_length": "7", "subject": "A2RCYLKY072XXO"}
{"rt": "6607.0", "trial_number": "0", "skipped": "False", "complete": "True", "assignment": "3ZSANO2JCGFTBM23KS9Y3E51YP4FSQ", "start_time": "1.51814371552e+12", "human_length": "9", "nodes_expanded": "999", "instance": "prb20059", "end_time": "1.51814372212e+12", "optimal_length": "7", "subject": "A1F42D4L22K5ND"}
{"rt": "16800.0", "trial_number": "0", "skipped": "False", "complete": "True", "assignment": "3VE8AYVF8N5BS2NU6U3TMN50MV38FP", "start_time": "1.51814315417e+12", "human_length": "7", "nodes_expanded": "999", "instance": "prb20059", "end_time": "1.51814317097e+12", "optimal_length": "7", "subject": "A1JN13098RIE78"}
{"rt": "7676.0", "trial_number": "0", "skipped": "False", "complete": "True", "assignment": "3HWRJOOET6A15827PHPSLWK1MOYSEU", "start_time": "1.51814533033e+12", "human_length": "7", "nodes_expanded": "999", "instance": "prb20059", "end_time": "1.51814533801e+12", "optimal_length": "7", "subject": "AO1QGAUZ85T6L"}
{"rt": "9630.0", "trial_number": "0", "skipped": "False", "complete": "True", "assignment": "3TMFV4NEP9MD3O9PWJDTQBR0HZYW8I", "start_time": "1.51814574559e+12", "human_length": "8", "nodes_expanded": "999", "instance": "prb20059", "end_time": "1.51814575522e+12", "optimal_length": "7", "subject": "A3GOOI75XOF24V"}
{"rt": "5974.0", "trial_number": "0", "skipped": "False", "complete": "True", "assignment": "3XLBSAQ9Z5KDX59BX15UBFPNNHYZ7Q", "start_time": "1.51814666045e+12", "human_length": "7", "nodes_expanded": "999", "instance": "prb20059", "end_time": "1.51814666643e+12", "optimal_length": "7", "subject": "A1HFNOKU591WCY"}
{"rt": "0.0", "trial_number": "0", "skipped": "False", "complete": "False", "assignment": "3EWIJTFFVPF14ZIVGF68BQEIRXP0ER", "start_time": "1.51814875077e+12", "human_length": "1", "nodes_expanded": "999", "instance": "prb20059", "end_time": "1.51814875077e+12", "optimal_length": "7", "subject": "A30AGR5KF8IEL"}
{"rt": "0.0", "trial_number": "1", "skipped": "False", "complete": "False", "assignment": "3EWIJTFFVPF14ZIVGF68BQEIRXP0ER", "start_time": "1.51814875081e+12", "human_length": "1", "nodes_expanded": "999", "instance": "prb20059", "end_time": "1.51814875081e+12", "optimal_length": "7", "subject": "A30AGR5KF8IEL"}
{"rt": "0.0", "trial_number": "2", "skipped": "False", "complete": "False", "assignment": "3EWIJTFFVPF14ZIVGF68BQEIRXP0ER", "start_time": "1.51814875082e+12", "human_length": "1", "nodes_expanded": "999", "instance": "prb20059", "end_time": "1.51814875082e+12", "optimal_length": "7", "subject": "A30AGR5KF8IEL"}
{"rt": "15068.0", "trial_number": "3", "skipped": "False", "complete": "False", "assignment": "3EWIJTFFVPF14ZIVGF68BQEIRXP0ER", "start_time": "1.51814875084e+12", "human_length": "3", "nodes_expanded": "999", "instance": "prb20059", "end_time": "1.51814876591e+12", "optimal_length": "7", "subject": "A30AGR5KF8IEL"}
{"rt": "0.0", "trial_number": "4", "skipped": "False", "complete": "False", "assignment": "3EWIJTFFVPF14ZIVGF68BQEIRXP0ER", "start_time": "1.51814876743e+12", "human_length": "1", "nodes_expanded": "999", "instance": "prb20059", "end_time": "1.51814876743e+12", "optimal_length": "7", "subject": "A30AGR5KF8IEL"}
{"rt": "0.0", "trial_number": "5", "skipped": "False", "complete": "False", "assignment": "3EWIJTFFVPF14ZIVGF68BQEIRXP0ER", "start_time": "1.5181487677e+12", "human_length": "1", "nodes_expanded": "999", "instance": "prb20059", "end_time": "1.5181487677e+12", "optimal_length": "7", "subject": "A30AGR5KF8IEL"}
{"rt": "4962.0", "trial_number": "6", "skipped": "True", "complete": "False", "assignment": "3EWIJTFFVPF14ZIVGF68BQEIRXP0ER", "start_time": "1.51814876909e+12", "human_length": "4", "nodes_expanded": "999", "instance": "prb20059", "end_time": "1.51814877405e+12", "optimal_length": "7", "subject": "A30AGR5KF8IEL"}
{"rt": "11193.0", "trial_number": "0", "skipped": "False", "complete": "True", "assignment": "3FUI0JHJPY6UBT1VAI7VUX8S3KH33W", "start_time": "1.5181512962e+12", "human_length": "9", "nodes_expanded": "999", "instance": "prb20059", "end_time": "1.5181513074e+12", "optimal_length": "7", "subject": "A2QIZ31TMHU0GD"}
{"rt": "11336.0", "trial_number": "0", "skipped": "False", "complete": "True", "assignment": "3M0BCWMB8W4W5M7WZVX3HDH1P53WB1", "start_time": "1.51815960395e+12", "human_length": "7", "nodes_expanded": "999", "instance": "prb20059", "end_time": "1.51815961529e+12", "optimal_length": "7", "subject": "A53S7J4JGWG38"}
{"rt": "23900.0", "trial_number": "0", "skipped": "False", "complete": "True", "assignment": "3SITXWYCNWHBUMCM90TPJWV8Y7AXBW", "start_time": "1.51816654359e+12", "human_length": "7", "nodes_expanded": "999", "instance": "prb20059", "end_time": "1.51816656749e+12", "optimal_length": "7", "subject": "A28RX7L0QZ993M"}
{"rt": "5739.0", "trial_number": "0", "skipped": "False", "complete": "True", "assignment": "3IXEICO793RY7TM78ZBKJDOA7ADT6Q", "start_time": "1.51816787245e+12", "human_length": "8", "nodes_expanded": "999", "instance": "prb20059", "end_time": "1.51816787818e+12", "optimal_length": "7", "subject": "ALH1K6ZAQQMN7"}
