{"rt": "56362.0", "trial_number": "0", "skipped": "False", "complete": "True", "assignment": "36AHBNMV1SKT9O0GSS6XX0QHZV3YDN", "start_time": "1.51630514095e+12", "human_length": "11", "nodes_expanded": "999", "instance": "prb22436", "end_time": "1.51630519731e+12", "optimal_length": "11", "subject": "A39GADIK8RLMVC"}
{"rt": "13598.0", "trial_number": "0", "skipped": "False", "complete": "True", "assignment": "3AZHRG4CU5SYU12YRVPCSZALW5003R", "start_time": "1.51630808383e+12", "human_length": "15", "nodes_expanded": "999", "instance": "prb22436", "end_time": "1.51630809743e+12", "optimal_length": "11", "subject": "ARWF605I7RWM7"}
{"rt": "45627.0", "trial_number": "0", "skipped": "False", "complete": "True", "assignment": "3ZV9H2YQQEFR2R3JK2IXZUJPXAF3WW", "start_time": "1.51630747414e+12", "human_length": "17", "nodes_expanded": "999", "instance": "prb22436", "end_time": "1.51630751977e+12", "optimal_length": "11", "subject": "A289D98Z4GAZ28"}
{"rt": "43571.0", "trial_number": "0", "skipped": "False", "complete": "True", "assignment": "3ON104KXQL4CKNMNKGNG9ZBVBAB4WI", "start_time": "1.51631199266e+12", "human_length": "23", "nodes_expanded": "999", "instance": "prb22436", "end_time": "1.51631203623e+12", "optimal_length": "11", "subject": "AYPOAY43REHC8"}
{"rt": "15361.0", "trial_number": "0", "skipped": "False", "complete": "True", "assignment": "3PMBY0YE28B43VMUKKJ6EDF85RV9C8", "start_time": "1.51638820055e+12", "human_length": "14", "nodes_expanded": "999", "instance": "prb22436", "end_time": "1.51638821591e+12", "optimal_length": "11", "subject": "A191V7PT3DQKDP"}
{"rt": "0.0", "trial_number": "0", "skipped": "False", "complete": "False", "assignment": "3ZSY5X72NYJBGKFJ46SJ0Y9J0RLROB", "start_time": "1.51638824452e+12", "human_length": "1", "nodes_expanded": "999", "instance": "prb22436", "end_time": "1.51638824452e+12", "optimal_length": "11", "subject": "AU4KK3OYS2UZF"}
{"rt": "0.0", "trial_number": "1", "skipped": "False", "complete": "False", "assignment": "3ZSY5X72NYJBGKFJ46SJ0Y9J0RLROB", "start_time": "1.51638824453e+12", "human_length": "1", "nodes_expanded": "999", "instance": "prb22436", "end_time": "1.51638824453e+12", "optimal_length": "11", "subject": "AU4KK3OYS2UZF"}
{"rt": "9930.0", "trial_number": "2", "skipped": "False", "complete": "False", "assignment": "3ZSY5X72NYJBGKFJ46SJ0Y9J0RLROB", "start_time": "1.51638824454e+12", "human_length": "2", "nodes_expanded": "999", "instance": "prb22436", "end_time": "1.51638825447e+12", "optimal_length": "11", "subject": "AU4KK3OYS2UZF"}
{"rt": "12628.0", "trial_number": "3", "skipped": "False", "complete": "True", "assignment": "3ZSY5X72NYJBGKFJ46SJ0Y9J0RLROB", "start_time": "1.51638825899e+12", "human_length": "11", "nodes_expanded": "999", "instance": "prb22436", "end_time": "1.51638827162e+12", "optimal_length": "11", "subject": "AU4KK3OYS2UZF"}
{"rt": "105821.0", "trial_number": "0", "skipped": "False", "complete": "True", "assignment": "3TYCR1GOTDRCCQYD1V64UK7OE48LZS", "start_time": "1.51638917898e+12", "human_length": "42", "nodes_expanded": "999", "instance": "prb22436", "end_time": "1.5163892848e+12", "optimal_length": "11", "subject": "A2MYB6MLQW0IGN"}
{"rt": "17690.0", "trial_number": "0", "skipped": "False", "complete": "True", "assignment": "34BBWHLWHBJ6SUL255PK30LEGY5IWG", "start_time": "1.51639429894e+12", "human_length": "14", "nodes_expanded": "999", "instance": "prb22436", "end_time": "1.51639431663e+12", "optimal_length": "11", "subject": "A214HWAW1PYWO8"}
{"rt": "0.0", "trial_number": "0", "skipped": "False", "complete": "False", "assignment": "3VE8AYVF8N5BS2NU6U3TMN50JMNF8V", "start_time": "1.51673755668e+12", "human_length": "1", "nodes_expanded": "999", "instance": "prb22436", "end_time": "1.51673755668e+12", "optimal_length": "11", "subject": "A18QU0YQB6Q8DF"}
{"rt": "0.0", "trial_number": "1", "skipped": "False", "complete": "False", "assignment": "3VE8AYVF8N5BS2NU6U3TMN50JMNF8V", "start_time": "1.51673755668e+12", "human_length": "1", "nodes_expanded": "999", "instance": "prb22436", "end_time": "1.51673755668e+12", "optimal_length": "11", "subject": "A18QU0YQB6Q8DF"}
{"rt": "19224.0", "trial_number": "2", "skipped": "False", "complete": "True", "assignment": "3VE8AYVF8N5BS2NU6U3TMN50JMNF8V", "start_time": "1.51673755668e+12", "human_length": "12", "nodes_expanded": "999", "instance": "prb22436", "end_time": "1.5167375759e+12", "optimal_length": "11", "subject": "A18QU0YQB6Q8DF"}
{"rt": "0.0", "trial_number": "0", "skipped": "False", "complete": "False", "assignment": "3X87C8JFV7JQ2BSCY8KSFD9F2ILSQK", "start_time": "1.5167405464e+12", "human_length": "1", "nodes_expanded": "999", "instance": "prb22436", "end_time": "1.5167405464e+12", "optimal_length": "11", "subject": "A3Q0XAGQ7TD7MP"}
{"rt": "0.0", "trial_number": "1", "skipped": "False", "complete": "False", "assignment": "3X87C8JFV7JQ2BSCY8KSFD9F2ILSQK", "start_time": "1.5167405464e+12", "human_length": "1", "nodes_expanded": "999", "instance": "prb22436", "end_time": "1.5167405464e+12", "optimal_length": "11", "subject": "A3Q0XAGQ7TD7MP"}
{"rt": "25836.0", "trial_number": "2", "skipped": "False", "complete": "True", "assignment": "3X87C8JFV7JQ2BSCY8KSFD9F2ILSQK", "start_time": "1.5167405464e+12", "human_length": "12", "nodes_expanded": "999", "instance": "prb22436", "end_time": "1.51674057223e+12", "optimal_length": "11", "subject": "A3Q0XAGQ7TD7MP"}
{"rt": "24523.0", "trial_number": "3", "skipped": "False", "complete": "True", "assignment": "3GLB5JMZFY3TNXFGYMKRQ0JDXNTDGZ", "start_time": "1.51794843338e+12", "human_length": "11", "nodes_expanded": "999", "instance": "prb22436", "end_time": "1.5179484579e+12", "optimal_length": "11", "subject": "A3Q0XAGQ7TD7MP"}
{"rt": "0.0", "trial_number": "0", "skipped": "False", "complete": "False", "assignment": "3WSELTNVR4AZUVYAYCSWZIQW0J4ATB", "start_time": "1.51673706433e+12", "human_length": "1", "nodes_expanded": "999", "instance": "prb22436", "end_time": "1.51673706433e+12", "optimal_length": "11", "subject": "A2TQNX64349OZ9"}
{"rt": "0.0", "trial_number": "1", "skipped": "False", "complete": "False", "assignment": "3WSELTNVR4AZUVYAYCSWZIQW0J4ATB", "start_time": "1.51673706433e+12", "human_length": "1", "nodes_expanded": "999", "instance": "prb22436", "end_time": "1.51673706433e+12", "optimal_length": "11", "subject": "A2TQNX64349OZ9"}
{"rt": "27598.0", "trial_number": "2", "skipped": "False", "complete": "True", "assignment": "3WSELTNVR4AZUVYAYCSWZIQW0J4ATB", "start_time": "1.51673706433e+12", "human_length": "15", "nodes_expanded": "999", "instance": "prb22436", "end_time": "1.51673709193e+12", "optimal_length": "11", "subject": "A2TQNX64349OZ9"}
{"rt": "0.0", "trial_number": "0", "skipped": "False", "complete": "False", "assignment": "3IJXV6UZ1YR1KY4G6BFEG1DXP7SRI1", "start_time": "1.51675193445e+12", "human_length": "1", "nodes_expanded": "999", "instance": "prb22436", "end_time": "1.51675193445e+12", "optimal_length": "11", "subject": "A2RTJ6BDY0DZVZ"}
{"rt": "0.0", "trial_number": "1", "skipped": "False", "complete": "False", "assignment": "3IJXV6UZ1YR1KY4G6BFEG1DXP7SRI1", "start_time": "1.51675193445e+12", "human_length": "1", "nodes_expanded": "999", "instance": "prb22436", "end_time": "1.51675193445e+12", "optimal_length": "11", "subject": "A2RTJ6BDY0DZVZ"}
{"rt": "15913.0", "trial_number": "2", "skipped": "False", "complete": "True", "assignment": "3IJXV6UZ1YR1KY4G6BFEG1DXP7SRI1", "start_time": "1.51675193445e+12", "human_length": "13", "nodes_expanded": "999", "instance": "prb22436", "end_time": "1.51675195037e+12", "optimal_length": "11", "subject": "A2RTJ6BDY0DZVZ"}
{"rt": "36777.0", "trial_number": "0", "skipped": "False", "complete": "True", "assignment": "3V5Q80FXIYZ5QB5C6ITQBN30WY823U", "start_time": "1.51753398709e+12", "human_length": "24", "nodes_expanded": "999", "instance": "prb22436", "end_time": "1.51753402387e+12", "optimal_length": "11", "subject": "A3NMQ3019X6YE0"}
{"rt": "0.0", "trial_number": "0", "skipped": "False", "complete": "False", "assignment": "3YW4XOSQKRTI0K0Z2YPDTDJVFABU1I", "start_time": "1.51682291483e+12", "human_length": "1", "nodes_expanded": "999", "instance": "prb22436", "end_time": "1.51682291483e+12", "optimal_length": "11", "subject": "A15781PHGW377Y"}
{"rt": "18784.0", "trial_number": "1", "skipped": "False", "complete": "True", "assignment": "3YW4XOSQKRTI0K0Z2YPDTDJVFABU1I", "start_time": "1.51682291483e+12", "human_length": "12", "nodes_expanded": "999", "instance": "prb22436", "end_time": "1.51682293362e+12", "optimal_length": "11", "subject": "A15781PHGW377Y"}
{"rt": "0.0", "trial_number": "0", "skipped": "False", "complete": "False", "assignment": "3X4MXAO0BHWJLTOLVSJTHSM54OHWRG", "start_time": "1.51682520315e+12", "human_length": "1", "nodes_expanded": "999", "instance": "prb22436", "end_time": "1.51682520315e+12", "optimal_length": "11", "subject": "A2IBQA01NR5N76"}
{"rt": "22258.0", "trial_number": "1", "skipped": "False", "complete": "True", "assignment": "3X4MXAO0BHWJLTOLVSJTHSM54OHWRG", "start_time": "1.51682520315e+12", "human_length": "20", "nodes_expanded": "999", "instance": "prb22436", "end_time": "1.51682522541e+12", "optimal_length": "11", "subject": "A2IBQA01NR5N76"}
{"rt": "0.0", "trial_number": "0", "skipped": "False", "complete": "False", "assignment": "3IHR8NYAM89M0EPM8U9LH53ZJDTP4U", "start_time": "1.51682491319e+12", "human_length": "1", "nodes_expanded": "999", "instance": "prb22436", "end_time": "1.51682491319e+12", "optimal_length": "11", "subject": "A23437BMZ5T1FH"}
{"rt": "56088.0", "trial_number": "1", "skipped": "False", "complete": "True", "assignment": "3IHR8NYAM89M0EPM8U9LH53ZJDTP4U", "start_time": "1.51682491319e+12", "human_length": "40", "nodes_expanded": "999", "instance": "prb22436", "end_time": "1.51682496928e+12", "optimal_length": "11", "subject": "A23437BMZ5T1FH"}
{"rt": "0.0", "trial_number": "0", "skipped": "False", "complete": "False", "assignment": "37WLF8U1WQYZ4AWKEQXSIM1ELVEK6W", "start_time": "1.51682969062e+12", "human_length": "1", "nodes_expanded": "999", "instance": "prb22436", "end_time": "1.51682969062e+12", "optimal_length": "11", "subject": "A2EPBSY0VPI38S"}
{"rt": "56093.0", "trial_number": "1", "skipped": "False", "complete": "True", "assignment": "37WLF8U1WQYZ4AWKEQXSIM1ELVEK6W", "start_time": "1.51682969062e+12", "human_length": "25", "nodes_expanded": "999", "instance": "prb22436", "end_time": "1.51682974671e+12", "optimal_length": "11", "subject": "A2EPBSY0VPI38S"}
{"rt": "0.0", "trial_number": "0", "skipped": "False", "complete": "False", "assignment": "3YW4XOSQKRTI0K0Z2YPDTDJVFABU1I", "start_time": "1.51683043662e+12", "human_length": "1", "nodes_expanded": "999", "instance": "prb22436", "end_time": "1.51683043662e+12", "optimal_length": "11", "subject": "A1LR0VQIHQUJAM"}
{"rt": "11440.0", "trial_number": "1", "skipped": "False", "complete": "True", "assignment": "3YW4XOSQKRTI0K0Z2YPDTDJVFABU1I", "start_time": "1.51683043662e+12", "human_length": "11", "nodes_expanded": "999", "instance": "prb22436", "end_time": "1.51683044806e+12", "optimal_length": "11", "subject": "A1LR0VQIHQUJAM"}
{"rt": "19224.0", "trial_number": "0", "skipped": "False", "complete": "True", "assignment": "3VE8AYVF8N5BS2NU6U3TMN50JMNF8V", "start_time": "1.51673755668e+12", "human_length": "12", "nodes_expanded": "999", "instance": "prb22436", "end_time": "1.5167375759e+12", "optimal_length": "11", "subject": "A18QU0YQB6Q8DF"}
{"rt": "25836.0", "trial_number": "0", "skipped": "False", "complete": "True", "assignment": "3X87C8JFV7JQ2BSCY8KSFD9F2ILSQK", "start_time": "1.5167405464e+12", "human_length": "12", "nodes_expanded": "999", "instance": "prb22436", "end_time": "1.51674057223e+12", "optimal_length": "11", "subject": "A3Q0XAGQ7TD7MP"}
{"rt": "24523.0", "trial_number": "1", "skipped": "False", "complete": "True", "assignment": "3GLB5JMZFY3TNXFGYMKRQ0JDXNTDGZ", "start_time": "1.51794843338e+12", "human_length": "11", "nodes_expanded": "999", "instance": "prb22436", "end_time": "1.5179484579e+12", "optimal_length": "11", "subject": "A3Q0XAGQ7TD7MP"}
{"rt": "27598.0", "trial_number": "0", "skipped": "False", "complete": "True", "assignment": "3WSELTNVR4AZUVYAYCSWZIQW0J4ATB", "start_time": "1.51673706433e+12", "human_length": "15", "nodes_expanded": "999", "instance": "prb22436", "end_time": "1.51673709193e+12", "optimal_length": "11", "subject": "A2TQNX64349OZ9"}
{"rt": "15913.0", "trial_number": "0", "skipped": "False", "complete": "True", "assignment": "3IJXV6UZ1YR1KY4G6BFEG1DXP7SRI1", "start_time": "1.51675193445e+12", "human_length": "13", "nodes_expanded": "999", "instance": "prb22436", "end_time": "1.51675195037e+12", "optimal_length": "11", "subject": "A2RTJ6BDY0DZVZ"}
{"rt": "36777.0", "trial_number": "0", "skipped": "False", "complete": "True", "assignment": "3V5Q80FXIYZ5QB5C6ITQBN30WY823U", "start_time": "1.51753398709e+12", "human_length": "24", "nodes_expanded": "999", "instance": "prb22436", "end_time": "1.51753402387e+12", "optimal_length": "11", "subject": "A3NMQ3019X6YE0"}
{"rt": "18784.0", "trial_number": "0", "skipped": "False", "complete": "True", "assignment": "3YW4XOSQKRTI0K0Z2YPDTDJVFABU1I", "start_time": "1.51682291483e+12", "human_length": "12", "nodes_expanded": "999", "instance": "prb22436", "end_time": "1.51682293362e+12", "optimal_length": "11", "subject": "A15781PHGW377Y"}
{"rt": "23737.0", "trial_number": "0", "skipped": "False", "complete": "True", "assignment": "3TS1AR6UQRM7SOIBWPBN8N9589Y7FV", "start_time": "1.51684053575e+12", "human_length": "21", "nodes_expanded": "999", "instance": "prb22436", "end_time": "1.51684055948e+12", "optimal_length": "11", "subject": "A1F4N58CAX8IMK"}
{"rt": "26269.0", "trial_number": "1", "skipped": "False", "complete": "True", "assignment": "35DR22AR5ES6RR89U7EJ1DXW91AX3P", "start_time": "1.51795476522e+12", "human_length": "25", "nodes_expanded": "999", "instance": "prb22436", "end_time": "1.51795479149e+12", "optimal_length": "11", "subject": "A1F4N58CAX8IMK"}
{"rt": "27878.0", "trial_number": "0", "skipped": "False", "complete": "True", "assignment": "3TS1AR6UQRM7SOIBWPBN8N9589Y7FV", "start_time": "1.51684225848e+12", "human_length": "23", "nodes_expanded": "999", "instance": "prb22436", "end_time": "1.51684228636e+12", "optimal_length": "11", "subject": "A15FXHC1CVNW31"}
{"rt": "20927.0", "trial_number": "0", "skipped": "False", "complete": "True", "assignment": "31LM9EDVOM0C0BWUVMJXJINN3QPJNI", "start_time": "1.51752225507e+12", "human_length": "14", "nodes_expanded": "999", "instance": "prb22436", "end_time": "1.517522276e+12", "optimal_length": "11", "subject": "A1NT8BT94ME6F5"}
{"rt": "31720.0", "trial_number": "0", "skipped": "False", "complete": "True", "assignment": "37TD41K0AIHM8AITTQJXV8KY05QCSB", "start_time": "1.5175255504e+12", "human_length": "14", "nodes_expanded": "999", "instance": "prb22436", "end_time": "1.51752558212e+12", "optimal_length": "11", "subject": "A30KYQGABO7JER"}
{"rt": "0.0", "trial_number": "0", "skipped": "True", "complete": "False", "assignment": "36H9ULYP6320CJJDXY0KBDEE1Z3JFB", "start_time": "1.51752773124e+12", "human_length": "1", "nodes_expanded": "999", "instance": "prb22436", "end_time": "1.51752773124e+12", "optimal_length": "11", "subject": "AA4KKLIU4C3NY"}
{"rt": "23110.0", "trial_number": "0", "skipped": "False", "complete": "True", "assignment": "36H9ULYP6320CJJDXY0KBDEE1Z3JFB", "start_time": "1.51753373746e+12", "human_length": "15", "nodes_expanded": "999", "instance": "prb22436", "end_time": "1.51753376056e+12", "optimal_length": "11", "subject": "AN098C29EGJ6"}
{"rt": "29133.0", "trial_number": "0", "skipped": "False", "complete": "True", "assignment": "3TYCR1GOTDRCCQYD1V64UK7OHTBZLQ", "start_time": "1.51753511274e+12", "human_length": "25", "nodes_expanded": "999", "instance": "prb22436", "end_time": "1.51753514187e+12", "optimal_length": "11", "subject": "A13BZCNJ0WR1T7"}
{"rt": "24190.0", "trial_number": "0", "skipped": "False", "complete": "False", "assignment": "3H0W84IWBLAP4T2UASPNVMF5ZH7ER9", "start_time": "1.51755328296e+12", "human_length": "15", "nodes_expanded": "999", "instance": "prb22436", "end_time": "1.51755330715e+12", "optimal_length": "11", "subject": "A1AKX1C8GCVCTP"}
{"rt": "42025.0", "trial_number": "1", "skipped": "False", "complete": "True", "assignment": "3H0W84IWBLAP4T2UASPNVMF5ZH7ER9", "start_time": "1.51755330901e+12", "human_length": "31", "nodes_expanded": "999", "instance": "prb22436", "end_time": "1.51755335103e+12", "optimal_length": "11", "subject": "A1AKX1C8GCVCTP"}
{"rt": "24436.0", "trial_number": "0", "skipped": "False", "complete": "False", "assignment": "3TPWUS5F8A9FFRZ2DVTYSXNJ6BWWC6", "start_time": "1.51794048885e+12", "human_length": "19", "nodes_expanded": "999", "instance": "prb22436", "end_time": "1.51794051328e+12", "optimal_length": "11", "subject": "A3GXC3VG37CQ3G"}
{"rt": "14061.0", "trial_number": "1", "skipped": "False", "complete": "False", "assignment": "3TPWUS5F8A9FFRZ2DVTYSXNJ6BWWC6", "start_time": "1.51794051495e+12", "human_length": "6", "nodes_expanded": "999", "instance": "prb22436", "end_time": "1.51794052901e+12", "optimal_length": "11", "subject": "A3GXC3VG37CQ3G"}
{"rt": "25826.0", "trial_number": "2", "skipped": "False", "complete": "True", "assignment": "3TPWUS5F8A9FFRZ2DVTYSXNJ6BWWC6", "start_time": "1.5179405326e+12", "human_length": "14", "nodes_expanded": "999", "instance": "prb22436", "end_time": "1.51794055842e+12", "optimal_length": "11", "subject": "A3GXC3VG37CQ3G"}
{"rt": "16408.0", "trial_number": "0", "skipped": "False", "complete": "True", "assignment": "34HJIJKLP64Z5YMIU6IKNXSH7PDV4I", "start_time": "1.51794182956e+12", "human_length": "12", "nodes_expanded": "999", "instance": "prb22436", "end_time": "1.51794184597e+12", "optimal_length": "11", "subject": "A3CTXNQ2GXIQSP"}
{"rt": "107020.0", "trial_number": "0", "skipped": "False", "complete": "True", "assignment": "3TXD01ZLD5PZSJXIPG8FRBQYTI9U4X", "start_time": "1.51794362833e+12", "human_length": "42", "nodes_expanded": "999", "instance": "prb22436", "end_time": "1.51794373535e+12", "optimal_length": "11", "subject": "A3BPRPN10HJD4B"}
{"rt": "0.0", "trial_number": "0", "skipped": "False", "complete": "False", "assignment": "3STRJBFXOXZ5687WA35LTWTS7QZKTT", "start_time": "1.51794320489e+12", "human_length": "1", "nodes_expanded": "999", "instance": "prb22436", "end_time": "1.51794320489e+12", "optimal_length": "11", "subject": "A3OB6REG5CGHK1"}
{"rt": "0.0", "trial_number": "1", "skipped": "False", "complete": "False", "assignment": "3STRJBFXOXZ5687WA35LTWTS7QZKTT", "start_time": "1.51794321792e+12", "human_length": "1", "nodes_expanded": "999", "instance": "prb22436", "end_time": "1.51794321792e+12", "optimal_length": "11", "subject": "A3OB6REG5CGHK1"}
{"rt": "40744.0", "trial_number": "2", "skipped": "False", "complete": "False", "assignment": "3STRJBFXOXZ5687WA35LTWTS7QZKTT", "start_time": "1.51794321916e+12", "human_length": "20", "nodes_expanded": "999", "instance": "prb22436", "end_time": "1.51794325990e+12", "optimal_length": "11", "subject": "A3OB6REG5CGHK1"}
{"rt": "12145.0", "trial_number": "3", "skipped": "False", "complete": "False", "assignment": "3STRJBFXOXZ5687WA35LTWTS7QZKTT", "start_time": "1.51794326351e+12", "human_length": "4", "nodes_expanded": "999", "instance": "prb22436", "end_time": "1.51794327566e+12", "optimal_length": "11", "subject": "A3OB6REG5CGHK1"}
{"rt": "38504.0", "trial_number": "4", "skipped": "False", "complete": "True", "assignment": "3STRJBFXOXZ5687WA35LTWTS7QZKTT", "start_time": "1.51794328322e+12", "human_length": "14", "nodes_expanded": "999", "instance": "prb22436", "end_time": "1.51794332173e+12", "optimal_length": "11", "subject": "A3OB6REG5CGHK1"}
{"rt": "39861.0", "trial_number": "0", "skipped": "False", "complete": "True", "assignment": "33PPO7FECWN7JOLBOAKUBCWTC0AIDL", "start_time": "1.51795170701e+12", "human_length": "12", "nodes_expanded": "999", "instance": "prb22436", "end_time": "1.51795174688e+12", "optimal_length": "11", "subject": "AXKM02NVXNGOM"}
{"rt": "14437.0", "trial_number": "0", "skipped": "False", "complete": "True", "assignment": "3PB5A5BD0WED6OE679H5Q89HBDGG71", "start_time": "1.51795110422e+12", "human_length": "12", "nodes_expanded": "999", "instance": "prb22436", "end_time": "1.51795111866e+12", "optimal_length": "11", "subject": "A1USR9JCAMDGM3"}
{"rt": "18875.0", "trial_number": "0", "skipped": "False", "complete": "True", "assignment": "3R5F3LQFV3SKIB1AENMWM1BICT5OZB", "start_time": "1.51795955285e+12", "human_length": "15", "nodes_expanded": "999", "instance": "prb22436", "end_time": "1.51795957172e+12", "optimal_length": "11", "subject": "A1N1EF0MIRSEZZ"}
{"rt": "40990.0", "trial_number": "0", "skipped": "False", "complete": "True", "assignment": "33F859I567LE8WC74WB3GA7E94XBHW", "start_time": "1.51796823358e+12", "human_length": "22", "nodes_expanded": "999", "instance": "prb22436", "end_time": "1.51796827457e+12", "optimal_length": "11", "subject": "A1GQS6USF2JEYG"}
{"rt": "17491.0", "trial_number": "0", "skipped": "False", "complete": "True", "assignment": "3IJXV6UZ1YR1KY4G6BFEG1DXR47RIC", "start_time": "1.51797304391e+12", "human_length": "20", "nodes_expanded": "999", "instance": "prb22436", "end_time": "1.5179730614e+12", "optimal_length": "11", "subject": "A18T3WK7J16C1B"}
{"rt": "16436.0", "trial_number": "0", "skipped": "False", "complete": "True", "assignment": "3FTF2T8WLSQDHTSZ1BJ7Q7MB14SW9H", "start_time": "1.51813627109e+12", "human_length": "13", "nodes_expanded": "999", "instance": "prb22436", "end_time": "1.51813628752e+12", "optimal_length": "11", "subject": "A1IUH9D7N69VS"}
{"rt": "24969.0", "trial_number": "0", "skipped": "False", "complete": "True", "assignment": "3XC1O3LBOTUGQEPEV3HM8W67X4RTLL", "start_time": "1.51813832556e+12", "human_length": "15", "nodes_expanded": "999", "instance": "prb22436", "end_time": "1.51813835053e+12", "optimal_length": "11", "subject": "A1ZTSCPETU3UJW"}
{"rt": "20530.0", "trial_number": "0", "skipped": "False", "complete": "True", "assignment": "3TAYZSBPLMG9ASQRWXURJVBCPLN2SH", "start_time": "1.51813718219e+12", "human_length": "13", "nodes_expanded": "999", "instance": "prb22436", "end_time": "1.51813720272e+12", "optimal_length": "11", "subject": "A2RCYLKY072XXO"}
{"rt": "72362.0", "trial_number": "0", "skipped": "False", "complete": "True", "assignment": "3R3YRB5GRGBEU8DZYHI64ECYM60UAW", "start_time": "1.51814102347e+12", "human_length": "16", "nodes_expanded": "999", "instance": "prb22436", "end_time": "1.51814109583e+12", "optimal_length": "11", "subject": "AVI7K876BV3QL"}
{"rt": "15665.0", "trial_number": "0", "skipped": "False", "complete": "True", "assignment": "3ZSANO2JCGFTBM23KS9Y3E51YP4FSQ", "start_time": "1.51814208418e+12", "human_length": "15", "nodes_expanded": "999", "instance": "prb22436", "end_time": "1.51814209984e+12", "optimal_length": "11", "subject": "A1F42D4L22K5ND"}
{"rt": "14275.0", "trial_number": "0", "skipped": "False", "complete": "True", "assignment": "3XLBSAQ9Z5KDX59BX15UBFPNNHYZ7Q", "start_time": "1.51814707531e+12", "human_length": "11", "nodes_expanded": "999", "instance": "prb22436", "end_time": "1.51814708958e+12", "optimal_length": "11", "subject": "A1HFNOKU591WCY"}
{"rt": "65162.0", "trial_number": "0", "skipped": "False", "complete": "True", "assignment": "3EWIJTFFVPF14ZIVGF68BQEIRXP0ER", "start_time": "1.51814755786e+12", "human_length": "22", "nodes_expanded": "999", "instance": "prb22436", "end_time": "1.51814762302e+12", "optimal_length": "11", "subject": "A30AGR5KF8IEL"}
{"rt": "29366.0", "trial_number": "0", "skipped": "False", "complete": "True", "assignment": "3FUI0JHJPY6UBT1VAI7VUX8S3KH33W", "start_time": "1.51814948936e+12", "human_length": "18", "nodes_expanded": "999", "instance": "prb22436", "end_time": "1.51814951873e+12", "optimal_length": "11", "subject": "A2QIZ31TMHU0GD"}
{"rt": "21031.0", "trial_number": "0", "skipped": "False", "complete": "True", "assignment": "37QW5D2ZRHUKW7SGCE3STMOFBMK8SX", "start_time": "1.51815678296e+12", "human_length": "13", "nodes_expanded": "999", "instance": "prb22436", "end_time": "1.51815680399e+12", "optimal_length": "11", "subject": "AMW2XLD9443OH"}
{"rt": "24080.0", "trial_number": "0", "skipped": "False", "complete": "True", "assignment": "3M0BCWMB8W4W5M7WZVX3HDH1P53WB1", "start_time": "1.51815881282e+12", "human_length": "15", "nodes_expanded": "999", "instance": "prb22436", "end_time": "1.5181588369e+12", "optimal_length": "11", "subject": "A53S7J4JGWG38"}
{"rt": "44940.0", "trial_number": "0", "skipped": "False", "complete": "True", "assignment": "3IXEICO793RY7TM78ZBKJDOA7ADT6Q", "start_time": "1.51816800053e+12", "human_length": "30", "nodes_expanded": "999", "instance": "prb22436", "end_time": "1.51816804547e+12", "optimal_length": "11", "subject": "ALH1K6ZAQQMN7"}
