{"rt": "81686.0", "trial_number": "0", "skipped": "False", "complete": "True", "assignment": "36AHBNMV1SKT9O0GSS6XX0QHZV3YDN", "start_time": "1.51630519804e+12", "human_length": "7", "nodes_expanded": "999", "instance": "prb21272", "end_time": "1.51630527973e+12", "optimal_length": "7", "subject": "A39GADIK8RLMVC"}
{"rt": "55544.0", "trial_number": "0", "skipped": "False", "complete": "True", "assignment": "3AZHRG4CU5SYU12YRVPCSZALW5003R", "start_time": "1.51630796047e+12", "human_length": "52", "nodes_expanded": "999", "instance": "prb21272", "end_time": "1.51630801602e+12", "optimal_length": "7", "subject": "ARWF605I7RWM7"}
{"rt": "18809.0", "trial_number": "0", "skipped": "False", "complete": "True", "assignment": "3PMBY0YE28B43VMUKKJ6EDF85RV9C8", "start_time": "1.51638781585e+12", "human_length": "16", "nodes_expanded": "999", "instance": "prb21272", "end_time": "1.51638783466e+12", "optimal_length": "7", "subject": "A191V7PT3DQKDP"}
{"rt": "26527.0", "trial_number": "0", "skipped": "False", "complete": "True", "assignment": "3VNL7UK1XGRUQMFI9SEODJ1NWBPTF2", "start_time": "1.51638687409e+12", "human_length": "19", "nodes_expanded": "999", "instance": "prb21272", "end_time": "1.51638690062e+12", "optimal_length": "7", "subject": "A394S7JSNUA3TS"}
{"rt": "9603.0", "trial_number": "0", "skipped": "False", "complete": "True", "assignment": "34BBWHLWHBJ6SUL255PK30LEGY5IWG", "start_time": "1.51639321825e+12", "human_length": "11", "nodes_expanded": "999", "instance": "prb21272", "end_time": "1.51639322786e+12", "optimal_length": "7", "subject": "A214HWAW1PYWO8"}
{"rt": "0.0", "trial_number": "0", "skipped": "False", "complete": "False", "assignment": "3VE8AYVF8N5BS2NU6U3TMN50JMNF8V", "start_time": "1.51673577999e+12", "human_length": "1", "nodes_expanded": "999", "instance": "prb21272", "end_time": "1.51673577999e+12", "optimal_length": "7", "subject": "A18QU0YQB6Q8DF"}
{"rt": "0.0", "trial_number": "1", "skipped": "False", "complete": "False", "assignment": "3VE8AYVF8N5BS2NU6U3TMN50JMNF8V", "start_time": "1.51673577999e+12", "human_length": "1", "nodes_expanded": "999", "instance": "prb21272", "end_time": "1.51673577999e+12", "optimal_length": "7", "subject": "A18QU0YQB6Q8DF"}
{"rt": "67740.0", "trial_number": "2", "skipped": "False", "complete": "True", "assignment": "3VE8AYVF8N5BS2NU6U3TMN50JMNF8V", "start_time": "1.51673577999e+12", "human_length": "22", "nodes_expanded": "999", "instance": "prb21272", "end_time": "1.51673584773e+12", "optimal_length": "7", "subject": "A18QU0YQB6Q8DF"}
{"rt": "0.0", "trial_number": "0", "skipped": "False", "complete": "False", "assignment": "3X87C8JFV7JQ2BSCY8KSFD9F2ILSQK", "start_time": "1.51673862201e+12", "human_length": "1", "nodes_expanded": "999", "instance": "prb21272", "end_time": "1.51673862201e+12", "optimal_length": "7", "subject": "A3Q0XAGQ7TD7MP"}
{"rt": "0.0", "trial_number": "1", "skipped": "False", "complete": "False", "assignment": "3X87C8JFV7JQ2BSCY8KSFD9F2ILSQK", "start_time": "1.51673862201e+12", "human_length": "1", "nodes_expanded": "999", "instance": "prb21272", "end_time": "1.51673862201e+12", "optimal_length": "7", "subject": "A3Q0XAGQ7TD7MP"}
{"rt": "15861.0", "trial_number": "2", "skipped": "False", "complete": "True", "assignment": "3X87C8JFV7JQ2BSCY8KSFD9F2ILSQK", "start_time": "1.51673862201e+12", "human_length": "8", "nodes_expanded": "999", "instance": "prb21272", "end_time": "1.51673863787e+12", "optimal_length": "7", "subject": "A3Q0XAGQ7TD7MP"}
{"rt": "17966.0", "trial_number": "3", "skipped": "False", "complete": "True", "assignment": "3GLB5JMZFY3TNXFGYMKRQ0JDXNTDGZ", "start_time": "1.51794802588e+12", "human_length": "9", "nodes_expanded": "999", "instance": "prb21272", "end_time": "1.51794804385e+12", "optimal_length": "7", "subject": "A3Q0XAGQ7TD7MP"}
{"rt": "6690.0", "trial_number": "0", "skipped": "False", "complete": "False", "assignment": "3WSELTNVR4AZUVYAYCSWZIQW0J4ATB", "start_time": "1.51673787817e+12", "human_length": "3", "nodes_expanded": "999", "instance": "prb21272", "end_time": "1.51673788486e+12", "optimal_length": "7", "subject": "A2TQNX64349OZ9"}
{"rt": "0.0", "trial_number": "1", "skipped": "False", "complete": "False", "assignment": "3WSELTNVR4AZUVYAYCSWZIQW0J4ATB", "start_time": "1.51673788606e+12", "human_length": "1", "nodes_expanded": "999", "instance": "prb21272", "end_time": "1.51673788606e+12", "optimal_length": "7", "subject": "A2TQNX64349OZ9"}
{"rt": "0.0", "trial_number": "2", "skipped": "False", "complete": "False", "assignment": "3WSELTNVR4AZUVYAYCSWZIQW0J4ATB", "start_time": "1.51673787817e+12", "human_length": "1", "nodes_expanded": "999", "instance": "prb21272", "end_time": "1.51673787817e+12", "optimal_length": "7", "subject": "A2TQNX64349OZ9"}
{"rt": "0.0", "trial_number": "3", "skipped": "False", "complete": "False", "assignment": "3WSELTNVR4AZUVYAYCSWZIQW0J4ATB", "start_time": "1.51673788606e+12", "human_length": "1", "nodes_expanded": "999", "instance": "prb21272", "end_time": "1.51673788606e+12", "optimal_length": "7", "subject": "A2TQNX64349OZ9"}
{"rt": "0.0", "trial_number": "4", "skipped": "False", "complete": "False", "assignment": "3WSELTNVR4AZUVYAYCSWZIQW0J4ATB", "start_time": "1.51673787817e+12", "human_length": "1", "nodes_expanded": "999", "instance": "prb21272", "end_time": "1.51673787817e+12", "optimal_length": "7", "subject": "A2TQNX64349OZ9"}
{"rt": "19596.0", "trial_number": "5", "skipped": "False", "complete": "True", "assignment": "3WSELTNVR4AZUVYAYCSWZIQW0J4ATB", "start_time": "1.51673788606e+12", "human_length": "17", "nodes_expanded": "999", "instance": "prb21272", "end_time": "1.51673790566e+12", "optimal_length": "7", "subject": "A2TQNX64349OZ9"}
{"rt": "0.0", "trial_number": "0", "skipped": "False", "complete": "False", "assignment": "3X87C8JFV7JQ2BSCY8KSFD9F2ILSQK", "start_time": "1.51674792906e+12", "human_length": "1", "nodes_expanded": "999", "instance": "prb21272", "end_time": "1.51674792906e+12", "optimal_length": "7", "subject": "A21S7MA9DCW95E"}
{"rt": "0.0", "trial_number": "1", "skipped": "False", "complete": "False", "assignment": "3X87C8JFV7JQ2BSCY8KSFD9F2ILSQK", "start_time": "1.51674792906e+12", "human_length": "1", "nodes_expanded": "999", "instance": "prb21272", "end_time": "1.51674792906e+12", "optimal_length": "7", "subject": "A21S7MA9DCW95E"}
{"rt": "44065.0", "trial_number": "2", "skipped": "False", "complete": "True", "assignment": "3X87C8JFV7JQ2BSCY8KSFD9F2ILSQK", "start_time": "1.51674792906e+12", "human_length": "25", "nodes_expanded": "999", "instance": "prb21272", "end_time": "1.51674797313e+12", "optimal_length": "7", "subject": "A21S7MA9DCW95E"}
{"rt": "0.0", "trial_number": "0", "skipped": "False", "complete": "False", "assignment": "3IJXV6UZ1YR1KY4G6BFEG1DXP7SRI1", "start_time": "1.51675195141e+12", "human_length": "1", "nodes_expanded": "999", "instance": "prb21272", "end_time": "1.51675195141e+12", "optimal_length": "7", "subject": "A2RTJ6BDY0DZVZ"}
{"rt": "0.0", "trial_number": "1", "skipped": "False", "complete": "False", "assignment": "3IJXV6UZ1YR1KY4G6BFEG1DXP7SRI1", "start_time": "1.51675195141e+12", "human_length": "1", "nodes_expanded": "999", "instance": "prb21272", "end_time": "1.51675195141e+12", "optimal_length": "7", "subject": "A2RTJ6BDY0DZVZ"}
{"rt": "37853.0", "trial_number": "2", "skipped": "False", "complete": "True", "assignment": "3IJXV6UZ1YR1KY4G6BFEG1DXP7SRI1", "start_time": "1.51675195141e+12", "human_length": "21", "nodes_expanded": "999", "instance": "prb21272", "end_time": "1.51675198926e+12", "optimal_length": "7", "subject": "A2RTJ6BDY0DZVZ"}
{"rt": "0.0", "trial_number": "0", "skipped": "False", "complete": "False", "assignment": "3X4MXAO0BHWJLTOLVSJTHSM54OHWRG", "start_time": "1.51682198237e+12", "human_length": "1", "nodes_expanded": "999", "instance": "prb21272", "end_time": "1.51682198237e+12", "optimal_length": "7", "subject": "A2IBQA01NR5N76"}
{"rt": "11074.0", "trial_number": "1", "skipped": "False", "complete": "True", "assignment": "3X4MXAO0BHWJLTOLVSJTHSM54OHWRG", "start_time": "1.51682198237e+12", "human_length": "7", "nodes_expanded": "999", "instance": "prb21272", "end_time": "1.51682199344e+12", "optimal_length": "7", "subject": "A2IBQA01NR5N76"}
{"rt": "11074.0", "trial_number": "0", "skipped": "False", "complete": "True", "assignment": "3X4MXAO0BHWJLTOLVSJTHSM54OHWRG", "start_time": "1.51682198237e+12", "human_length": "7", "nodes_expanded": "999", "instance": "prb21272", "end_time": "1.51682199344e+12", "optimal_length": "7", "subject": "A2IBQA01NR5N76"}
{"rt": "0.0", "trial_number": "0", "skipped": "False", "complete": "False", "assignment": "3IHR8NYAM89M0EPM8U9LH53ZJDTP4U", "start_time": "1.51682519328e+12", "human_length": "1", "nodes_expanded": "999", "instance": "prb21272", "end_time": "1.51682519328e+12", "optimal_length": "7", "subject": "A23437BMZ5T1FH"}
{"rt": "8763.0", "trial_number": "1", "skipped": "False", "complete": "True", "assignment": "3IHR8NYAM89M0EPM8U9LH53ZJDTP4U", "start_time": "1.51682519328e+12", "human_length": "8", "nodes_expanded": "999", "instance": "prb21272", "end_time": "1.51682520204e+12", "optimal_length": "7", "subject": "A23437BMZ5T1FH"}
{"rt": "26823.0", "trial_number": "0", "skipped": "False", "complete": "True", "assignment": "37WLF8U1WQYZ4AWKEQXSIM1ELVEK6W", "start_time": "1.51683245925e+12", "human_length": "14", "nodes_expanded": "999", "instance": "prb21272", "end_time": "1.51683248607e+12", "optimal_length": "7", "subject": "A2EPBSY0VPI38S"}
{"rt": "6355.0", "trial_number": "0", "skipped": "False", "complete": "True", "assignment": "3YW4XOSQKRTI0K0Z2YPDTDJVFABU1I", "start_time": "1.51683357354e+12", "human_length": "7", "nodes_expanded": "999", "instance": "prb21272", "end_time": "1.5168335799e+12", "optimal_length": "7", "subject": "A1LR0VQIHQUJAM"}
{"rt": "67740.0", "trial_number": "0", "skipped": "False", "complete": "True", "assignment": "3VE8AYVF8N5BS2NU6U3TMN50JMNF8V", "start_time": "1.51673577999e+12", "human_length": "22", "nodes_expanded": "999", "instance": "prb21272", "end_time": "1.51673584773e+12", "optimal_length": "7", "subject": "A18QU0YQB6Q8DF"}
{"rt": "15861.0", "trial_number": "0", "skipped": "False", "complete": "True", "assignment": "3X87C8JFV7JQ2BSCY8KSFD9F2ILSQK", "start_time": "1.51673862201e+12", "human_length": "8", "nodes_expanded": "999", "instance": "prb21272", "end_time": "1.51673863787e+12", "optimal_length": "7", "subject": "A3Q0XAGQ7TD7MP"}
{"rt": "17966.0", "trial_number": "1", "skipped": "False", "complete": "True", "assignment": "3GLB5JMZFY3TNXFGYMKRQ0JDXNTDGZ", "start_time": "1.51794802588e+12", "human_length": "9", "nodes_expanded": "999", "instance": "prb21272", "end_time": "1.51794804385e+12", "optimal_length": "7", "subject": "A3Q0XAGQ7TD7MP"}
{"rt": "6690.0", "trial_number": "0", "skipped": "False", "complete": "False", "assignment": "3WSELTNVR4AZUVYAYCSWZIQW0J4ATB", "start_time": "1.51673787817e+12", "human_length": "3", "nodes_expanded": "999", "instance": "prb21272", "end_time": "1.51673788486e+12", "optimal_length": "7", "subject": "A2TQNX64349OZ9"}
{"rt": "19596.0", "trial_number": "1", "skipped": "False", "complete": "True", "assignment": "3WSELTNVR4AZUVYAYCSWZIQW0J4ATB", "start_time": "1.51673788606e+12", "human_length": "17", "nodes_expanded": "999", "instance": "prb21272", "end_time": "1.51673790566e+12", "optimal_length": "7", "subject": "A2TQNX64349OZ9"}
{"rt": "44065.0", "trial_number": "0", "skipped": "False", "complete": "True", "assignment": "3X87C8JFV7JQ2BSCY8KSFD9F2ILSQK", "start_time": "1.51674792906e+12", "human_length": "25", "nodes_expanded": "999", "instance": "prb21272", "end_time": "1.51674797313e+12", "optimal_length": "7", "subject": "A21S7MA9DCW95E"}
{"rt": "37853.0", "trial_number": "0", "skipped": "False", "complete": "True", "assignment": "3IJXV6UZ1YR1KY4G6BFEG1DXP7SRI1", "start_time": "1.51675195141e+12", "human_length": "21", "nodes_expanded": "999", "instance": "prb21272", "end_time": "1.51675198926e+12", "optimal_length": "7", "subject": "A2RTJ6BDY0DZVZ"}
{"rt": "28460.0", "trial_number": "0", "skipped": "False", "complete": "True", "assignment": "3TS1AR6UQRM7SOIBWPBN8N9589Y7FV", "start_time": "1.51683847363e+12", "human_length": "20", "nodes_expanded": "999", "instance": "prb21272", "end_time": "1.51683850209e+12", "optimal_length": "7", "subject": "A1F4N58CAX8IMK"}
{"rt": "17263.0", "trial_number": "1", "skipped": "False", "complete": "True", "assignment": "35DR22AR5ES6RR89U7EJ1DXW91AX3P", "start_time": "1.51795470961e+12", "human_length": "17", "nodes_expanded": "999", "instance": "prb21272", "end_time": "1.51795472688e+12", "optimal_length": "7", "subject": "A1F4N58CAX8IMK"}
{"rt": "12983.0", "trial_number": "0", "skipped": "False", "complete": "True", "assignment": "3M0BCWMB8W4W5M7WZVX3HDH1M3FBWL", "start_time": "1.51684059461e+12", "human_length": "8", "nodes_expanded": "999", "instance": "prb21272", "end_time": "1.51684060759e+12", "optimal_length": "7", "subject": "A1XDMS0KFSF5JW"}
{"rt": "0.0", "trial_number": "0", "skipped": "False", "complete": "False", "assignment": "3TS1AR6UQRM7SOIBWPBN8N9589Y7FV", "start_time": "1.51684507881e+12", "human_length": "1", "nodes_expanded": "999", "instance": "prb21272", "end_time": "1.51684507881e+12", "optimal_length": "7", "subject": "A15FXHC1CVNW31"}
{"rt": "2393.0", "trial_number": "1", "skipped": "False", "complete": "False", "assignment": "3TS1AR6UQRM7SOIBWPBN8N9589Y7FV", "start_time": "1.51684507883e+12", "human_length": "2", "nodes_expanded": "999", "instance": "prb21272", "end_time": "1.51684508123e+12", "optimal_length": "7", "subject": "A15FXHC1CVNW31"}
{"rt": "22997.0", "trial_number": "2", "skipped": "False", "complete": "True", "assignment": "3TS1AR6UQRM7SOIBWPBN8N9589Y7FV", "start_time": "1.51684509143e+12", "human_length": "15", "nodes_expanded": "999", "instance": "prb21272", "end_time": "1.51684511443e+12", "optimal_length": "7", "subject": "A15FXHC1CVNW31"}
{"rt": "22574.0", "trial_number": "0", "skipped": "False", "complete": "True", "assignment": "31LM9EDVOM0C0BWUVMJXJINN3QPJNI", "start_time": "1.51752268373e+12", "human_length": "15", "nodes_expanded": "999", "instance": "prb21272", "end_time": "1.51752270631e+12", "optimal_length": "7", "subject": "A1NT8BT94ME6F5"}
{"rt": "34131.0", "trial_number": "0", "skipped": "False", "complete": "True", "assignment": "37TD41K0AIHM8AITTQJXV8KY05QCSB", "start_time": "1.51752352532e+12", "human_length": "16", "nodes_expanded": "999", "instance": "prb21272", "end_time": "1.51752355945e+12", "optimal_length": "7", "subject": "A30KYQGABO7JER"}
{"rt": "128319.0", "trial_number": "0", "skipped": "True", "complete": "False", "assignment": "36H9ULYP6320CJJDXY0KBDEE1Z3JFB", "start_time": "1.51753344198e+12", "human_length": "6", "nodes_expanded": "999", "instance": "prb21272", "end_time": "1.5175335703e+12", "optimal_length": "7", "subject": "AN098C29EGJ6"}
{"rt": "25842.0", "trial_number": "0", "skipped": "False", "complete": "True", "assignment": "3TYCR1GOTDRCCQYD1V64UK7OHTBZLQ", "start_time": "1.51753722982e+12", "human_length": "25", "nodes_expanded": "999", "instance": "prb21272", "end_time": "1.51753725567e+12", "optimal_length": "7", "subject": "A13BZCNJ0WR1T7"}
{"rt": "32583.0", "trial_number": "0", "skipped": "True", "complete": "False", "assignment": "3TPWUS5F8A9FFRZ2DVTYSXNJ6BWWC6", "start_time": "1.5179393217e+12", "human_length": "7", "nodes_expanded": "999", "instance": "prb21272", "end_time": "1.51793935428e+12", "optimal_length": "7", "subject": "A3GXC3VG37CQ3G"}
{"rt": "12861.0", "trial_number": "0", "skipped": "False", "complete": "True", "assignment": "3IAS3U3I0GOAT69PLB8WT61CKJ22BO", "start_time": "1.51793945876e+12", "human_length": "8", "nodes_expanded": "999", "instance": "prb21272", "end_time": "1.51793947162e+12", "optimal_length": "7", "subject": "A2C84POENS2UNY"}
{"rt": "33629.0", "trial_number": "0", "skipped": "False", "complete": "True", "assignment": "34HJIJKLP64Z5YMIU6IKNXSH7PDV4I", "start_time": "1.51794289926e+12", "human_length": "19", "nodes_expanded": "999", "instance": "prb21272", "end_time": "1.51794293289e+12", "optimal_length": "7", "subject": "A3CTXNQ2GXIQSP"}
{"rt": "28285.0", "trial_number": "0", "skipped": "False", "complete": "True", "assignment": "33PPO7FECWN7JOLBOAKUBCWTC0AIDL", "start_time": "1.51794153696e+12", "human_length": "17", "nodes_expanded": "999", "instance": "prb21272", "end_time": "1.51794156524e+12", "optimal_length": "7", "subject": "AB5IVPS4OP9M8"}
{"rt": "8116.0", "trial_number": "0", "skipped": "False", "complete": "True", "assignment": "3STRJBFXOXZ5687WA35LTWTS7QZKTT", "start_time": "1.51794400939e+12", "human_length": "7", "nodes_expanded": "999", "instance": "prb21272", "end_time": "1.5179440175e+12", "optimal_length": "7", "subject": "A3OB6REG5CGHK1"}
{"rt": "31268.0", "trial_number": "0", "skipped": "True", "complete": "False", "assignment": "33PPO7FECWN7JOLBOAKUBCWTC0AIDL", "start_time": "1.51795034485e+12", "human_length": "9", "nodes_expanded": "999", "instance": "prb21272", "end_time": "1.51795037612e+12", "optimal_length": "7", "subject": "AXKM02NVXNGOM"}
{"rt": "0.0", "trial_number": "0", "skipped": "False", "complete": "False", "assignment": "3HYA4D452SR06NL5QDUSCWSXZI12FF", "start_time": "1.51795079564e+12", "human_length": "1", "nodes_expanded": "999", "instance": "prb21272", "end_time": "1.51795079564e+12", "optimal_length": "7", "subject": "A2OFWHV8IP7HK"}
{"rt": "10204.0", "trial_number": "1", "skipped": "False", "complete": "False", "assignment": "3HYA4D452SR06NL5QDUSCWSXZI12FF", "start_time": "1.51795079567e+12", "human_length": "3", "nodes_expanded": "999", "instance": "prb21272", "end_time": "1.51795080587e+12", "optimal_length": "7", "subject": "A2OFWHV8IP7HK"}
{"rt": "10136.0", "trial_number": "2", "skipped": "False", "complete": "True", "assignment": "3HYA4D452SR06NL5QDUSCWSXZI12FF", "start_time": "1.51795081301e+12", "human_length": "7", "nodes_expanded": "999", "instance": "prb21272", "end_time": "1.51795082314e+12", "optimal_length": "7", "subject": "A2OFWHV8IP7HK"}
{"rt": "24853.0", "trial_number": "0", "skipped": "False", "complete": "True", "assignment": "3PB5A5BD0WED6OE679H5Q89HBDGG71", "start_time": "1.51795369412e+12", "human_length": "17", "nodes_expanded": "999", "instance": "prb21272", "end_time": "1.51795371897e+12", "optimal_length": "7", "subject": "A1USR9JCAMDGM3"}
{"rt": "24757.0", "trial_number": "0", "skipped": "False", "complete": "True", "assignment": "33F859I567LE8WC74WB3GA7E94XBHW", "start_time": "1.51797022274e+12", "human_length": "10", "nodes_expanded": "999", "instance": "prb21272", "end_time": "1.51797024749e+12", "optimal_length": "7", "subject": "A1GQS6USF2JEYG"}
{"rt": "24910.0", "trial_number": "0", "skipped": "False", "complete": "True", "assignment": "3IJXV6UZ1YR1KY4G6BFEG1DXR47RIC", "start_time": "1.51797174005e+12", "human_length": "27", "nodes_expanded": "999", "instance": "prb21272", "end_time": "1.51797176496e+12", "optimal_length": "7", "subject": "A18T3WK7J16C1B"}
{"rt": "6599.0", "trial_number": "0", "skipped": "False", "complete": "True", "assignment": "3FTF2T8WLSQDHTSZ1BJ7Q7MB14SW9H", "start_time": "1.51813762803e+12", "human_length": "7", "nodes_expanded": "999", "instance": "prb21272", "end_time": "1.51813763463e+12", "optimal_length": "7", "subject": "A1IUH9D7N69VS"}
{"rt": "31761.0", "trial_number": "0", "skipped": "False", "complete": "False", "assignment": "3XC1O3LBOTUGQEPEV3HM8W67X4RTLL", "start_time": "1.5181359826e+12", "human_length": "8", "nodes_expanded": "999", "instance": "prb21272", "end_time": "1.51813601436e+12", "optimal_length": "7", "subject": "A1ZTSCPETU3UJW"}
{"rt": "27512.0", "trial_number": "1", "skipped": "False", "complete": "True", "assignment": "3XC1O3LBOTUGQEPEV3HM8W67X4RTLL", "start_time": "1.51813601793e+12", "human_length": "11", "nodes_expanded": "999", "instance": "prb21272", "end_time": "1.51813604544e+12", "optimal_length": "7", "subject": "A1ZTSCPETU3UJW"}
{"rt": "20353.0", "trial_number": "0", "skipped": "False", "complete": "True", "assignment": "3TAYZSBPLMG9ASQRWXURJVBCPLN2SH", "start_time": "1.51813702127e+12", "human_length": "19", "nodes_expanded": "999", "instance": "prb21272", "end_time": "1.51813704162e+12", "optimal_length": "7", "subject": "A2RCYLKY072XXO"}
{"rt": "41558.0", "trial_number": "0", "skipped": "False", "complete": "False", "assignment": "3SB5N7Y3O4CZODEMMAWWBTZU4C90GB", "start_time": "1.5181387868e+12", "human_length": "14", "nodes_expanded": "999", "instance": "prb21272", "end_time": "1.51813882836e+12", "optimal_length": "7", "subject": "A1RVMADIZE3BXK"}
{"rt": "36806.0", "trial_number": "1", "skipped": "False", "complete": "False", "assignment": "3SB5N7Y3O4CZODEMMAWWBTZU4C90GB", "start_time": "1.51813883024e+12", "human_length": "11", "nodes_expanded": "999", "instance": "prb21272", "end_time": "1.51813886705e+12", "optimal_length": "7", "subject": "A1RVMADIZE3BXK"}
{"rt": "16699.0", "trial_number": "2", "skipped": "False", "complete": "True", "assignment": "3SB5N7Y3O4CZODEMMAWWBTZU4C90GB", "start_time": "1.51813887075e+12", "human_length": "7", "nodes_expanded": "999", "instance": "prb21272", "end_time": "1.51813888745e+12", "optimal_length": "7", "subject": "A1RVMADIZE3BXK"}
{"rt": "40694.0", "trial_number": "0", "skipped": "False", "complete": "True", "assignment": "3ZSANO2JCGFTBM23KS9Y3E51YP4FSQ", "start_time": "1.51814391337e+12", "human_length": "25", "nodes_expanded": "999", "instance": "prb21272", "end_time": "1.51814395407e+12", "optimal_length": "7", "subject": "A1F42D4L22K5ND"}
{"rt": "58857.0", "trial_number": "0", "skipped": "False", "complete": "True", "assignment": "3TMFV4NEP9MD3O9PWJDTQBR0HZYW8I", "start_time": "1.51814472879e+12", "human_length": "28", "nodes_expanded": "999", "instance": "prb21272", "end_time": "1.51814478765e+12", "optimal_length": "7", "subject": "A3GOOI75XOF24V"}
{"rt": "39361.0", "trial_number": "0", "skipped": "False", "complete": "True", "assignment": "3XLBSAQ9Z5KDX59BX15UBFPNNHYZ7Q", "start_time": "1.51814739391e+12", "human_length": "31", "nodes_expanded": "999", "instance": "prb21272", "end_time": "1.51814743327e+12", "optimal_length": "7", "subject": "A1HFNOKU591WCY"}
{"rt": "39258.0", "trial_number": "0", "skipped": "False", "complete": "True", "assignment": "3FUI0JHJPY6UBT1VAI7VUX8S3KH33W", "start_time": "1.5181518611e+12", "human_length": "31", "nodes_expanded": "999", "instance": "prb21272", "end_time": "1.51815190036e+12", "optimal_length": "7", "subject": "A2QIZ31TMHU0GD"}
{"rt": "40426.0", "trial_number": "0", "skipped": "False", "complete": "True", "assignment": "37QW5D2ZRHUKW7SGCE3STMOFBMK8SX", "start_time": "1.5181589036e+12", "human_length": "8", "nodes_expanded": "999", "instance": "prb21272", "end_time": "1.51815894403e+12", "optimal_length": "7", "subject": "AMW2XLD9443OH"}
{"rt": "14567.0", "trial_number": "0", "skipped": "False", "complete": "True", "assignment": "3M0BCWMB8W4W5M7WZVX3HDH1P53WB1", "start_time": "1.51816004852e+12", "human_length": "12", "nodes_expanded": "999", "instance": "prb21272", "end_time": "1.51816006309e+12", "optimal_length": "7", "subject": "A53S7J4JGWG38"}
{"rt": "9806.0", "trial_number": "0", "skipped": "False", "complete": "True", "assignment": "3SITXWYCNWHBUMCM90TPJWV8Y7AXBW", "start_time": "1.51816627987e+12", "human_length": "7", "nodes_expanded": "999", "instance": "prb21272", "end_time": "1.51816628968e+12", "optimal_length": "7", "subject": "A28RX7L0QZ993M"}
{"rt": "37555.0", "trial_number": "0", "skipped": "False", "complete": "True", "assignment": "3IXEICO793RY7TM78ZBKJDOA7ADT6Q", "start_time": "1.51816946097e+12", "human_length": "28", "nodes_expanded": "999", "instance": "prb21272", "end_time": "1.51816949852e+12", "optimal_length": "7", "subject": "ALH1K6ZAQQMN7"}
