{"rt": "127923.0", "trial_number": "0", "skipped": "False", "complete": "True", "assignment": "36AHBNMV1SKT9O0GSS6XX0QHZV3YDN", "start_time": "1.51630501223e+12", "human_length": "16", "nodes_expanded": "999", "instance": "prb29027", "end_time": "1.51630514016e+12", "optimal_length": "16", "subject": "A39GADIK8RLMVC"}
{"rt": "29115.0", "trial_number": "0", "skipped": "False", "complete": "True", "assignment": "3AZHRG4CU5SYU12YRVPCSZALW5003R", "start_time": "1.51630747317e+12", "human_length": "31", "nodes_expanded": "999", "instance": "prb29027", "end_time": "1.51630750229e+12", "optimal_length": "16", "subject": "ARWF605I7RWM7"}
{"rt": "54717.0", "trial_number": "0", "skipped": "False", "complete": "True", "assignment": "3PMBY0YE28B43VMUKKJ6EDF85RV9C8", "start_time": "1.51638676128e+12", "human_length": "38", "nodes_expanded": "999", "instance": "prb29027", "end_time": "1.516386816e+12", "optimal_length": "16", "subject": "A191V7PT3DQKDP"}
{"rt": "54933.0", "trial_number": "0", "skipped": "False", "complete": "True", "assignment": "3TYCR1GOTDRCCQYD1V64UK7OE48LZS", "start_time": "1.51639141088e+12", "human_length": "31", "nodes_expanded": "999", "instance": "prb29027", "end_time": "1.51639146581e+12", "optimal_length": "16", "subject": "A2MYB6MLQW0IGN"}
{"rt": "43909.0", "trial_number": "0", "skipped": "False", "complete": "False", "assignment": "34BBWHLWHBJ6SUL255PK30LEGY5IWG", "start_time": "1.51639312684e+12", "human_length": "21", "nodes_expanded": "999", "instance": "prb29027", "end_time": "1.51639317075e+12", "optimal_length": "16", "subject": "A214HWAW1PYWO8"}
{"rt": "28856.0", "trial_number": "1", "skipped": "False", "complete": "True", "assignment": "34BBWHLWHBJ6SUL255PK30LEGY5IWG", "start_time": "1.51639317127e+12", "human_length": "24", "nodes_expanded": "999", "instance": "prb29027", "end_time": "1.51639320012e+12", "optimal_length": "16", "subject": "A214HWAW1PYWO8"}
{"rt": "0.0", "trial_number": "0", "skipped": "False", "complete": "False", "assignment": "3X87C8JFV7JQ2BSCY8KSFD9F2ILSQK", "start_time": "1.51673863898e+12", "human_length": "1", "nodes_expanded": "999", "instance": "prb29027", "end_time": "1.51673863898e+12", "optimal_length": "16", "subject": "A3Q0XAGQ7TD7MP"}
{"rt": "0.0", "trial_number": "1", "skipped": "False", "complete": "False", "assignment": "3X87C8JFV7JQ2BSCY8KSFD9F2ILSQK", "start_time": "1.51673863898e+12", "human_length": "1", "nodes_expanded": "999", "instance": "prb29027", "end_time": "1.51673863898e+12", "optimal_length": "16", "subject": "A3Q0XAGQ7TD7MP"}
{"rt": "125011.0", "trial_number": "2", "skipped": "False", "complete": "True", "assignment": "3X87C8JFV7JQ2BSCY8KSFD9F2ILSQK", "start_time": "1.51673863898e+12", "human_length": "56", "nodes_expanded": "999", "instance": "prb29027", "end_time": "1.51673876399e+12", "optimal_length": "16", "subject": "A3Q0XAGQ7TD7MP"}
{"rt": "55538.0", "trial_number": "3", "skipped": "False", "complete": "True", "assignment": "3GLB5JMZFY3TNXFGYMKRQ0JDXNTDGZ", "start_time": "1.51794851718e+12", "human_length": "18", "nodes_expanded": "999", "instance": "prb29027", "end_time": "1.51794857271e+12", "optimal_length": "16", "subject": "A3Q0XAGQ7TD7MP"}
{"rt": "10651.0", "trial_number": "0", "skipped": "False", "complete": "False", "assignment": "3WSELTNVR4AZUVYAYCSWZIQW0J4ATB", "start_time": "1.51674021443e+12", "human_length": "8", "nodes_expanded": "999", "instance": "prb29027", "end_time": "1.51674022508e+12", "optimal_length": "16", "subject": "A2TQNX64349OZ9"}
{"rt": "0.0", "trial_number": "1", "skipped": "False", "complete": "False", "assignment": "3WSELTNVR4AZUVYAYCSWZIQW0J4ATB", "start_time": "1.51674022877e+12", "human_length": "1", "nodes_expanded": "999", "instance": "prb29027", "end_time": "1.51674022877e+12", "optimal_length": "16", "subject": "A2TQNX64349OZ9"}
{"rt": "0.0", "trial_number": "2", "skipped": "False", "complete": "False", "assignment": "3WSELTNVR4AZUVYAYCSWZIQW0J4ATB", "start_time": "1.51674021443e+12", "human_length": "1", "nodes_expanded": "999", "instance": "prb29027", "end_time": "1.51674021443e+12", "optimal_length": "16", "subject": "A2TQNX64349OZ9"}
{"rt": "0.0", "trial_number": "3", "skipped": "False", "complete": "False", "assignment": "3WSELTNVR4AZUVYAYCSWZIQW0J4ATB", "start_time": "1.51674022877e+12", "human_length": "1", "nodes_expanded": "999", "instance": "prb29027", "end_time": "1.51674022877e+12", "optimal_length": "16", "subject": "A2TQNX64349OZ9"}
{"rt": "0.0", "trial_number": "4", "skipped": "False", "complete": "False", "assignment": "3WSELTNVR4AZUVYAYCSWZIQW0J4ATB", "start_time": "1.51674021443e+12", "human_length": "1", "nodes_expanded": "999", "instance": "prb29027", "end_time": "1.51674021443e+12", "optimal_length": "16", "subject": "A2TQNX64349OZ9"}
{"rt": "11352.0", "trial_number": "5", "skipped": "True", "complete": "False", "assignment": "3WSELTNVR4AZUVYAYCSWZIQW0J4ATB", "start_time": "1.51674022877e+12", "human_length": "11", "nodes_expanded": "999", "instance": "prb29027", "end_time": "1.51674024012e+12", "optimal_length": "16", "subject": "A2TQNX64349OZ9"}
{"rt": "0.0", "trial_number": "0", "skipped": "False", "complete": "False", "assignment": "3IJXV6UZ1YR1KY4G6BFEG1DXP7SRI1", "start_time": "1.51674955195e+12", "human_length": "1", "nodes_expanded": "999", "instance": "prb29027", "end_time": "1.51674955195e+12", "optimal_length": "16", "subject": "A2RTJ6BDY0DZVZ"}
{"rt": "0.0", "trial_number": "1", "skipped": "False", "complete": "False", "assignment": "3IJXV6UZ1YR1KY4G6BFEG1DXP7SRI1", "start_time": "1.51674955195e+12", "human_length": "1", "nodes_expanded": "999", "instance": "prb29027", "end_time": "1.51674955195e+12", "optimal_length": "16", "subject": "A2RTJ6BDY0DZVZ"}
{"rt": "33895.0", "trial_number": "2", "skipped": "False", "complete": "True", "assignment": "3IJXV6UZ1YR1KY4G6BFEG1DXP7SRI1", "start_time": "1.51674955195e+12", "human_length": "19", "nodes_expanded": "999", "instance": "prb29027", "end_time": "1.51674958585e+12", "optimal_length": "16", "subject": "A2RTJ6BDY0DZVZ"}
{"rt": "0.0", "trial_number": "0", "skipped": "False", "complete": "False", "assignment": "3YW4XOSQKRTI0K0Z2YPDTDJVFABU1I", "start_time": "1.5168227089e+12", "human_length": "1", "nodes_expanded": "999", "instance": "prb29027", "end_time": "1.5168227089e+12", "optimal_length": "16", "subject": "A15781PHGW377Y"}
{"rt": "52680.0", "trial_number": "1", "skipped": "False", "complete": "True", "assignment": "3YW4XOSQKRTI0K0Z2YPDTDJVFABU1I", "start_time": "1.5168227089e+12", "human_length": "33", "nodes_expanded": "999", "instance": "prb29027", "end_time": "1.51682276158e+12", "optimal_length": "16", "subject": "A15781PHGW377Y"}
{"rt": "0.0", "trial_number": "0", "skipped": "False", "complete": "False", "assignment": "3IHR8NYAM89M0EPM8U9LH53ZJDTP4U", "start_time": "1.51682511412e+12", "human_length": "1", "nodes_expanded": "999", "instance": "prb29027", "end_time": "1.51682511412e+12", "optimal_length": "16", "subject": "A23437BMZ5T1FH"}
{"rt": "36565.0", "trial_number": "1", "skipped": "False", "complete": "True", "assignment": "3IHR8NYAM89M0EPM8U9LH53ZJDTP4U", "start_time": "1.51682511412e+12", "human_length": "31", "nodes_expanded": "999", "instance": "prb29027", "end_time": "1.51682515069e+12", "optimal_length": "16", "subject": "A23437BMZ5T1FH"}
{"rt": "182920.0", "trial_number": "0", "skipped": "False", "complete": "True", "assignment": "3YW4XOSQKRTI0K0Z2YPDTDJVFABU1I", "start_time": "1.51683213181e+12", "human_length": "56", "nodes_expanded": "999", "instance": "prb29027", "end_time": "1.51683231473e+12", "optimal_length": "16", "subject": "A1LR0VQIHQUJAM"}
{"rt": "125011.0", "trial_number": "0", "skipped": "False", "complete": "True", "assignment": "3X87C8JFV7JQ2BSCY8KSFD9F2ILSQK", "start_time": "1.51673863898e+12", "human_length": "56", "nodes_expanded": "999", "instance": "prb29027", "end_time": "1.51673876399e+12", "optimal_length": "16", "subject": "A3Q0XAGQ7TD7MP"}
{"rt": "55538.0", "trial_number": "1", "skipped": "False", "complete": "True", "assignment": "3GLB5JMZFY3TNXFGYMKRQ0JDXNTDGZ", "start_time": "1.51794851718e+12", "human_length": "18", "nodes_expanded": "999", "instance": "prb29027", "end_time": "1.51794857271e+12", "optimal_length": "16", "subject": "A3Q0XAGQ7TD7MP"}
{"rt": "10651.0", "trial_number": "0", "skipped": "False", "complete": "False", "assignment": "3WSELTNVR4AZUVYAYCSWZIQW0J4ATB", "start_time": "1.51674021443e+12", "human_length": "8", "nodes_expanded": "999", "instance": "prb29027", "end_time": "1.51674022508e+12", "optimal_length": "16", "subject": "A2TQNX64349OZ9"}
{"rt": "12584.0", "trial_number": "1", "skipped": "True", "complete": "False", "assignment": "3WSELTNVR4AZUVYAYCSWZIQW0J4ATB", "start_time": "1.51674022877e+12", "human_length": "7", "nodes_expanded": "999", "instance": "prb29027", "end_time": "1.51674024136e+12", "optimal_length": "16", "subject": "A2TQNX64349OZ9"}
{"rt": "33895.0", "trial_number": "0", "skipped": "False", "complete": "True", "assignment": "3IJXV6UZ1YR1KY4G6BFEG1DXP7SRI1", "start_time": "1.51674955195e+12", "human_length": "19", "nodes_expanded": "999", "instance": "prb29027", "end_time": "1.51674958585e+12", "optimal_length": "16", "subject": "A2RTJ6BDY0DZVZ"}
{"rt": "52680.0", "trial_number": "0", "skipped": "False", "complete": "True", "assignment": "3YW4XOSQKRTI0K0Z2YPDTDJVFABU1I", "start_time": "1.5168227089e+12", "human_length": "33", "nodes_expanded": "999", "instance": "prb29027", "end_time": "1.51682276158e+12", "optimal_length": "16", "subject": "A15781PHGW377Y"}
{"rt": "78754.0", "trial_number": "0", "skipped": "False", "complete": "False", "assignment": "3TS1AR6UQRM7SOIBWPBN8N9589Y7FV", "start_time": "1.51683860307e+12", "human_length": "52", "nodes_expanded": "999", "instance": "prb29027", "end_time": "1.51683868182e+12", "optimal_length": "16", "subject": "A1F4N58CAX8IMK"}
{"rt": "95397.0", "trial_number": "1", "skipped": "False", "complete": "True", "assignment": "35DR22AR5ES6RR89U7EJ1DXW91AX3P", "start_time": "1.51795398376e+12", "human_length": "100", "nodes_expanded": "999", "instance": "prb29027", "end_time": "1.51795407916e+12", "optimal_length": "16", "subject": "A1F4N58CAX8IMK"}
{"rt": "87744.0", "trial_number": "0", "skipped": "True", "complete": "False", "assignment": "31LM9EDVOM0C0BWUVMJXJINN3QPJNI", "start_time": "1.51752511237e+12", "human_length": "6", "nodes_expanded": "999", "instance": "prb29027", "end_time": "1.51752520012e+12", "optimal_length": "16", "subject": "A1NT8BT94ME6F5"}
{"rt": "103085.0", "trial_number": "0", "skipped": "True", "complete": "False", "assignment": "37TD41K0AIHM8AITTQJXV8KY05QCSB", "start_time": "1.51752319754e+12", "human_length": "47", "nodes_expanded": "999", "instance": "prb29027", "end_time": "1.51752330062e+12", "optimal_length": "16", "subject": "A30KYQGABO7JER"}
{"rt": "40836.0", "trial_number": "0", "skipped": "True", "complete": "False", "assignment": "36H9ULYP6320CJJDXY0KBDEE1Z3JFB", "start_time": "1.51753296757e+12", "human_length": "22", "nodes_expanded": "999", "instance": "prb29027", "end_time": "1.51753300841e+12", "optimal_length": "16", "subject": "AN098C29EGJ6"}
{"rt": "12286.0", "trial_number": "0", "skipped": "True", "complete": "False", "assignment": "3TYCR1GOTDRCCQYD1V64UK7OHTBZLQ", "start_time": "1.51753747193e+12", "human_length": "12", "nodes_expanded": "999", "instance": "prb29027", "end_time": "1.51753748422e+12", "optimal_length": "16", "subject": "A13BZCNJ0WR1T7"}
{"rt": "22936.0", "trial_number": "0", "skipped": "False", "complete": "True", "assignment": "3TPWUS5F8A9FFRZ2DVTYSXNJ6BWWC6", "start_time": "1.51794071948e+12", "human_length": "16", "nodes_expanded": "999", "instance": "prb29027", "end_time": "1.51794074242e+12", "optimal_length": "16", "subject": "A3GXC3VG37CQ3G"}
{"rt": "41538.0", "trial_number": "0", "skipped": "True", "complete": "False", "assignment": "34HJIJKLP64Z5YMIU6IKNXSH7PDV4I", "start_time": "1.51794327899e+12", "human_length": "22", "nodes_expanded": "999", "instance": "prb29027", "end_time": "1.51794332052e+12", "optimal_length": "16", "subject": "A3CTXNQ2GXIQSP"}
{"rt": "113374.0", "trial_number": "0", "skipped": "True", "complete": "False", "assignment": "33PPO7FECWN7JOLBOAKUBCWTC0AIDL", "start_time": "1.51794196496e+12", "human_length": "89", "nodes_expanded": "999", "instance": "prb29027", "end_time": "1.51794207833e+12", "optimal_length": "16", "subject": "AB5IVPS4OP9M8"}
{"rt": "58503.0", "trial_number": "0", "skipped": "False", "complete": "False", "assignment": "30IQTZXKALEAAZ9CBKW0ZFZP6O5X07", "start_time": "1.51794498875e+12", "human_length": "25", "nodes_expanded": "999", "instance": "prb29027", "end_time": "1.51794504726e+12", "optimal_length": "16", "subject": "A23XJ8I86R0O3B"}
{"rt": "50920.0", "trial_number": "1", "skipped": "False", "complete": "False", "assignment": "30IQTZXKALEAAZ9CBKW0ZFZP6O5X07", "start_time": "1.51794505315e+12", "human_length": "24", "nodes_expanded": "999", "instance": "prb29027", "end_time": "1.51794510407e+12", "optimal_length": "16", "subject": "A23XJ8I86R0O3B"}
{"rt": "12255.0", "trial_number": "2", "skipped": "True", "complete": "False", "assignment": "30IQTZXKALEAAZ9CBKW0ZFZP6O5X07", "start_time": "1.51794511494e+12", "human_length": "7", "nodes_expanded": "999", "instance": "prb29027", "end_time": "1.5179451272e+12", "optimal_length": "16", "subject": "A23XJ8I86R0O3B"}
{"rt": "38939.0", "trial_number": "0", "skipped": "False", "complete": "False", "assignment": "33PPO7FECWN7JOLBOAKUBCWTC0AIDL", "start_time": "1.51795022952e+12", "human_length": "15", "nodes_expanded": "999", "instance": "prb29027", "end_time": "1.51795026846e+12", "optimal_length": "16", "subject": "AXKM02NVXNGOM"}
{"rt": "21024.0", "trial_number": "1", "skipped": "True", "complete": "False", "assignment": "33PPO7FECWN7JOLBOAKUBCWTC0AIDL", "start_time": "1.51795027126e+12", "human_length": "6", "nodes_expanded": "999", "instance": "prb29027", "end_time": "1.51795029229e+12", "optimal_length": "16", "subject": "AXKM02NVXNGOM"}
{"rt": "156498.0", "trial_number": "0", "skipped": "False", "complete": "True", "assignment": "3PB5A5BD0WED6OE679H5Q89HBDGG71", "start_time": "1.51795083982e+12", "human_length": "100", "nodes_expanded": "999", "instance": "prb29027", "end_time": "1.51795099632e+12", "optimal_length": "16", "subject": "A1USR9JCAMDGM3"}
{"rt": "47806.0", "trial_number": "0", "skipped": "False", "complete": "True", "assignment": "3R5F3LQFV3SKIB1AENMWM1BICT5OZB", "start_time": "1.5179598458e+12", "human_length": "33", "nodes_expanded": "999", "instance": "prb29027", "end_time": "1.5179598936e+12", "optimal_length": "16", "subject": "A1N1EF0MIRSEZZ"}
{"rt": "50199.0", "trial_number": "0", "skipped": "False", "complete": "False", "assignment": "33F859I567LE8WC74WB3GA7E94XBHW", "start_time": "1.51796838570e+12", "human_length": "33", "nodes_expanded": "999", "instance": "prb29027", "end_time": "1.5179684359e+12", "optimal_length": "16", "subject": "A1GQS6USF2JEYG"}
{"rt": "2729.0", "trial_number": "1", "skipped": "False", "complete": "False", "assignment": "33F859I567LE8WC74WB3GA7E94XBHW", "start_time": "1.51796845403e+12", "human_length": "3", "nodes_expanded": "999", "instance": "prb29027", "end_time": "1.51796845676e+12", "optimal_length": "16", "subject": "A1GQS6USF2JEYG"}
{"rt": "16959.0", "trial_number": "2", "skipped": "False", "complete": "False", "assignment": "33F859I567LE8WC74WB3GA7E94XBHW", "start_time": "1.51796845928e+12", "human_length": "13", "nodes_expanded": "999", "instance": "prb29027", "end_time": "1.51796847624e+12", "optimal_length": "16", "subject": "A1GQS6USF2JEYG"}
{"rt": "28488.0", "trial_number": "3", "skipped": "False", "complete": "True", "assignment": "33F859I567LE8WC74WB3GA7E94XBHW", "start_time": "1.51796847736e+12", "human_length": "18", "nodes_expanded": "999", "instance": "prb29027", "end_time": "1.51796850585e+12", "optimal_length": "16", "subject": "A1GQS6USF2JEYG"}
{"rt": "2643.0", "trial_number": "0", "skipped": "False", "complete": "False", "assignment": "3IJXV6UZ1YR1KY4G6BFEG1DXR47RIC", "start_time": "1.51797506095e+12", "human_length": "2", "nodes_expanded": "999", "instance": "prb29027", "end_time": "1.51797506359e+12", "optimal_length": "16", "subject": "A18T3WK7J16C1B"}
{"rt": "0.0", "trial_number": "1", "skipped": "False", "complete": "False", "assignment": "3IJXV6UZ1YR1KY4G6BFEG1DXR47RIC", "start_time": "1.51797506398e+12", "human_length": "1", "nodes_expanded": "999", "instance": "prb29027", "end_time": "1.51797506398e+12", "optimal_length": "16", "subject": "A18T3WK7J16C1B"}
{"rt": "155579.0", "trial_number": "2", "skipped": "False", "complete": "True", "assignment": "3IJXV6UZ1YR1KY4G6BFEG1DXR47RIC", "start_time": "1.51797506746e+12", "human_length": "142", "nodes_expanded": "999", "instance": "prb29027", "end_time": "1.51797522304e+12", "optimal_length": "16", "subject": "A18T3WK7J16C1B"}
{"rt": "20103.0", "trial_number": "0", "skipped": "False", "complete": "True", "assignment": "3FTF2T8WLSQDHTSZ1BJ7Q7MB14SW9H", "start_time": "1.51813737055e+12", "human_length": "18", "nodes_expanded": "999", "instance": "prb29027", "end_time": "1.51813739065e+12", "optimal_length": "16", "subject": "A1IUH9D7N69VS"}
{"rt": "94377.0", "trial_number": "0", "skipped": "True", "complete": "False", "assignment": "3XC1O3LBOTUGQEPEV3HM8W67X4RTLL", "start_time": "1.51813835281e+12", "human_length": "45", "nodes_expanded": "999", "instance": "prb29027", "end_time": "1.51813844718e+12", "optimal_length": "16", "subject": "A1ZTSCPETU3UJW"}
{"rt": "29332.0", "trial_number": "0", "skipped": "False", "complete": "True", "assignment": "3TAYZSBPLMG9ASQRWXURJVBCPLN2SH", "start_time": "1.51813664152e+12", "human_length": "19", "nodes_expanded": "999", "instance": "prb29027", "end_time": "1.51813667085e+12", "optimal_length": "16", "subject": "A2RCYLKY072XXO"}
{"rt": "21242.0", "trial_number": "0", "skipped": "False", "complete": "True", "assignment": "3ZSANO2JCGFTBM23KS9Y3E51YP4FSQ", "start_time": "1.51814203448e+12", "human_length": "19", "nodes_expanded": "999", "instance": "prb29027", "end_time": "1.51814205573e+12", "optimal_length": "16", "subject": "A1F42D4L22K5ND"}
{"rt": "26608.0", "trial_number": "0", "skipped": "False", "complete": "True", "assignment": "3VE8AYVF8N5BS2NU6U3TMN50MV38FP", "start_time": "1.51814397884e+12", "human_length": "19", "nodes_expanded": "999", "instance": "prb29027", "end_time": "1.51814400545e+12", "optimal_length": "16", "subject": "A1JN13098RIE78"}
{"rt": "73015.0", "trial_number": "0", "skipped": "False", "complete": "False", "assignment": "3I02618YA1ELHCJ1N003U91TLSLUPX", "start_time": "1.51814403393e+12", "human_length": "30", "nodes_expanded": "999", "instance": "prb29027", "end_time": "1.51814410695e+12", "optimal_length": "16", "subject": "A1SLM4JRDIM430"}
{"rt": "28764.0", "trial_number": "1", "skipped": "False", "complete": "False", "assignment": "3I02618YA1ELHCJ1N003U91TLSLUPX", "start_time": "1.51814410989e+12", "human_length": "11", "nodes_expanded": "999", "instance": "prb29027", "end_time": "1.51814413866e+12", "optimal_length": "16", "subject": "A1SLM4JRDIM430"}
{"rt": "40474.0", "trial_number": "2", "skipped": "False", "complete": "False", "assignment": "3I02618YA1ELHCJ1N003U91TLSLUPX", "start_time": "1.51814414332e+12", "human_length": "20", "nodes_expanded": "999", "instance": "prb29027", "end_time": "1.51814418379e+12", "optimal_length": "16", "subject": "A1SLM4JRDIM430"}
{"rt": "25164.0", "trial_number": "3", "skipped": "False", "complete": "False", "assignment": "3I02618YA1ELHCJ1N003U91TLSLUPX", "start_time": "1.51814418730e+12", "human_length": "17", "nodes_expanded": "999", "instance": "prb29027", "end_time": "1.51814421247e+12", "optimal_length": "16", "subject": "A1SLM4JRDIM430"}
{"rt": "46131.0", "trial_number": "4", "skipped": "False", "complete": "False", "assignment": "3I02618YA1ELHCJ1N003U91TLSLUPX", "start_time": "1.51814421681e+12", "human_length": "9", "nodes_expanded": "999", "instance": "prb29027", "end_time": "1.51814426294e+12", "optimal_length": "16", "subject": "A1SLM4JRDIM430"}
{"rt": "60810.0", "trial_number": "5", "skipped": "False", "complete": "True", "assignment": "3I02618YA1ELHCJ1N003U91TLSLUPX", "start_time": "1.5181442675e+12", "human_length": "18", "nodes_expanded": "999", "instance": "prb29027", "end_time": "1.51814432831e+12", "optimal_length": "16", "subject": "A1SLM4JRDIM430"}
{"rt": "27553.0", "trial_number": "0", "skipped": "True", "complete": "False", "assignment": "3XLBSAQ9Z5KDX59BX15UBFPNNHYZ7Q", "start_time": "1.51814733832e+12", "human_length": "25", "nodes_expanded": "999", "instance": "prb29027", "end_time": "1.51814736587e+12", "optimal_length": "16", "subject": "A1HFNOKU591WCY"}
{"rt": "73213.0", "trial_number": "0", "skipped": "False", "complete": "True", "assignment": "3FUI0JHJPY6UBT1VAI7VUX8S3KH33W", "start_time": "1.51815081137e+12", "human_length": "41", "nodes_expanded": "999", "instance": "prb29027", "end_time": "1.51815088458e+12", "optimal_length": "16", "subject": "A2QIZ31TMHU0GD"}
{"rt": "41247.0", "trial_number": "0", "skipped": "True", "complete": "False", "assignment": "3M0BCWMB8W4W5M7WZVX3HDH1P53WB1", "start_time": "1.51816052125e+12", "human_length": "24", "nodes_expanded": "999", "instance": "prb29027", "end_time": "1.5181605625e+12", "optimal_length": "16", "subject": "A53S7J4JGWG38"}
{"rt": "44049.0", "trial_number": "0", "skipped": "True", "complete": "False", "assignment": "3SITXWYCNWHBUMCM90TPJWV8Y7AXBW", "start_time": "1.51816586963e+12", "human_length": "19", "nodes_expanded": "999", "instance": "prb29027", "end_time": "1.51816591368e+12", "optimal_length": "16", "subject": "A28RX7L0QZ993M"}
{"rt": "58724.0", "trial_number": "0", "skipped": "False", "complete": "True", "assignment": "3IXEICO793RY7TM78ZBKJDOA7ADT6Q", "start_time": "1.5181682218e+12", "human_length": "46", "nodes_expanded": "999", "instance": "prb29027", "end_time": "1.51816828052e+12", "optimal_length": "16", "subject": "ALH1K6ZAQQMN7"}
