{"rt": "65357.0", "trial_number": "0", "skipped": "False", "complete": "True", "assignment": "36AHBNMV1SKT9O0GSS6XX0QHZV3YDN", "start_time": "1.51630533864e+12", "human_length": "16", "nodes_expanded": "999", "instance": "prb24406", "end_time": "1.516305404e+12", "optimal_length": "16", "subject": "A39GADIK8RLMVC"}
{"rt": "65804.0", "trial_number": "0", "skipped": "False", "complete": "True", "assignment": "3ZV9H2YQQEFR2R3JK2IXZUJPXAF3WW", "start_time": "1.51630688952e+12", "human_length": "28", "nodes_expanded": "999", "instance": "prb24406", "end_time": "1.51630695533e+12", "optimal_length": "16", "subject": "A289D98Z4GAZ28"}
{"rt": "127797.0", "trial_number": "0", "skipped": "False", "complete": "True", "assignment": "3ON104KXQL4CKNMNKGNG9ZBVBAB4WI", "start_time": "1.51631268864e+12", "human_length": "86", "nodes_expanded": "999", "instance": "prb24406", "end_time": "1.51631281644e+12", "optimal_length": "16", "subject": "AYPOAY43REHC8"}
{"rt": "68497.0", "trial_number": "0", "skipped": "False", "complete": "True", "assignment": "3PMBY0YE28B43VMUKKJ6EDF85RV9C8", "start_time": "1.51638827865e+12", "human_length": "50", "nodes_expanded": "999", "instance": "prb24406", "end_time": "1.51638834714e+12", "optimal_length": "16", "subject": "A191V7PT3DQKDP"}
{"rt": "78111.0", "trial_number": "0", "skipped": "False", "complete": "True", "assignment": "3TYCR1GOTDRCCQYD1V64UK7OE48LZS", "start_time": "1.51638909973e+12", "human_length": "42", "nodes_expanded": "999", "instance": "prb24406", "end_time": "1.51638917784e+12", "optimal_length": "16", "subject": "A2MYB6MLQW0IGN"}
{"rt": "18280.0", "trial_number": "0", "skipped": "False", "complete": "True", "assignment": "34BBWHLWHBJ6SUL255PK30LEGY5IWG", "start_time": "1.51639264205e+12", "human_length": "28", "nodes_expanded": "999", "instance": "prb24406", "end_time": "1.51639266033e+12", "optimal_length": "16", "subject": "A214HWAW1PYWO8"}
{"rt": "0.0", "trial_number": "0", "skipped": "False", "complete": "False", "assignment": "3VE8AYVF8N5BS2NU6U3TMN50JMNF8V", "start_time": "1.51673789337e+12", "human_length": "1", "nodes_expanded": "999", "instance": "prb24406", "end_time": "1.51673789337e+12", "optimal_length": "16", "subject": "A18QU0YQB6Q8DF"}
{"rt": "0.0", "trial_number": "1", "skipped": "False", "complete": "False", "assignment": "3VE8AYVF8N5BS2NU6U3TMN50JMNF8V", "start_time": "1.51673789337e+12", "human_length": "1", "nodes_expanded": "999", "instance": "prb24406", "end_time": "1.51673789337e+12", "optimal_length": "16", "subject": "A18QU0YQB6Q8DF"}
{"rt": "73427.0", "trial_number": "2", "skipped": "False", "complete": "True", "assignment": "3VE8AYVF8N5BS2NU6U3TMN50JMNF8V", "start_time": "1.51673789337e+12", "human_length": "25", "nodes_expanded": "999", "instance": "prb24406", "end_time": "1.51673796679e+12", "optimal_length": "16", "subject": "A18QU0YQB6Q8DF"}
{"rt": "0.0", "trial_number": "0", "skipped": "False", "complete": "False", "assignment": "3X87C8JFV7JQ2BSCY8KSFD9F2ILSQK", "start_time": "1.51674102387e+12", "human_length": "1", "nodes_expanded": "999", "instance": "prb24406", "end_time": "1.51674102387e+12", "optimal_length": "16", "subject": "A3Q0XAGQ7TD7MP"}
{"rt": "0.0", "trial_number": "1", "skipped": "False", "complete": "False", "assignment": "3X87C8JFV7JQ2BSCY8KSFD9F2ILSQK", "start_time": "1.51674102387e+12", "human_length": "1", "nodes_expanded": "999", "instance": "prb24406", "end_time": "1.51674102387e+12", "optimal_length": "16", "subject": "A3Q0XAGQ7TD7MP"}
{"rt": "28024.0", "trial_number": "2", "skipped": "False", "complete": "True", "assignment": "3X87C8JFV7JQ2BSCY8KSFD9F2ILSQK", "start_time": "1.51674102387e+12", "human_length": "17", "nodes_expanded": "999", "instance": "prb24406", "end_time": "1.51674105189e+12", "optimal_length": "16", "subject": "A3Q0XAGQ7TD7MP"}
{"rt": "44857.0", "trial_number": "3", "skipped": "False", "complete": "True", "assignment": "3GLB5JMZFY3TNXFGYMKRQ0JDXNTDGZ", "start_time": "1.51794628105e+12", "human_length": "21", "nodes_expanded": "999", "instance": "prb24406", "end_time": "1.51794632591e+12", "optimal_length": "16", "subject": "A3Q0XAGQ7TD7MP"}
{"rt": "16975.0", "trial_number": "0", "skipped": "False", "complete": "False", "assignment": "3WSELTNVR4AZUVYAYCSWZIQW0J4ATB", "start_time": "1.51673844529e+12", "human_length": "15", "nodes_expanded": "999", "instance": "prb24406", "end_time": "1.51673846227e+12", "optimal_length": "16", "subject": "A2TQNX64349OZ9"}
{"rt": "16963.0", "trial_number": "1", "skipped": "False", "complete": "False", "assignment": "3WSELTNVR4AZUVYAYCSWZIQW0J4ATB", "start_time": "1.51673846509e+12", "human_length": "13", "nodes_expanded": "999", "instance": "prb24406", "end_time": "1.51673848206e+12", "optimal_length": "16", "subject": "A2TQNX64349OZ9"}
{"rt": "30875.0", "trial_number": "2", "skipped": "False", "complete": "False", "assignment": "3WSELTNVR4AZUVYAYCSWZIQW0J4ATB", "start_time": "1.51673848425e+12", "human_length": "22", "nodes_expanded": "999", "instance": "prb24406", "end_time": "1.51673851513e+12", "optimal_length": "16", "subject": "A2TQNX64349OZ9"}
{"rt": "0.0", "trial_number": "3", "skipped": "False", "complete": "False", "assignment": "3WSELTNVR4AZUVYAYCSWZIQW0J4ATB", "start_time": "1.51673851665e+12", "human_length": "1", "nodes_expanded": "999", "instance": "prb24406", "end_time": "1.51673851665e+12", "optimal_length": "16", "subject": "A2TQNX64349OZ9"}
{"rt": "0.0", "trial_number": "4", "skipped": "False", "complete": "False", "assignment": "3WSELTNVR4AZUVYAYCSWZIQW0J4ATB", "start_time": "1.51673844529e+12", "human_length": "1", "nodes_expanded": "999", "instance": "prb24406", "end_time": "1.51673844529e+12", "optimal_length": "16", "subject": "A2TQNX64349OZ9"}
{"rt": "0.0", "trial_number": "5", "skipped": "False", "complete": "False", "assignment": "3WSELTNVR4AZUVYAYCSWZIQW0J4ATB", "start_time": "1.51673846509e+12", "human_length": "1", "nodes_expanded": "999", "instance": "prb24406", "end_time": "1.51673846509e+12", "optimal_length": "16", "subject": "A2TQNX64349OZ9"}
{"rt": "0.0", "trial_number": "6", "skipped": "False", "complete": "False", "assignment": "3WSELTNVR4AZUVYAYCSWZIQW0J4ATB", "start_time": "1.51673848425e+12", "human_length": "1", "nodes_expanded": "999", "instance": "prb24406", "end_time": "1.51673848425e+12", "optimal_length": "16", "subject": "A2TQNX64349OZ9"}
{"rt": "0.0", "trial_number": "7", "skipped": "False", "complete": "False", "assignment": "3WSELTNVR4AZUVYAYCSWZIQW0J4ATB", "start_time": "1.51673851665e+12", "human_length": "1", "nodes_expanded": "999", "instance": "prb24406", "end_time": "1.51673851665e+12", "optimal_length": "16", "subject": "A2TQNX64349OZ9"}
{"rt": "0.0", "trial_number": "8", "skipped": "False", "complete": "False", "assignment": "3WSELTNVR4AZUVYAYCSWZIQW0J4ATB", "start_time": "1.51673844529e+12", "human_length": "1", "nodes_expanded": "999", "instance": "prb24406", "end_time": "1.51673844529e+12", "optimal_length": "16", "subject": "A2TQNX64349OZ9"}
{"rt": "0.0", "trial_number": "9", "skipped": "False", "complete": "False", "assignment": "3WSELTNVR4AZUVYAYCSWZIQW0J4ATB", "start_time": "1.51673846509e+12", "human_length": "1", "nodes_expanded": "999", "instance": "prb24406", "end_time": "1.51673846509e+12", "optimal_length": "16", "subject": "A2TQNX64349OZ9"}
{"rt": "0.0", "trial_number": "10", "skipped": "False", "complete": "False", "assignment": "3WSELTNVR4AZUVYAYCSWZIQW0J4ATB", "start_time": "1.51673848425e+12", "human_length": "1", "nodes_expanded": "999", "instance": "prb24406", "end_time": "1.51673848425e+12", "optimal_length": "16", "subject": "A2TQNX64349OZ9"}
{"rt": "38234.0", "trial_number": "11", "skipped": "False", "complete": "True", "assignment": "3WSELTNVR4AZUVYAYCSWZIQW0J4ATB", "start_time": "1.51673851665e+12", "human_length": "35", "nodes_expanded": "999", "instance": "prb24406", "end_time": "1.51673855488e+12", "optimal_length": "16", "subject": "A2TQNX64349OZ9"}
{"rt": "0.0", "trial_number": "0", "skipped": "False", "complete": "False", "assignment": "3IJXV6UZ1YR1KY4G6BFEG1DXP7SRI1", "start_time": "1.5167394227e+12", "human_length": "1", "nodes_expanded": "999", "instance": "prb24406", "end_time": "1.5167394227e+12", "optimal_length": "16", "subject": "AEXF5EUX32U0M"}
{"rt": "0.0", "trial_number": "1", "skipped": "False", "complete": "False", "assignment": "3IJXV6UZ1YR1KY4G6BFEG1DXP7SRI1", "start_time": "1.5167394227e+12", "human_length": "1", "nodes_expanded": "999", "instance": "prb24406", "end_time": "1.5167394227e+12", "optimal_length": "16", "subject": "AEXF5EUX32U0M"}
{"rt": "69620.0", "trial_number": "2", "skipped": "False", "complete": "True", "assignment": "3IJXV6UZ1YR1KY4G6BFEG1DXP7SRI1", "start_time": "1.5167394227e+12", "human_length": "39", "nodes_expanded": "999", "instance": "prb24406", "end_time": "1.51673949232e+12", "optimal_length": "16", "subject": "AEXF5EUX32U0M"}
{"rt": "0.0", "trial_number": "0", "skipped": "False", "complete": "False", "assignment": "3X87C8JFV7JQ2BSCY8KSFD9F2ILSQK", "start_time": "1.51674505212e+12", "human_length": "1", "nodes_expanded": "999", "instance": "prb24406", "end_time": "1.51674505212e+12", "optimal_length": "16", "subject": "A21S7MA9DCW95E"}
{"rt": "0.0", "trial_number": "1", "skipped": "False", "complete": "False", "assignment": "3X87C8JFV7JQ2BSCY8KSFD9F2ILSQK", "start_time": "1.51674505212e+12", "human_length": "1", "nodes_expanded": "999", "instance": "prb24406", "end_time": "1.51674505212e+12", "optimal_length": "16", "subject": "A21S7MA9DCW95E"}
{"rt": "33629.0", "trial_number": "2", "skipped": "False", "complete": "True", "assignment": "3X87C8JFV7JQ2BSCY8KSFD9F2ILSQK", "start_time": "1.51674505212e+12", "human_length": "24", "nodes_expanded": "999", "instance": "prb24406", "end_time": "1.51674508575e+12", "optimal_length": "16", "subject": "A21S7MA9DCW95E"}
{"rt": "0.0", "trial_number": "0", "skipped": "False", "complete": "False", "assignment": "3IJXV6UZ1YR1KY4G6BFEG1DXP7SRI1", "start_time": "1.51674920413e+12", "human_length": "1", "nodes_expanded": "999", "instance": "prb24406", "end_time": "1.51674920413e+12", "optimal_length": "16", "subject": "A2RTJ6BDY0DZVZ"}
{"rt": "0.0", "trial_number": "1", "skipped": "False", "complete": "False", "assignment": "3IJXV6UZ1YR1KY4G6BFEG1DXP7SRI1", "start_time": "1.51674920413e+12", "human_length": "1", "nodes_expanded": "999", "instance": "prb24406", "end_time": "1.51674920413e+12", "optimal_length": "16", "subject": "A2RTJ6BDY0DZVZ"}
{"rt": "64300.0", "trial_number": "2", "skipped": "False", "complete": "True", "assignment": "3IJXV6UZ1YR1KY4G6BFEG1DXP7SRI1", "start_time": "1.51674920413e+12", "human_length": "32", "nodes_expanded": "999", "instance": "prb24406", "end_time": "1.51674926843e+12", "optimal_length": "16", "subject": "A2RTJ6BDY0DZVZ"}
{"rt": "0.0", "trial_number": "0", "skipped": "False", "complete": "False", "assignment": "3CFVK00FWMTAOGE2ZQ9TXMETAPZ6LP", "start_time": "1.51675242456e+12", "human_length": "1", "nodes_expanded": "999", "instance": "prb24406", "end_time": "1.51675242456e+12", "optimal_length": "16", "subject": "A26RO8GGTQAXGG"}
{"rt": "0.0", "trial_number": "1", "skipped": "False", "complete": "False", "assignment": "3CFVK00FWMTAOGE2ZQ9TXMETAPZ6LP", "start_time": "1.51675242456e+12", "human_length": "1", "nodes_expanded": "999", "instance": "prb24406", "end_time": "1.51675242456e+12", "optimal_length": "16", "subject": "A26RO8GGTQAXGG"}
{"rt": "0.0", "trial_number": "2", "skipped": "True", "complete": "False", "assignment": "3CFVK00FWMTAOGE2ZQ9TXMETAPZ6LP", "start_time": "1.51675242456e+12", "human_length": "1", "nodes_expanded": "999", "instance": "prb24406", "end_time": "1.51675242456e+12", "optimal_length": "16", "subject": "A26RO8GGTQAXGG"}
{"rt": "0.0", "trial_number": "0", "skipped": "False", "complete": "False", "assignment": "3IHR8NYAM89M0EPM8U9LH53ZJDTP4U", "start_time": "1.51682674961e+12", "human_length": "1", "nodes_expanded": "999", "instance": "prb24406", "end_time": "1.51682674961e+12", "optimal_length": "16", "subject": "A23437BMZ5T1FH"}
{"rt": "28741.0", "trial_number": "1", "skipped": "True", "complete": "False", "assignment": "3IHR8NYAM89M0EPM8U9LH53ZJDTP4U", "start_time": "1.51682674961e+12", "human_length": "41", "nodes_expanded": "999", "instance": "prb24406", "end_time": "1.51682677835e+12", "optimal_length": "16", "subject": "A23437BMZ5T1FH"}
{"rt": "0.0", "trial_number": "0", "skipped": "False", "complete": "False", "assignment": "3YW4XOSQKRTI0K0Z2YPDTDJVFABU1I", "start_time": "1.51683176903e+12", "human_length": "1", "nodes_expanded": "999", "instance": "prb24406", "end_time": "1.51683176903e+12", "optimal_length": "16", "subject": "A1LR0VQIHQUJAM"}
{"rt": "69814.0", "trial_number": "1", "skipped": "False", "complete": "True", "assignment": "3YW4XOSQKRTI0K0Z2YPDTDJVFABU1I", "start_time": "1.51683176903e+12", "human_length": "71", "nodes_expanded": "999", "instance": "prb24406", "end_time": "1.51683183884e+12", "optimal_length": "16", "subject": "A1LR0VQIHQUJAM"}
{"rt": "73427.0", "trial_number": "0", "skipped": "False", "complete": "True", "assignment": "3VE8AYVF8N5BS2NU6U3TMN50JMNF8V", "start_time": "1.51673789337e+12", "human_length": "25", "nodes_expanded": "999", "instance": "prb24406", "end_time": "1.51673796679e+12", "optimal_length": "16", "subject": "A18QU0YQB6Q8DF"}
{"rt": "28024.0", "trial_number": "0", "skipped": "False", "complete": "True", "assignment": "3X87C8JFV7JQ2BSCY8KSFD9F2ILSQK", "start_time": "1.51674102387e+12", "human_length": "17", "nodes_expanded": "999", "instance": "prb24406", "end_time": "1.51674105189e+12", "optimal_length": "16", "subject": "A3Q0XAGQ7TD7MP"}
{"rt": "44857.0", "trial_number": "1", "skipped": "False", "complete": "True", "assignment": "3GLB5JMZFY3TNXFGYMKRQ0JDXNTDGZ", "start_time": "1.51794628105e+12", "human_length": "21", "nodes_expanded": "999", "instance": "prb24406", "end_time": "1.51794632591e+12", "optimal_length": "16", "subject": "A3Q0XAGQ7TD7MP"}
{"rt": "16975.0", "trial_number": "0", "skipped": "False", "complete": "False", "assignment": "3WSELTNVR4AZUVYAYCSWZIQW0J4ATB", "start_time": "1.51673844529e+12", "human_length": "15", "nodes_expanded": "999", "instance": "prb24406", "end_time": "1.51673846227e+12", "optimal_length": "16", "subject": "A2TQNX64349OZ9"}
{"rt": "16963.0", "trial_number": "1", "skipped": "False", "complete": "False", "assignment": "3WSELTNVR4AZUVYAYCSWZIQW0J4ATB", "start_time": "1.51673846509e+12", "human_length": "13", "nodes_expanded": "999", "instance": "prb24406", "end_time": "1.51673848206e+12", "optimal_length": "16", "subject": "A2TQNX64349OZ9"}
{"rt": "30875.0", "trial_number": "2", "skipped": "False", "complete": "False", "assignment": "3WSELTNVR4AZUVYAYCSWZIQW0J4ATB", "start_time": "1.51673848425e+12", "human_length": "22", "nodes_expanded": "999", "instance": "prb24406", "end_time": "1.51673851513e+12", "optimal_length": "16", "subject": "A2TQNX64349OZ9"}
{"rt": "38234.0", "trial_number": "3", "skipped": "False", "complete": "True", "assignment": "3WSELTNVR4AZUVYAYCSWZIQW0J4ATB", "start_time": "1.51673851665e+12", "human_length": "35", "nodes_expanded": "999", "instance": "prb24406", "end_time": "1.51673855488e+12", "optimal_length": "16", "subject": "A2TQNX64349OZ9"}
{"rt": "69620.0", "trial_number": "0", "skipped": "False", "complete": "True", "assignment": "3IJXV6UZ1YR1KY4G6BFEG1DXP7SRI1", "start_time": "1.5167394227e+12", "human_length": "39", "nodes_expanded": "999", "instance": "prb24406", "end_time": "1.51673949232e+12", "optimal_length": "16", "subject": "AEXF5EUX32U0M"}
{"rt": "33629.0", "trial_number": "0", "skipped": "False", "complete": "True", "assignment": "3X87C8JFV7JQ2BSCY8KSFD9F2ILSQK", "start_time": "1.51674505212e+12", "human_length": "24", "nodes_expanded": "999", "instance": "prb24406", "end_time": "1.51674508575e+12", "optimal_length": "16", "subject": "A21S7MA9DCW95E"}
{"rt": "64300.0", "trial_number": "0", "skipped": "False", "complete": "True", "assignment": "3IJXV6UZ1YR1KY4G6BFEG1DXP7SRI1", "start_time": "1.51674920413e+12", "human_length": "32", "nodes_expanded": "999", "instance": "prb24406", "end_time": "1.51674926843e+12", "optimal_length": "16", "subject": "A2RTJ6BDY0DZVZ"}
{"rt": "0.0", "trial_number": "0", "skipped": "True", "complete": "False", "assignment": "3CFVK00FWMTAOGE2ZQ9TXMETAPZ6LP", "start_time": "1.51675242456e+12", "human_length": "1", "nodes_expanded": "999", "instance": "prb24406", "end_time": "1.51675242456e+12", "optimal_length": "16", "subject": "A26RO8GGTQAXGG"}
{"rt": "33627.0", "trial_number": "0", "skipped": "False", "complete": "True", "assignment": "3TS1AR6UQRM7SOIBWPBN8N9589Y7FV", "start_time": "1.51683773251e+12", "human_length": "30", "nodes_expanded": "999", "instance": "prb24406", "end_time": "1.51683776614e+12", "optimal_length": "16", "subject": "A1F4N58CAX8IMK"}
{"rt": "48859.0", "trial_number": "1", "skipped": "False", "complete": "True", "assignment": "35DR22AR5ES6RR89U7EJ1DXW91AX3P", "start_time": "1.51795228549e+12", "human_length": "46", "nodes_expanded": "999", "instance": "prb24406", "end_time": "1.51795233435e+12", "optimal_length": "16", "subject": "A1F4N58CAX8IMK"}
{"rt": "36539.0", "trial_number": "0", "skipped": "False", "complete": "True", "assignment": "3TS1AR6UQRM7SOIBWPBN8N9589Y7FV", "start_time": "1.51684329902e+12", "human_length": "35", "nodes_expanded": "999", "instance": "prb24406", "end_time": "1.51684333556e+12", "optimal_length": "16", "subject": "A15FXHC1CVNW31"}
{"rt": "75173.0", "trial_number": "0", "skipped": "False", "complete": "True", "assignment": "31LM9EDVOM0C0BWUVMJXJINN3QPJNI", "start_time": "1.51752227693e+12", "human_length": "41", "nodes_expanded": "999", "instance": "prb24406", "end_time": "1.51752235211e+12", "optimal_length": "16", "subject": "A1NT8BT94ME6F5"}
{"rt": "133419.0", "trial_number": "0", "skipped": "False", "complete": "False", "assignment": "36H9ULYP6320CJJDXY0KBDEE1Z3JFB", "start_time": "1.51753173034e+12", "human_length": "48", "nodes_expanded": "999", "instance": "prb24406", "end_time": "1.51753186376e+12", "optimal_length": "16", "subject": "AN098C29EGJ6"}
{"rt": "104539.0", "trial_number": "1", "skipped": "False", "complete": "True", "assignment": "36H9ULYP6320CJJDXY0KBDEE1Z3JFB", "start_time": "1.51753186746e+12", "human_length": "22", "nodes_expanded": "999", "instance": "prb24406", "end_time": "1.51753197199e+12", "optimal_length": "16", "subject": "AN098C29EGJ6"}
{"rt": "60105.0", "trial_number": "0", "skipped": "False", "complete": "True", "assignment": "3TYCR1GOTDRCCQYD1V64UK7OHTBZLQ", "start_time": "1.51753606452e+12", "human_length": "47", "nodes_expanded": "999", "instance": "prb24406", "end_time": "1.51753612463e+12", "optimal_length": "16", "subject": "A13BZCNJ0WR1T7"}
{"rt": "109825.0", "trial_number": "0", "skipped": "False", "complete": "True", "assignment": "3H0W84IWBLAP4T2UASPNVMF5ZH7ER9", "start_time": "1.51755206614e+12", "human_length": "79", "nodes_expanded": "999", "instance": "prb24406", "end_time": "1.51755217596e+12", "optimal_length": "16", "subject": "A1AKX1C8GCVCTP"}
{"rt": "28670.0", "trial_number": "0", "skipped": "False", "complete": "True", "assignment": "3TPWUS5F8A9FFRZ2DVTYSXNJ6BWWC6", "start_time": "1.51794076554e+12", "human_length": "21", "nodes_expanded": "999", "instance": "prb24406", "end_time": "1.51794079421e+12", "optimal_length": "16", "subject": "A3GXC3VG37CQ3G"}
{"rt": "63393.0", "trial_number": "0", "skipped": "False", "complete": "False", "assignment": "34HJIJKLP64Z5YMIU6IKNXSH7PDV4I", "start_time": "1.51794232482e+12", "human_length": "35", "nodes_expanded": "999", "instance": "prb24406", "end_time": "1.51794238821e+12", "optimal_length": "16", "subject": "A3CTXNQ2GXIQSP"}
{"rt": "41793.0", "trial_number": "1", "skipped": "False", "complete": "True", "assignment": "34HJIJKLP64Z5YMIU6IKNXSH7PDV4I", "start_time": "1.51794239154e+12", "human_length": "26", "nodes_expanded": "999", "instance": "prb24406", "end_time": "1.51794243334e+12", "optimal_length": "16", "subject": "A3CTXNQ2GXIQSP"}
{"rt": "54588.0", "trial_number": "0", "skipped": "False", "complete": "True", "assignment": "30IQTZXKALEAAZ9CBKW0ZFZP6O5X07", "start_time": "1.51794673658e+12", "human_length": "31", "nodes_expanded": "999", "instance": "prb24406", "end_time": "1.51794679117e+12", "optimal_length": "16", "subject": "A23XJ8I86R0O3B"}
{"rt": "12247.0", "trial_number": "0", "skipped": "False", "complete": "False", "assignment": "3STRJBFXOXZ5687WA35LTWTS7QZKTT", "start_time": "1.517944455e+12", "human_length": "7", "nodes_expanded": "999", "instance": "prb24406", "end_time": "1.51794446725e+12", "optimal_length": "16", "subject": "A3OB6REG5CGHK1"}
{"rt": "23756.0", "trial_number": "1", "skipped": "False", "complete": "False", "assignment": "3STRJBFXOXZ5687WA35LTWTS7QZKTT", "start_time": "1.51794447032e+12", "human_length": "16", "nodes_expanded": "999", "instance": "prb24406", "end_time": "1.51794449407e+12", "optimal_length": "16", "subject": "A3OB6REG5CGHK1"}
{"rt": "25860.0", "trial_number": "2", "skipped": "False", "complete": "False", "assignment": "3STRJBFXOXZ5687WA35LTWTS7QZKTT", "start_time": "1.5179444965e+12", "human_length": "10", "nodes_expanded": "999", "instance": "prb24406", "end_time": "1.51794452236e+12", "optimal_length": "16", "subject": "A3OB6REG5CGHK1"}
{"rt": "8572.0", "trial_number": "3", "skipped": "False", "complete": "False", "assignment": "3STRJBFXOXZ5687WA35LTWTS7QZKTT", "start_time": "1.51794452413e+12", "human_length": "5", "nodes_expanded": "999", "instance": "prb24406", "end_time": "1.5179445327e+12", "optimal_length": "16", "subject": "A3OB6REG5CGHK1"}
{"rt": "23880.0", "trial_number": "4", "skipped": "False", "complete": "False", "assignment": "3STRJBFXOXZ5687WA35LTWTS7QZKTT", "start_time": "1.51794453473e+12", "human_length": "13", "nodes_expanded": "999", "instance": "prb24406", "end_time": "1.51794455861e+12", "optimal_length": "16", "subject": "A3OB6REG5CGHK1"}
{"rt": "27601.0", "trial_number": "5", "skipped": "False", "complete": "True", "assignment": "3STRJBFXOXZ5687WA35LTWTS7QZKTT", "start_time": "1.51794456078e+12", "human_length": "17", "nodes_expanded": "999", "instance": "prb24406", "end_time": "1.51794458838e+12", "optimal_length": "16", "subject": "A3OB6REG5CGHK1"}
{"rt": "48162.0", "trial_number": "0", "skipped": "False", "complete": "True", "assignment": "33PPO7FECWN7JOLBOAKUBCWTC0AIDL", "start_time": "1.5179499369e+12", "human_length": "22", "nodes_expanded": "999", "instance": "prb24406", "end_time": "1.51794998506e+12", "optimal_length": "16", "subject": "AXKM02NVXNGOM"}
{"rt": "10807.0", "trial_number": "0", "skipped": "False", "complete": "False", "assignment": "3HYA4D452SR06NL5QDUSCWSXZI12FF", "start_time": "1.51795050234e+12", "human_length": "5", "nodes_expanded": "999", "instance": "prb24406", "end_time": "1.51795051315e+12", "optimal_length": "16", "subject": "A2OFWHV8IP7HK"}
{"rt": "12370.0", "trial_number": "1", "skipped": "False", "complete": "False", "assignment": "3HYA4D452SR06NL5QDUSCWSXZI12FF", "start_time": "1.51795051685e+12", "human_length": "8", "nodes_expanded": "999", "instance": "prb24406", "end_time": "1.51795052922e+12", "optimal_length": "16", "subject": "A2OFWHV8IP7HK"}
{"rt": "28759.0", "trial_number": "2", "skipped": "False", "complete": "False", "assignment": "3HYA4D452SR06NL5QDUSCWSXZI12FF", "start_time": "1.51795053807e+12", "human_length": "10", "nodes_expanded": "999", "instance": "prb24406", "end_time": "1.51795056683e+12", "optimal_length": "16", "subject": "A2OFWHV8IP7HK"}
{"rt": "35294.0", "trial_number": "3", "skipped": "False", "complete": "False", "assignment": "3HYA4D452SR06NL5QDUSCWSXZI12FF", "start_time": "1.51795058421e+12", "human_length": "11", "nodes_expanded": "999", "instance": "prb24406", "end_time": "1.5179506195e+12", "optimal_length": "16", "subject": "A2OFWHV8IP7HK"}
{"rt": "59468.0", "trial_number": "4", "skipped": "False", "complete": "True", "assignment": "3HYA4D452SR06NL5QDUSCWSXZI12FF", "start_time": "1.51795062106e+12", "human_length": "27", "nodes_expanded": "999", "instance": "prb24406", "end_time": "1.51795068053e+12", "optimal_length": "16", "subject": "A2OFWHV8IP7HK"}
{"rt": "28428.0", "trial_number": "0", "skipped": "False", "complete": "True", "assignment": "3PB5A5BD0WED6OE679H5Q89HBDGG71", "start_time": "1.51795316076e+12", "human_length": "23", "nodes_expanded": "999", "instance": "prb24406", "end_time": "1.51795318919e+12", "optimal_length": "16", "subject": "A1USR9JCAMDGM3"}
{"rt": "73833.0", "trial_number": "0", "skipped": "False", "complete": "True", "assignment": "3R5F3LQFV3SKIB1AENMWM1BICT5OZB", "start_time": "1.51795776637e+12", "human_length": "61", "nodes_expanded": "999", "instance": "prb24406", "end_time": "1.5179578402e+12", "optimal_length": "16", "subject": "A1N1EF0MIRSEZZ"}
{"rt": "25288.0", "trial_number": "0", "skipped": "False", "complete": "True", "assignment": "33F859I567LE8WC74WB3GA7E94XBHW", "start_time": "1.51796881587e+12", "human_length": "21", "nodes_expanded": "999", "instance": "prb24406", "end_time": "1.51796884116e+12", "optimal_length": "16", "subject": "A1GQS6USF2JEYG"}
{"rt": "28227.0", "trial_number": "0", "skipped": "False", "complete": "True", "assignment": "3FTF2T8WLSQDHTSZ1BJ7Q7MB14SW9H", "start_time": "1.51813595276e+12", "human_length": "24", "nodes_expanded": "999", "instance": "prb24406", "end_time": "1.51813598099e+12", "optimal_length": "16", "subject": "A1IUH9D7N69VS"}
{"rt": "79319.0", "trial_number": "0", "skipped": "True", "complete": "False", "assignment": "3XC1O3LBOTUGQEPEV3HM8W67X4RTLL", "start_time": "1.51813855371e+12", "human_length": "35", "nodes_expanded": "999", "instance": "prb24406", "end_time": "1.51813863303e+12", "optimal_length": "16", "subject": "A1ZTSCPETU3UJW"}
{"rt": "37143.0", "trial_number": "0", "skipped": "True", "complete": "False", "assignment": "3TAYZSBPLMG9ASQRWXURJVBCPLN2SH", "start_time": "1.51813680773e+12", "human_length": "24", "nodes_expanded": "999", "instance": "prb24406", "end_time": "1.51813684487e+12", "optimal_length": "16", "subject": "A2RCYLKY072XXO"}
{"rt": "56709.0", "trial_number": "0", "skipped": "False", "complete": "True", "assignment": "3E1QT0TDFQHV2TPK729EPKIS2ND8IY", "start_time": "1.51813850113e+12", "human_length": "30", "nodes_expanded": "999", "instance": "prb24406", "end_time": "1.51813855784e+12", "optimal_length": "16", "subject": "A1MTRZDRKNB9GV"}
{"rt": "37284.0", "trial_number": "0", "skipped": "True", "complete": "False", "assignment": "3EO896NRAX3AVO1ESI59SHTFTF3JTQ", "start_time": "1.51814233529e+12", "human_length": "12", "nodes_expanded": "999", "instance": "prb24406", "end_time": "1.51814237257e+12", "optimal_length": "16", "subject": "A2KBZ75HMJ7KVX"}
{"rt": "38533.0", "trial_number": "0", "skipped": "False", "complete": "True", "assignment": "3ZSANO2JCGFTBM23KS9Y3E51YP4FSQ", "start_time": "1.5181437223e+12", "human_length": "22", "nodes_expanded": "999", "instance": "prb24406", "end_time": "1.51814376083e+12", "optimal_length": "16", "subject": "A1F42D4L22K5ND"}
{"rt": "35712.0", "trial_number": "0", "skipped": "False", "complete": "True", "assignment": "3XLBSAQ9Z5KDX59BX15UBFPNNHYZ7Q", "start_time": "1.51814546876e+12", "human_length": "26", "nodes_expanded": "999", "instance": "prb24406", "end_time": "1.51814550447e+12", "optimal_length": "16", "subject": "A1HFNOKU591WCY"}
{"rt": "40422.0", "trial_number": "0", "skipped": "False", "complete": "True", "assignment": "3FUI0JHJPY6UBT1VAI7VUX8S3KH33W", "start_time": "1.51815222175e+12", "human_length": "30", "nodes_expanded": "999", "instance": "prb24406", "end_time": "1.51815226218e+12", "optimal_length": "16", "subject": "A2QIZ31TMHU0GD"}
{"rt": "32038.0", "trial_number": "0", "skipped": "False", "complete": "False", "assignment": "37QW5D2ZRHUKW7SGCE3STMOFBMK8SX", "start_time": "1.51815646078e+12", "human_length": "16", "nodes_expanded": "999", "instance": "prb24406", "end_time": "1.51815649282e+12", "optimal_length": "16", "subject": "AMW2XLD9443OH"}
{"rt": "31739.0", "trial_number": "1", "skipped": "False", "complete": "True", "assignment": "37QW5D2ZRHUKW7SGCE3STMOFBMK8SX", "start_time": "1.51815649382e+12", "human_length": "18", "nodes_expanded": "999", "instance": "prb24406", "end_time": "1.51815652556e+12", "optimal_length": "16", "subject": "AMW2XLD9443OH"}
{"rt": "50053.0", "trial_number": "0", "skipped": "False", "complete": "False", "assignment": "3M0BCWMB8W4W5M7WZVX3HDH1P53WB1", "start_time": "1.51815769808e+12", "human_length": "24", "nodes_expanded": "999", "instance": "prb24406", "end_time": "1.51815774813e+12", "optimal_length": "16", "subject": "A53S7J4JGWG38"}
{"rt": "54608.0", "trial_number": "1", "skipped": "False", "complete": "True", "assignment": "3M0BCWMB8W4W5M7WZVX3HDH1P53WB1", "start_time": "1.51815775337e+12", "human_length": "23", "nodes_expanded": "999", "instance": "prb24406", "end_time": "1.51815780798e+12", "optimal_length": "16", "subject": "A53S7J4JGWG38"}
{"rt": "167563.0", "trial_number": "0", "skipped": "True", "complete": "False", "assignment": "3SITXWYCNWHBUMCM90TPJWV8Y7AXBW", "start_time": "1.5181647854e+12", "human_length": "61", "nodes_expanded": "999", "instance": "prb24406", "end_time": "1.51816495296e+12", "optimal_length": "16", "subject": "A28RX7L0QZ993M"}
{"rt": "28651.0", "trial_number": "0", "skipped": "False", "complete": "True", "assignment": "3IXEICO793RY7TM78ZBKJDOA7ADT6Q", "start_time": "1.51816854712e+12", "human_length": "25", "nodes_expanded": "999", "instance": "prb24406", "end_time": "1.51816857577e+12", "optimal_length": "16", "subject": "ALH1K6ZAQQMN7"}
