{"rt": "42731.0", "trial_number": "0", "skipped": "False", "complete": "True", "assignment": "3TYCR1GOTDRCCQYD1V64UK7OHTBZLQ", "start_time": "1.51753750524e+12", "human_length": "33", "nodes_expanded": "999", "instance": "prb29585", "end_time": "1.51753754797e+12", "optimal_length": "14", "subject": "A13BZCNJ0WR1T7"}
{"rt": "220243.0", "trial_number": "0", "skipped": "False", "complete": "True", "assignment": "3TS1AR6UQRM7SOIBWPBN8N9589Y7FV", "start_time": "1.51684434614e+12", "human_length": "159", "nodes_expanded": "999", "instance": "prb29585", "end_time": "1.51684456638e+12", "optimal_length": "14", "subject": "A15FXHC1CVNW31"}
{"rt": "0.0", "trial_number": "0", "skipped": "False", "complete": "False", "assignment": "3VE8AYVF8N5BS2NU6U3TMN50JMNF8V", "start_time": "1.51673719171e+12", "human_length": "1", "nodes_expanded": "999", "instance": "prb29585", "end_time": "1.51673719171e+12", "optimal_length": "14", "subject": "A18QU0YQB6Q8DF"}
{"rt": "0.0", "trial_number": "1", "skipped": "False", "complete": "False", "assignment": "3VE8AYVF8N5BS2NU6U3TMN50JMNF8V", "start_time": "1.51673719171e+12", "human_length": "1", "nodes_expanded": "999", "instance": "prb29585", "end_time": "1.51673719171e+12", "optimal_length": "14", "subject": "A18QU0YQB6Q8DF"}
{"rt": "57412.0", "trial_number": "2", "skipped": "False", "complete": "True", "assignment": "3VE8AYVF8N5BS2NU6U3TMN50JMNF8V", "start_time": "1.51673719171e+12", "human_length": "31", "nodes_expanded": "999", "instance": "prb29585", "end_time": "1.51673724912e+12", "optimal_length": "14", "subject": "A18QU0YQB6Q8DF"}
{"rt": "57412.0", "trial_number": "0", "skipped": "False", "complete": "True", "assignment": "3VE8AYVF8N5BS2NU6U3TMN50JMNF8V", "start_time": "1.51673719171e+12", "human_length": "31", "nodes_expanded": "999", "instance": "prb29585", "end_time": "1.51673724912e+12", "optimal_length": "14", "subject": "A18QU0YQB6Q8DF"}
{"rt": "140664.0", "trial_number": "0", "skipped": "False", "complete": "True", "assignment": "3IJXV6UZ1YR1KY4G6BFEG1DXR47RIC", "start_time": "1.51797237403e+12", "human_length": "123", "nodes_expanded": "999", "instance": "prb29585", "end_time": "1.5179725147e+12", "optimal_length": "14", "subject": "A18T3WK7J16C1B"}
{"rt": "18590.0", "trial_number": "0", "skipped": "False", "complete": "True", "assignment": "3PMBY0YE28B43VMUKKJ6EDF85RV9C8", "start_time": "1.51638688634e+12", "human_length": "19", "nodes_expanded": "999", "instance": "prb29585", "end_time": "1.51638690493e+12", "optimal_length": "14", "subject": "A191V7PT3DQKDP"}
{"rt": "54833.0", "trial_number": "0", "skipped": "False", "complete": "True", "assignment": "3ZSANO2JCGFTBM23KS9Y3E51YP4FSQ", "start_time": "1.51814276126e+12", "human_length": "56", "nodes_expanded": "999", "instance": "prb29585", "end_time": "1.51814281609e+12", "optimal_length": "14", "subject": "A1F42D4L22K5ND"}
{"rt": "33342.0", "trial_number": "0", "skipped": "False", "complete": "True", "assignment": "3TS1AR6UQRM7SOIBWPBN8N9589Y7FV", "start_time": "1.51683901911e+12", "human_length": "31", "nodes_expanded": "999", "instance": "prb29585", "end_time": "1.51683905245e+12", "optimal_length": "14", "subject": "A1F4N58CAX8IMK"}
{"rt": "43002.0", "trial_number": "1", "skipped": "False", "complete": "True", "assignment": "35DR22AR5ES6RR89U7EJ1DXW91AX3P", "start_time": "1.51795331032e+12", "human_length": "42", "nodes_expanded": "999", "instance": "prb29585", "end_time": "1.51795335332e+12", "optimal_length": "14", "subject": "A1F4N58CAX8IMK"}
{"rt": "88605.0", "trial_number": "0", "skipped": "False", "complete": "True", "assignment": "33F859I567LE8WC74WB3GA7E94XBHW", "start_time": "1.51797024887e+12", "human_length": "65", "nodes_expanded": "999", "instance": "prb29585", "end_time": "1.51797033747e+12", "optimal_length": "14", "subject": "A1GQS6USF2JEYG"}
{"rt": "64940.0", "trial_number": "0", "skipped": "True", "complete": "False", "assignment": "3XLBSAQ9Z5KDX59BX15UBFPNNHYZ7Q", "start_time": "1.51814603896e+12", "human_length": "57", "nodes_expanded": "999", "instance": "prb29585", "end_time": "1.5181461039e+12", "optimal_length": "14", "subject": "A1HFNOKU591WCY"}
{"rt": "99924.0", "trial_number": "0", "skipped": "False", "complete": "True", "assignment": "3FTF2T8WLSQDHTSZ1BJ7Q7MB14SW9H", "start_time": "1.51813582411e+12", "human_length": "58", "nodes_expanded": "999", "instance": "prb29585", "end_time": "1.51813592404e+12", "optimal_length": "14", "subject": "A1IUH9D7N69VS"}
{"rt": "147084.0", "trial_number": "0", "skipped": "True", "complete": "False", "assignment": "3VE8AYVF8N5BS2NU6U3TMN50MV38FP", "start_time": "1.51814324177e+12", "human_length": "60", "nodes_expanded": "999", "instance": "prb29585", "end_time": "1.51814338885e+12", "optimal_length": "14", "subject": "A1JN13098RIE78"}
{"rt": "0.0", "trial_number": "0", "skipped": "False", "complete": "False", "assignment": "3YW4XOSQKRTI0K0Z2YPDTDJVFABU1I", "start_time": "1.51683052461e+12", "human_length": "1", "nodes_expanded": "999", "instance": "prb29585", "end_time": "1.51683052461e+12", "optimal_length": "14", "subject": "A1LR0VQIHQUJAM"}
{"rt": "84893.0", "trial_number": "1", "skipped": "True", "complete": "False", "assignment": "3YW4XOSQKRTI0K0Z2YPDTDJVFABU1I", "start_time": "1.51683052461e+12", "human_length": "101", "nodes_expanded": "999", "instance": "prb29585", "end_time": "1.5168306095e+12", "optimal_length": "14", "subject": "A1LR0VQIHQUJAM"}
{"rt": "53359.0", "trial_number": "0", "skipped": "False", "complete": "True", "assignment": "3R5F3LQFV3SKIB1AENMWM1BICT5OZB", "start_time": "1.51795893638e+12", "human_length": "44", "nodes_expanded": "999", "instance": "prb29585", "end_time": "1.51795898974e+12", "optimal_length": "14", "subject": "A1N1EF0MIRSEZZ"}
{"rt": "74703.0", "trial_number": "0", "skipped": "True", "complete": "False", "assignment": "31LM9EDVOM0C0BWUVMJXJINN3QPJNI", "start_time": "1.51752249546e+12", "human_length": "46", "nodes_expanded": "999", "instance": "prb29585", "end_time": "1.51752257016e+12", "optimal_length": "14", "subject": "A1NT8BT94ME6F5"}
{"rt": "0.0", "trial_number": "0", "skipped": "False", "complete": "False", "assignment": "3RUIQRXJBCWS71H9MUFVM5WQ3SCLLJ", "start_time": "1.51815832687e+12", "human_length": "1", "nodes_expanded": "999", "instance": "prb29585", "end_time": "1.51815832687e+12", "optimal_length": "14", "subject": "A1SJRFJWFXSDH4"}
{"rt": "25961.0", "trial_number": "1", "skipped": "False", "complete": "True", "assignment": "3RUIQRXJBCWS71H9MUFVM5WQ3SCLLJ", "start_time": "1.51815832967e+12", "human_length": "17", "nodes_expanded": "999", "instance": "prb29585", "end_time": "1.51815835563e+12", "optimal_length": "14", "subject": "A1SJRFJWFXSDH4"}
{"rt": "53201.0", "trial_number": "0", "skipped": "False", "complete": "True", "assignment": "3PB5A5BD0WED6OE679H5Q89HBDGG71", "start_time": "1.51795066901e+12", "human_length": "38", "nodes_expanded": "999", "instance": "prb29585", "end_time": "1.51795072221e+12", "optimal_length": "14", "subject": "A1USR9JCAMDGM3"}
{"rt": "179133.0", "trial_number": "0", "skipped": "False", "complete": "True", "assignment": "3M0BCWMB8W4W5M7WZVX3HDH1M3FBWL", "start_time": "1.51684113419e+12", "human_length": "103", "nodes_expanded": "999", "instance": "prb29585", "end_time": "1.51684131332e+12", "optimal_length": "14", "subject": "A1XDMS0KFSF5JW"}
{"rt": "22192.0", "trial_number": "0", "skipped": "False", "complete": "True", "assignment": "3XC1O3LBOTUGQEPEV3HM8W67X4RTLL", "start_time": "1.51813808466e+12", "human_length": "16", "nodes_expanded": "999", "instance": "prb29585", "end_time": "1.51813810686e+12", "optimal_length": "14", "subject": "A1ZTSCPETU3UJW"}
{"rt": "13606.0", "trial_number": "0", "skipped": "False", "complete": "True", "assignment": "34BBWHLWHBJ6SUL255PK30LEGY5IWG", "start_time": "1.51639170168e+12", "human_length": "18", "nodes_expanded": "999", "instance": "prb29585", "end_time": "1.51639171528e+12", "optimal_length": "14", "subject": "A214HWAW1PYWO8"}
{"rt": "36569.0", "trial_number": "0", "skipped": "False", "complete": "False", "assignment": "3X87C8JFV7JQ2BSCY8KSFD9F2ILSQK", "start_time": "1.51674421639e+12", "human_length": "12", "nodes_expanded": "999", "instance": "prb29585", "end_time": "1.51674425296e+12", "optimal_length": "14", "subject": "A21S7MA9DCW95E"}
{"rt": "17865.0", "trial_number": "1", "skipped": "False", "complete": "False", "assignment": "3X87C8JFV7JQ2BSCY8KSFD9F2ILSQK", "start_time": "1.51674425697e+12", "human_length": "8", "nodes_expanded": "999", "instance": "prb29585", "end_time": "1.51674427484e+12", "optimal_length": "14", "subject": "A21S7MA9DCW95E"}
{"rt": "0.0", "trial_number": "2", "skipped": "False", "complete": "False", "assignment": "3X87C8JFV7JQ2BSCY8KSFD9F2ILSQK", "start_time": "1.51674428183e+12", "human_length": "1", "nodes_expanded": "999", "instance": "prb29585", "end_time": "1.51674428183e+12", "optimal_length": "14", "subject": "A21S7MA9DCW95E"}
{"rt": "0.0", "trial_number": "3", "skipped": "False", "complete": "False", "assignment": "3X87C8JFV7JQ2BSCY8KSFD9F2ILSQK", "start_time": "1.51674421639e+12", "human_length": "1", "nodes_expanded": "999", "instance": "prb29585", "end_time": "1.51674421639e+12", "optimal_length": "14", "subject": "A21S7MA9DCW95E"}
{"rt": "0.0", "trial_number": "4", "skipped": "False", "complete": "False", "assignment": "3X87C8JFV7JQ2BSCY8KSFD9F2ILSQK", "start_time": "1.51674425697e+12", "human_length": "1", "nodes_expanded": "999", "instance": "prb29585", "end_time": "1.51674425697e+12", "optimal_length": "14", "subject": "A21S7MA9DCW95E"}
{"rt": "0.0", "trial_number": "5", "skipped": "False", "complete": "False", "assignment": "3X87C8JFV7JQ2BSCY8KSFD9F2ILSQK", "start_time": "1.51674428183e+12", "human_length": "1", "nodes_expanded": "999", "instance": "prb29585", "end_time": "1.51674428183e+12", "optimal_length": "14", "subject": "A21S7MA9DCW95E"}
{"rt": "0.0", "trial_number": "6", "skipped": "False", "complete": "False", "assignment": "3X87C8JFV7JQ2BSCY8KSFD9F2ILSQK", "start_time": "1.51674421639e+12", "human_length": "1", "nodes_expanded": "999", "instance": "prb29585", "end_time": "1.51674421639e+12", "optimal_length": "14", "subject": "A21S7MA9DCW95E"}
{"rt": "0.0", "trial_number": "7", "skipped": "False", "complete": "False", "assignment": "3X87C8JFV7JQ2BSCY8KSFD9F2ILSQK", "start_time": "1.51674425697e+12", "human_length": "1", "nodes_expanded": "999", "instance": "prb29585", "end_time": "1.51674425697e+12", "optimal_length": "14", "subject": "A21S7MA9DCW95E"}
{"rt": "101128.0", "trial_number": "8", "skipped": "False", "complete": "True", "assignment": "3X87C8JFV7JQ2BSCY8KSFD9F2ILSQK", "start_time": "1.51674428183e+12", "human_length": "43", "nodes_expanded": "999", "instance": "prb29585", "end_time": "1.51674438296e+12", "optimal_length": "14", "subject": "A21S7MA9DCW95E"}
{"rt": "36569.0", "trial_number": "0", "skipped": "False", "complete": "False", "assignment": "3X87C8JFV7JQ2BSCY8KSFD9F2ILSQK", "start_time": "1.51674421639e+12", "human_length": "12", "nodes_expanded": "999", "instance": "prb29585", "end_time": "1.51674425296e+12", "optimal_length": "14", "subject": "A21S7MA9DCW95E"}
{"rt": "17865.0", "trial_number": "1", "skipped": "False", "complete": "False", "assignment": "3X87C8JFV7JQ2BSCY8KSFD9F2ILSQK", "start_time": "1.51674425697e+12", "human_length": "8", "nodes_expanded": "999", "instance": "prb29585", "end_time": "1.51674427484e+12", "optimal_length": "14", "subject": "A21S7MA9DCW95E"}
{"rt": "101128.0", "trial_number": "2", "skipped": "False", "complete": "True", "assignment": "3X87C8JFV7JQ2BSCY8KSFD9F2ILSQK", "start_time": "1.51674428183e+12", "human_length": "43", "nodes_expanded": "999", "instance": "prb29585", "end_time": "1.51674438296e+12", "optimal_length": "14", "subject": "A21S7MA9DCW95E"}
{"rt": "0.0", "trial_number": "0", "skipped": "False", "complete": "False", "assignment": "3IHR8NYAM89M0EPM8U9LH53ZJDTP4U", "start_time": "1.51682583612e+12", "human_length": "1", "nodes_expanded": "999", "instance": "prb29585", "end_time": "1.51682583612e+12", "optimal_length": "14", "subject": "A23437BMZ5T1FH"}
{"rt": "75246.0", "trial_number": "1", "skipped": "True", "complete": "False", "assignment": "3IHR8NYAM89M0EPM8U9LH53ZJDTP4U", "start_time": "1.51682583612e+12", "human_length": "133", "nodes_expanded": "999", "instance": "prb29585", "end_time": "1.51682591136e+12", "optimal_length": "14", "subject": "A23437BMZ5T1FH"}
{"rt": "0.0", "trial_number": "0", "skipped": "False", "complete": "False", "assignment": "37WLF8U1WQYZ4AWKEQXSIM1ELVEK6W", "start_time": "1.51683140813e+12", "human_length": "1", "nodes_expanded": "999", "instance": "prb29585", "end_time": "1.51683140813e+12", "optimal_length": "14", "subject": "A2EPBSY0VPI38S"}
{"rt": "194491.0", "trial_number": "1", "skipped": "False", "complete": "True", "assignment": "37WLF8U1WQYZ4AWKEQXSIM1ELVEK6W", "start_time": "1.51683140813e+12", "human_length": "96", "nodes_expanded": "999", "instance": "prb29585", "end_time": "1.51683160262e+12", "optimal_length": "14", "subject": "A2EPBSY0VPI38S"}
{"rt": "0.0", "trial_number": "0", "skipped": "False", "complete": "False", "assignment": "3X4MXAO0BHWJLTOLVSJTHSM54OHWRG", "start_time": "1.5168253213e+12", "human_length": "1", "nodes_expanded": "999", "instance": "prb29585", "end_time": "1.5168253213e+12", "optimal_length": "14", "subject": "A2IBQA01NR5N76"}
{"rt": "62628.0", "trial_number": "1", "skipped": "False", "complete": "True", "assignment": "3X4MXAO0BHWJLTOLVSJTHSM54OHWRG", "start_time": "1.5168253213e+12", "human_length": "50", "nodes_expanded": "999", "instance": "prb29585", "end_time": "1.51682538393e+12", "optimal_length": "14", "subject": "A2IBQA01NR5N76"}
{"rt": "48000.0", "trial_number": "0", "skipped": "True", "complete": "False", "assignment": "3TAYZSBPLMG9ASQRWXURJVBCPLN2SH", "start_time": "1.51813810484e+12", "human_length": "29", "nodes_expanded": "999", "instance": "prb29585", "end_time": "1.51813815284e+12", "optimal_length": "14", "subject": "A2RCYLKY072XXO"}
{"rt": "0.0", "trial_number": "0", "skipped": "False", "complete": "False", "assignment": "3IJXV6UZ1YR1KY4G6BFEG1DXP7SRI1", "start_time": "1.51674996149e+12", "human_length": "1", "nodes_expanded": "999", "instance": "prb29585", "end_time": "1.51674996149e+12", "optimal_length": "14", "subject": "A2RTJ6BDY0DZVZ"}
{"rt": "0.0", "trial_number": "1", "skipped": "False", "complete": "False", "assignment": "3IJXV6UZ1YR1KY4G6BFEG1DXP7SRI1", "start_time": "1.51674996149e+12", "human_length": "1", "nodes_expanded": "999", "instance": "prb29585", "end_time": "1.51674996149e+12", "optimal_length": "14", "subject": "A2RTJ6BDY0DZVZ"}
{"rt": "102892.0", "trial_number": "2", "skipped": "False", "complete": "True", "assignment": "3IJXV6UZ1YR1KY4G6BFEG1DXP7SRI1", "start_time": "1.51674996149e+12", "human_length": "57", "nodes_expanded": "999", "instance": "prb29585", "end_time": "1.51675006438e+12", "optimal_length": "14", "subject": "A2RTJ6BDY0DZVZ"}
{"rt": "102892.0", "trial_number": "0", "skipped": "False", "complete": "True", "assignment": "3IJXV6UZ1YR1KY4G6BFEG1DXP7SRI1", "start_time": "1.51674996149e+12", "human_length": "57", "nodes_expanded": "999", "instance": "prb29585", "end_time": "1.51675006438e+12", "optimal_length": "14", "subject": "A2RTJ6BDY0DZVZ"}
{"rt": "0.0", "trial_number": "0", "skipped": "False", "complete": "False", "assignment": "3WSELTNVR4AZUVYAYCSWZIQW0J4ATB", "start_time": "1.51674035565e+12", "human_length": "1", "nodes_expanded": "999", "instance": "prb29585", "end_time": "1.51674035565e+12", "optimal_length": "14", "subject": "A2TQNX64349OZ9"}
{"rt": "0.0", "trial_number": "1", "skipped": "False", "complete": "False", "assignment": "3WSELTNVR4AZUVYAYCSWZIQW0J4ATB", "start_time": "1.51674035565e+12", "human_length": "1", "nodes_expanded": "999", "instance": "prb29585", "end_time": "1.51674035565e+12", "optimal_length": "14", "subject": "A2TQNX64349OZ9"}
{"rt": "69966.0", "trial_number": "2", "skipped": "False", "complete": "True", "assignment": "3WSELTNVR4AZUVYAYCSWZIQW0J4ATB", "start_time": "1.51674035565e+12", "human_length": "59", "nodes_expanded": "999", "instance": "prb29585", "end_time": "1.51674042561e+12", "optimal_length": "14", "subject": "A2TQNX64349OZ9"}
{"rt": "69966.0", "trial_number": "0", "skipped": "False", "complete": "True", "assignment": "3WSELTNVR4AZUVYAYCSWZIQW0J4ATB", "start_time": "1.51674035565e+12", "human_length": "59", "nodes_expanded": "999", "instance": "prb29585", "end_time": "1.51674042561e+12", "optimal_length": "14", "subject": "A2TQNX64349OZ9"}
{"rt": "33028.0", "trial_number": "0", "skipped": "False", "complete": "True", "assignment": "3JCG6DTRV4YEPVDZ64VNKDUEMPGQQ1", "start_time": "1.51794721786e+12", "human_length": "15", "nodes_expanded": "999", "instance": "prb29585", "end_time": "1.51794725088e+12", "optimal_length": "14", "subject": "A2V7KYLBCBTI3B"}
{"rt": "141020.0", "trial_number": "0", "skipped": "False", "complete": "True", "assignment": "37TD41K0AIHM8AITTQJXV8KY05QCSB", "start_time": "1.5175269974e+12", "human_length": "76", "nodes_expanded": "999", "instance": "prb29585", "end_time": "1.51752713842e+12", "optimal_length": "14", "subject": "A30KYQGABO7JER"}
{"rt": "56118.0", "trial_number": "0", "skipped": "False", "complete": "False", "assignment": "36AHBNMV1SKT9O0GSS6XX0QHZV3YDN", "start_time": "1.5163041448e+12", "human_length": "39", "nodes_expanded": "999", "instance": "prb29585", "end_time": "1.51630420092e+12", "optimal_length": "14", "subject": "A39GADIK8RLMVC"}
{"rt": "16295.0", "trial_number": "1", "skipped": "False", "complete": "False", "assignment": "36AHBNMV1SKT9O0GSS6XX0QHZV3YDN", "start_time": "1.51630420294e+12", "human_length": "15", "nodes_expanded": "999", "instance": "prb29585", "end_time": "1.51630421924e+12", "optimal_length": "14", "subject": "A39GADIK8RLMVC"}
{"rt": "44805.0", "trial_number": "2", "skipped": "False", "complete": "True", "assignment": "36AHBNMV1SKT9O0GSS6XX0QHZV3YDN", "start_time": "1.51630424871e+12", "human_length": "40", "nodes_expanded": "999", "instance": "prb29585", "end_time": "1.51630429351e+12", "optimal_length": "14", "subject": "A39GADIK8RLMVC"}
{"rt": "88637.0", "trial_number": "0", "skipped": "False", "complete": "True", "assignment": "3TXD01ZLD5PZSJXIPG8FRBQYTI9U4X", "start_time": "1.51794446055e+12", "human_length": "42", "nodes_expanded": "999", "instance": "prb29585", "end_time": "1.51794454918e+12", "optimal_length": "14", "subject": "A3BPRPN10HJD4B"}
{"rt": "64403.0", "trial_number": "0", "skipped": "False", "complete": "False", "assignment": "34HJIJKLP64Z5YMIU6IKNXSH7PDV4I", "start_time": "1.51793996106e+12", "human_length": "18", "nodes_expanded": "999", "instance": "prb29585", "end_time": "1.51794002546e+12", "optimal_length": "14", "subject": "A3CTXNQ2GXIQSP"}
{"rt": "71803.0", "trial_number": "1", "skipped": "False", "complete": "False", "assignment": "34HJIJKLP64Z5YMIU6IKNXSH7PDV4I", "start_time": "1.51794003063e+12", "human_length": "35", "nodes_expanded": "999", "instance": "prb29585", "end_time": "1.51794010243e+12", "optimal_length": "14", "subject": "A3CTXNQ2GXIQSP"}
{"rt": "104399.0", "trial_number": "2", "skipped": "True", "complete": "False", "assignment": "34HJIJKLP64Z5YMIU6IKNXSH7PDV4I", "start_time": "1.51794010663e+12", "human_length": "42", "nodes_expanded": "999", "instance": "prb29585", "end_time": "1.51794021103e+12", "optimal_length": "14", "subject": "A3CTXNQ2GXIQSP"}
{"rt": "26625.0", "trial_number": "0", "skipped": "False", "complete": "True", "assignment": "3TPWUS5F8A9FFRZ2DVTYSXNJ6BWWC6", "start_time": "1.51794207994e+12", "human_length": "20", "nodes_expanded": "999", "instance": "prb29585", "end_time": "1.51794210656e+12", "optimal_length": "14", "subject": "A3GXC3VG37CQ3G"}
{"rt": "30845.0", "trial_number": "0", "skipped": "False", "complete": "True", "assignment": "3V5Q80FXIYZ5QB5C6ITQBN30WY823U", "start_time": "1.51753415977e+12", "human_length": "19", "nodes_expanded": "999", "instance": "prb29585", "end_time": "1.51753419062e+12", "optimal_length": "14", "subject": "A3NMQ3019X6YE0"}
{"rt": "30845.0", "trial_number": "0", "skipped": "False", "complete": "True", "assignment": "3V5Q80FXIYZ5QB5C6ITQBN30WY823U", "start_time": "1.51753415977e+12", "human_length": "19", "nodes_expanded": "999", "instance": "prb29585", "end_time": "1.51753419062e+12", "optimal_length": "14", "subject": "A3NMQ3019X6YE0"}
{"rt": "0.0", "trial_number": "0", "skipped": "False", "complete": "False", "assignment": "3X87C8JFV7JQ2BSCY8KSFD9F2ILSQK", "start_time": "1.51673954144e+12", "human_length": "1", "nodes_expanded": "999", "instance": "prb29585", "end_time": "1.51673954144e+12", "optimal_length": "14", "subject": "A3Q0XAGQ7TD7MP"}
{"rt": "0.0", "trial_number": "1", "skipped": "False", "complete": "False", "assignment": "3X87C8JFV7JQ2BSCY8KSFD9F2ILSQK", "start_time": "1.51673954144e+12", "human_length": "1", "nodes_expanded": "999", "instance": "prb29585", "end_time": "1.51673954144e+12", "optimal_length": "14", "subject": "A3Q0XAGQ7TD7MP"}
{"rt": "30579.0", "trial_number": "2", "skipped": "False", "complete": "True", "assignment": "3X87C8JFV7JQ2BSCY8KSFD9F2ILSQK", "start_time": "1.51673954144e+12", "human_length": "15", "nodes_expanded": "999", "instance": "prb29585", "end_time": "1.51673957202e+12", "optimal_length": "14", "subject": "A3Q0XAGQ7TD7MP"}
{"rt": "71911.0", "trial_number": "3", "skipped": "False", "complete": "True", "assignment": "3GLB5JMZFY3TNXFGYMKRQ0JDXNTDGZ", "start_time": "1.517945257e+12", "human_length": "37", "nodes_expanded": "999", "instance": "prb29585", "end_time": "1.51794532891e+12", "optimal_length": "14", "subject": "A3Q0XAGQ7TD7MP"}
{"rt": "30579.0", "trial_number": "0", "skipped": "False", "complete": "True", "assignment": "3X87C8JFV7JQ2BSCY8KSFD9F2ILSQK", "start_time": "1.51673954144e+12", "human_length": "15", "nodes_expanded": "999", "instance": "prb29585", "end_time": "1.51673957202e+12", "optimal_length": "14", "subject": "A3Q0XAGQ7TD7MP"}
{"rt": "71911.0", "trial_number": "1", "skipped": "False", "complete": "True", "assignment": "3GLB5JMZFY3TNXFGYMKRQ0JDXNTDGZ", "start_time": "1.517945257e+12", "human_length": "37", "nodes_expanded": "999", "instance": "prb29585", "end_time": "1.51794532891e+12", "optimal_length": "14", "subject": "A3Q0XAGQ7TD7MP"}
{"rt": "45787.0", "trial_number": "0", "skipped": "True", "complete": "False", "assignment": "3M0BCWMB8W4W5M7WZVX3HDH1P53WB1", "start_time": "1.51816035595e+12", "human_length": "27", "nodes_expanded": "999", "instance": "prb29585", "end_time": "1.51816040174e+12", "optimal_length": "14", "subject": "A53S7J4JGWG38"}
{"rt": "16934.0", "trial_number": "0", "skipped": "False", "complete": "True", "assignment": "3IXEICO793RY7TM78ZBKJDOA7ADT6Q", "start_time": "1.51816939837e+12", "human_length": "17", "nodes_expanded": "999", "instance": "prb29585", "end_time": "1.5181694153e+12", "optimal_length": "14", "subject": "ALH1K6ZAQQMN7"}
{"rt": "23129.0", "trial_number": "0", "skipped": "False", "complete": "True", "assignment": "37QW5D2ZRHUKW7SGCE3STMOFBMK8SX", "start_time": "1.51815936813e+12", "human_length": "18", "nodes_expanded": "999", "instance": "prb29585", "end_time": "1.51815939126e+12", "optimal_length": "14", "subject": "AMW2XLD9443OH"}
{"rt": "173099.0", "trial_number": "0", "skipped": "False", "complete": "True", "assignment": "3HWRJOOET6A15827PHPSLWK1MOYSEU", "start_time": "1.518144988e+12", "human_length": "132", "nodes_expanded": "999", "instance": "prb29585", "end_time": "1.5181451611e+12", "optimal_length": "14", "subject": "AO1QGAUZ85T6L"}
{"rt": "84160.0", "trial_number": "0", "skipped": "False", "complete": "True", "assignment": "3AZHRG4CU5SYU12YRVPCSZALW5003R", "start_time": "1.51630460285e+12", "human_length": "61", "nodes_expanded": "999", "instance": "prb29585", "end_time": "1.51630468701e+12", "optimal_length": "14", "subject": "ARWF605I7RWM7"}
{"rt": "48808.0", "trial_number": "0", "skipped": "False", "complete": "False", "assignment": "3DOCMVPBTOM8J1NFAKBPCP44C3ENNW", "start_time": "1.51794904352e+12", "human_length": "27", "nodes_expanded": "999", "instance": "prb29585", "end_time": "1.51794909233e+12", "optimal_length": "14", "subject": "AVS3DZVA6NT1"}
{"rt": "50588.0", "trial_number": "1", "skipped": "False", "complete": "False", "assignment": "3DOCMVPBTOM8J1NFAKBPCP44C3ENNW", "start_time": "1.51794911055e+12", "human_length": "30", "nodes_expanded": "999", "instance": "prb29585", "end_time": "1.51794916114e+12", "optimal_length": "14", "subject": "AVS3DZVA6NT1"}
{"rt": "16792.0", "trial_number": "2", "skipped": "True", "complete": "False", "assignment": "3DOCMVPBTOM8J1NFAKBPCP44C3ENNW", "start_time": "1.51794916808e+12", "human_length": "3", "nodes_expanded": "999", "instance": "prb29585", "end_time": "1.51794918488e+12", "optimal_length": "14", "subject": "AVS3DZVA6NT1"}
{"rt": "37711.0", "trial_number": "0", "skipped": "False", "complete": "True", "assignment": "33PPO7FECWN7JOLBOAKUBCWTC0AIDL", "start_time": "1.51795134728e+12", "human_length": "16", "nodes_expanded": "999", "instance": "prb29585", "end_time": "1.51795138499e+12", "optimal_length": "14", "subject": "AXKM02NVXNGOM"}
