{"rt": "59297.0", "trial_number": "0", "skipped": "False", "complete": "True", "assignment": "3AZHRG4CU5SYU12YRVPCSZALW5003R", "start_time": "1.51630468771e+12", "human_length": "51", "nodes_expanded": "999", "instance": "prb24227", "end_time": "1.51630474701e+12", "optimal_length": "16", "subject": "ARWF605I7RWM7"}
{"rt": "47799.0", "trial_number": "0", "skipped": "False", "complete": "True", "assignment": "3PMBY0YE28B43VMUKKJ6EDF85RV9C8", "start_time": "1.51638615531e+12", "human_length": "35", "nodes_expanded": "999", "instance": "prb24227", "end_time": "1.51638620311e+12", "optimal_length": "16", "subject": "A191V7PT3DQKDP"}
{"rt": "38871.0", "trial_number": "0", "skipped": "False", "complete": "True", "assignment": "3ZSY5X72NYJBGKFJ46SJ0Y9J0RLROB", "start_time": "1.51638746072e+12", "human_length": "20", "nodes_expanded": "999", "instance": "prb24227", "end_time": "1.51638749959e+12", "optimal_length": "16", "subject": "AU4KK3OYS2UZF"}
{"rt": "48709.0", "trial_number": "0", "skipped": "False", "complete": "True", "assignment": "3TYCR1GOTDRCCQYD1V64UK7OE48LZS", "start_time": "1.51639174552e+12", "human_length": "29", "nodes_expanded": "999", "instance": "prb24227", "end_time": "1.51639179423e+12", "optimal_length": "16", "subject": "A2MYB6MLQW0IGN"}
{"rt": "32097.0", "trial_number": "0", "skipped": "False", "complete": "False", "assignment": "34BBWHLWHBJ6SUL255PK30LEGY5IWG", "start_time": "1.51639344432e+12", "human_length": "22", "nodes_expanded": "999", "instance": "prb24227", "end_time": "1.51639347642e+12", "optimal_length": "16", "subject": "A214HWAW1PYWO8"}
{"rt": "30102.0", "trial_number": "1", "skipped": "False", "complete": "True", "assignment": "34BBWHLWHBJ6SUL255PK30LEGY5IWG", "start_time": "1.51639347809e+12", "human_length": "18", "nodes_expanded": "999", "instance": "prb24227", "end_time": "1.51639350819e+12", "optimal_length": "16", "subject": "A214HWAW1PYWO8"}
{"rt": "0.0", "trial_number": "0", "skipped": "False", "complete": "False", "assignment": "3VE8AYVF8N5BS2NU6U3TMN50JMNF8V", "start_time": "1.5167370157e+12", "human_length": "1", "nodes_expanded": "999", "instance": "prb24227", "end_time": "1.5167370157e+12", "optimal_length": "16", "subject": "A18QU0YQB6Q8DF"}
{"rt": "0.0", "trial_number": "1", "skipped": "False", "complete": "False", "assignment": "3VE8AYVF8N5BS2NU6U3TMN50JMNF8V", "start_time": "1.5167370157e+12", "human_length": "1", "nodes_expanded": "999", "instance": "prb24227", "end_time": "1.5167370157e+12", "optimal_length": "16", "subject": "A18QU0YQB6Q8DF"}
{"rt": "35124.0", "trial_number": "2", "skipped": "True", "complete": "False", "assignment": "3VE8AYVF8N5BS2NU6U3TMN50JMNF8V", "start_time": "1.5167370157e+12", "human_length": "17", "nodes_expanded": "999", "instance": "prb24227", "end_time": "1.51673705083e+12", "optimal_length": "16", "subject": "A18QU0YQB6Q8DF"}
{"rt": "0.0", "trial_number": "0", "skipped": "False", "complete": "False", "assignment": "3X87C8JFV7JQ2BSCY8KSFD9F2ILSQK", "start_time": "1.51673940126e+12", "human_length": "1", "nodes_expanded": "999", "instance": "prb24227", "end_time": "1.51673940126e+12", "optimal_length": "16", "subject": "A3Q0XAGQ7TD7MP"}
{"rt": "0.0", "trial_number": "1", "skipped": "False", "complete": "False", "assignment": "3X87C8JFV7JQ2BSCY8KSFD9F2ILSQK", "start_time": "1.51673940126e+12", "human_length": "1", "nodes_expanded": "999", "instance": "prb24227", "end_time": "1.51673940126e+12", "optimal_length": "16", "subject": "A3Q0XAGQ7TD7MP"}
{"rt": "99174.0", "trial_number": "2", "skipped": "False", "complete": "True", "assignment": "3X87C8JFV7JQ2BSCY8KSFD9F2ILSQK", "start_time": "1.51673940126e+12", "human_length": "38", "nodes_expanded": "999", "instance": "prb24227", "end_time": "1.51673950044e+12", "optimal_length": "16", "subject": "A3Q0XAGQ7TD7MP"}
{"rt": "35976.0", "trial_number": "3", "skipped": "False", "complete": "True", "assignment": "3GLB5JMZFY3TNXFGYMKRQ0JDXNTDGZ", "start_time": "1.51794539477e+12", "human_length": "16", "nodes_expanded": "999", "instance": "prb24227", "end_time": "1.51794543074e+12", "optimal_length": "16", "subject": "A3Q0XAGQ7TD7MP"}
{"rt": "0.0", "trial_number": "0", "skipped": "False", "complete": "False", "assignment": "3WSELTNVR4AZUVYAYCSWZIQW0J4ATB", "start_time": "1.51673871507e+12", "human_length": "1", "nodes_expanded": "999", "instance": "prb24227", "end_time": "1.51673871507e+12", "optimal_length": "16", "subject": "A2TQNX64349OZ9"}
{"rt": "0.0", "trial_number": "1", "skipped": "False", "complete": "False", "assignment": "3WSELTNVR4AZUVYAYCSWZIQW0J4ATB", "start_time": "1.51673871507e+12", "human_length": "1", "nodes_expanded": "999", "instance": "prb24227", "end_time": "1.51673871507e+12", "optimal_length": "16", "subject": "A2TQNX64349OZ9"}
{"rt": "27647.0", "trial_number": "2", "skipped": "False", "complete": "True", "assignment": "3WSELTNVR4AZUVYAYCSWZIQW0J4ATB", "start_time": "1.51673871507e+12", "human_length": "21", "nodes_expanded": "999", "instance": "prb24227", "end_time": "1.51673874272e+12", "optimal_length": "16", "subject": "A2TQNX64349OZ9"}
{"rt": "26812.0", "trial_number": "0", "skipped": "False", "complete": "False", "assignment": "3X87C8JFV7JQ2BSCY8KSFD9F2ILSQK", "start_time": "1.51674411601e+12", "human_length": "6", "nodes_expanded": "999", "instance": "prb24227", "end_time": "1.51674414282e+12", "optimal_length": "16", "subject": "A21S7MA9DCW95E"}
{"rt": "0.0", "trial_number": "1", "skipped": "False", "complete": "False", "assignment": "3X87C8JFV7JQ2BSCY8KSFD9F2ILSQK", "start_time": "1.51674415659e+12", "human_length": "1", "nodes_expanded": "999", "instance": "prb24227", "end_time": "1.51674415659e+12", "optimal_length": "16", "subject": "A21S7MA9DCW95E"}
{"rt": "0.0", "trial_number": "2", "skipped": "False", "complete": "False", "assignment": "3X87C8JFV7JQ2BSCY8KSFD9F2ILSQK", "start_time": "1.51674411601e+12", "human_length": "1", "nodes_expanded": "999", "instance": "prb24227", "end_time": "1.51674411601e+12", "optimal_length": "16", "subject": "A21S7MA9DCW95E"}
{"rt": "0.0", "trial_number": "3", "skipped": "False", "complete": "False", "assignment": "3X87C8JFV7JQ2BSCY8KSFD9F2ILSQK", "start_time": "1.51674415659e+12", "human_length": "1", "nodes_expanded": "999", "instance": "prb24227", "end_time": "1.51674415659e+12", "optimal_length": "16", "subject": "A21S7MA9DCW95E"}
{"rt": "0.0", "trial_number": "4", "skipped": "False", "complete": "False", "assignment": "3X87C8JFV7JQ2BSCY8KSFD9F2ILSQK", "start_time": "1.51674411601e+12", "human_length": "1", "nodes_expanded": "999", "instance": "prb24227", "end_time": "1.51674411601e+12", "optimal_length": "16", "subject": "A21S7MA9DCW95E"}
{"rt": "58493.0", "trial_number": "5", "skipped": "False", "complete": "True", "assignment": "3X87C8JFV7JQ2BSCY8KSFD9F2ILSQK", "start_time": "1.51674415659e+12", "human_length": "20", "nodes_expanded": "999", "instance": "prb24227", "end_time": "1.51674421508e+12", "optimal_length": "16", "subject": "A21S7MA9DCW95E"}
{"rt": "0.0", "trial_number": "0", "skipped": "False", "complete": "False", "assignment": "3IJXV6UZ1YR1KY4G6BFEG1DXP7SRI1", "start_time": "1.51674878846e+12", "human_length": "1", "nodes_expanded": "999", "instance": "prb24227", "end_time": "1.51674878846e+12", "optimal_length": "16", "subject": "A2RTJ6BDY0DZVZ"}
{"rt": "0.0", "trial_number": "1", "skipped": "False", "complete": "False", "assignment": "3IJXV6UZ1YR1KY4G6BFEG1DXP7SRI1", "start_time": "1.51674878846e+12", "human_length": "1", "nodes_expanded": "999", "instance": "prb24227", "end_time": "1.51674878846e+12", "optimal_length": "16", "subject": "A2RTJ6BDY0DZVZ"}
{"rt": "36669.0", "trial_number": "2", "skipped": "False", "complete": "True", "assignment": "3IJXV6UZ1YR1KY4G6BFEG1DXP7SRI1", "start_time": "1.51674878846e+12", "human_length": "22", "nodes_expanded": "999", "instance": "prb24227", "end_time": "1.51674882513e+12", "optimal_length": "16", "subject": "A2RTJ6BDY0DZVZ"}
{"rt": "0.0", "trial_number": "0", "skipped": "False", "complete": "False", "assignment": "3I2PTA7R3U2SESF4TZBQORI5LSJQKK", "start_time": "1.51675843708e+12", "human_length": "1", "nodes_expanded": "999", "instance": "prb24227", "end_time": "1.51675843708e+12", "optimal_length": "16", "subject": "A3NMQ3019X6YE0"}
{"rt": "0.0", "trial_number": "1", "skipped": "False", "complete": "False", "assignment": "3I2PTA7R3U2SESF4TZBQORI5LSJQKK", "start_time": "1.51675843708e+12", "human_length": "1", "nodes_expanded": "999", "instance": "prb24227", "end_time": "1.51675843708e+12", "optimal_length": "16", "subject": "A3NMQ3019X6YE0"}
{"rt": "103995.0", "trial_number": "2", "skipped": "False", "complete": "True", "assignment": "3I2PTA7R3U2SESF4TZBQORI5LSJQKK", "start_time": "1.51675843708e+12", "human_length": "42", "nodes_expanded": "999", "instance": "prb24227", "end_time": "1.51675854108e+12", "optimal_length": "16", "subject": "A3NMQ3019X6YE0"}
{"rt": "0.0", "trial_number": "0", "skipped": "False", "complete": "False", "assignment": "3X4MXAO0BHWJLTOLVSJTHSM54OHWRG", "start_time": "1.51682286359e+12", "human_length": "1", "nodes_expanded": "999", "instance": "prb24227", "end_time": "1.51682286359e+12", "optimal_length": "16", "subject": "A2IBQA01NR5N76"}
{"rt": "33351.0", "trial_number": "1", "skipped": "False", "complete": "True", "assignment": "3X4MXAO0BHWJLTOLVSJTHSM54OHWRG", "start_time": "1.51682286359e+12", "human_length": "28", "nodes_expanded": "999", "instance": "prb24227", "end_time": "1.51682289694e+12", "optimal_length": "16", "subject": "A2IBQA01NR5N76"}
{"rt": "33351.0", "trial_number": "0", "skipped": "False", "complete": "True", "assignment": "3X4MXAO0BHWJLTOLVSJTHSM54OHWRG", "start_time": "1.51682286359e+12", "human_length": "28", "nodes_expanded": "999", "instance": "prb24227", "end_time": "1.51682289694e+12", "optimal_length": "16", "subject": "A2IBQA01NR5N76"}
{"rt": "0.0", "trial_number": "0", "skipped": "False", "complete": "False", "assignment": "3IHR8NYAM89M0EPM8U9LH53ZJDTP4U", "start_time": "1.51682622882e+12", "human_length": "1", "nodes_expanded": "999", "instance": "prb24227", "end_time": "1.51682622882e+12", "optimal_length": "16", "subject": "A23437BMZ5T1FH"}
{"rt": "17581.0", "trial_number": "1", "skipped": "True", "complete": "False", "assignment": "3IHR8NYAM89M0EPM8U9LH53ZJDTP4U", "start_time": "1.51682622882e+12", "human_length": "24", "nodes_expanded": "999", "instance": "prb24227", "end_time": "1.5168262464e+12", "optimal_length": "16", "subject": "A23437BMZ5T1FH"}
{"rt": "25677.0", "trial_number": "0", "skipped": "False", "complete": "True", "assignment": "3YW4XOSQKRTI0K0Z2YPDTDJVFABU1I", "start_time": "1.51683259823e+12", "human_length": "22", "nodes_expanded": "999", "instance": "prb24227", "end_time": "1.51683262391e+12", "optimal_length": "16", "subject": "A1LR0VQIHQUJAM"}
{"rt": "36245.0", "trial_number": "0", "skipped": "True", "complete": "False", "assignment": "3VE8AYVF8N5BS2NU6U3TMN50JMNF8V", "start_time": "1.5167370157e+12", "human_length": "9", "nodes_expanded": "999", "instance": "prb24227", "end_time": "1.51673705195e+12", "optimal_length": "16", "subject": "A18QU0YQB6Q8DF"}
{"rt": "99174.0", "trial_number": "0", "skipped": "False", "complete": "True", "assignment": "3X87C8JFV7JQ2BSCY8KSFD9F2ILSQK", "start_time": "1.51673940126e+12", "human_length": "38", "nodes_expanded": "999", "instance": "prb24227", "end_time": "1.51673950044e+12", "optimal_length": "16", "subject": "A3Q0XAGQ7TD7MP"}
{"rt": "35976.0", "trial_number": "1", "skipped": "False", "complete": "True", "assignment": "3GLB5JMZFY3TNXFGYMKRQ0JDXNTDGZ", "start_time": "1.51794539477e+12", "human_length": "16", "nodes_expanded": "999", "instance": "prb24227", "end_time": "1.51794543074e+12", "optimal_length": "16", "subject": "A3Q0XAGQ7TD7MP"}
{"rt": "27647.0", "trial_number": "0", "skipped": "False", "complete": "True", "assignment": "3WSELTNVR4AZUVYAYCSWZIQW0J4ATB", "start_time": "1.51673871507e+12", "human_length": "21", "nodes_expanded": "999", "instance": "prb24227", "end_time": "1.51673874272e+12", "optimal_length": "16", "subject": "A2TQNX64349OZ9"}
{"rt": "26812.0", "trial_number": "0", "skipped": "False", "complete": "False", "assignment": "3X87C8JFV7JQ2BSCY8KSFD9F2ILSQK", "start_time": "1.51674411601e+12", "human_length": "6", "nodes_expanded": "999", "instance": "prb24227", "end_time": "1.51674414282e+12", "optimal_length": "16", "subject": "A21S7MA9DCW95E"}
{"rt": "58493.0", "trial_number": "1", "skipped": "False", "complete": "True", "assignment": "3X87C8JFV7JQ2BSCY8KSFD9F2ILSQK", "start_time": "1.51674415659e+12", "human_length": "20", "nodes_expanded": "999", "instance": "prb24227", "end_time": "1.51674421508e+12", "optimal_length": "16", "subject": "A21S7MA9DCW95E"}
{"rt": "36669.0", "trial_number": "0", "skipped": "False", "complete": "True", "assignment": "3IJXV6UZ1YR1KY4G6BFEG1DXP7SRI1", "start_time": "1.51674878846e+12", "human_length": "22", "nodes_expanded": "999", "instance": "prb24227", "end_time": "1.51674882513e+12", "optimal_length": "16", "subject": "A2RTJ6BDY0DZVZ"}
{"rt": "103995.0", "trial_number": "0", "skipped": "False", "complete": "True", "assignment": "3I2PTA7R3U2SESF4TZBQORI5LSJQKK", "start_time": "1.51675843708e+12", "human_length": "42", "nodes_expanded": "999", "instance": "prb24227", "end_time": "1.51675854108e+12", "optimal_length": "16", "subject": "A3NMQ3019X6YE0"}
{"rt": "26641.0", "trial_number": "0", "skipped": "False", "complete": "True", "assignment": "3TS1AR6UQRM7SOIBWPBN8N9589Y7FV", "start_time": "1.51683899162e+12", "human_length": "21", "nodes_expanded": "999", "instance": "prb24227", "end_time": "1.51683901826e+12", "optimal_length": "16", "subject": "A1F4N58CAX8IMK"}
{"rt": "54030.0", "trial_number": "1", "skipped": "False", "complete": "True", "assignment": "35DR22AR5ES6RR89U7EJ1DXW91AX3P", "start_time": "1.51795249864e+12", "human_length": "41", "nodes_expanded": "999", "instance": "prb24227", "end_time": "1.51795255267e+12", "optimal_length": "16", "subject": "A1F4N58CAX8IMK"}
{"rt": "11483.0", "trial_number": "0", "skipped": "False", "complete": "False", "assignment": "31LM9EDVOM0C0BWUVMJXJINN3QPJNI", "start_time": "1.51752299401e+12", "human_length": "7", "nodes_expanded": "999", "instance": "prb24227", "end_time": "1.51752300549e+12", "optimal_length": "16", "subject": "A1NT8BT94ME6F5"}
{"rt": "5413.0", "trial_number": "1", "skipped": "False", "complete": "False", "assignment": "31LM9EDVOM0C0BWUVMJXJINN3QPJNI", "start_time": "1.51752301182e+12", "human_length": "4", "nodes_expanded": "999", "instance": "prb24227", "end_time": "1.51752301724e+12", "optimal_length": "16", "subject": "A1NT8BT94ME6F5"}
{"rt": "37066.0", "trial_number": "2", "skipped": "False", "complete": "True", "assignment": "31LM9EDVOM0C0BWUVMJXJINN3QPJNI", "start_time": "1.5175230222e+12", "human_length": "19", "nodes_expanded": "999", "instance": "prb24227", "end_time": "1.51752305927e+12", "optimal_length": "16", "subject": "A1NT8BT94ME6F5"}
{"rt": "31596.0", "trial_number": "0", "skipped": "True", "complete": "False", "assignment": "36H9ULYP6320CJJDXY0KBDEE1Z3JFB", "start_time": "1.517532868e+12", "human_length": "10", "nodes_expanded": "999", "instance": "prb24227", "end_time": "1.51753289959e+12", "optimal_length": "16", "subject": "AN098C29EGJ6"}
{"rt": "73642.0", "trial_number": "0", "skipped": "False", "complete": "True", "assignment": "3TYCR1GOTDRCCQYD1V64UK7OHTBZLQ", "start_time": "1.51753643506e+12", "human_length": "51", "nodes_expanded": "999", "instance": "prb24227", "end_time": "1.51753650871e+12", "optimal_length": "16", "subject": "A13BZCNJ0WR1T7"}
{"rt": "29814.0", "trial_number": "0", "skipped": "False", "complete": "True", "assignment": "3H0W84IWBLAP4T2UASPNVMF5ZH7ER9", "start_time": "1.5175523607e+12", "human_length": "24", "nodes_expanded": "999", "instance": "prb24227", "end_time": "1.51755239051e+12", "optimal_length": "16", "subject": "A1AKX1C8GCVCTP"}
{"rt": "33728.0", "trial_number": "0", "skipped": "False", "complete": "False", "assignment": "34HJIJKLP64Z5YMIU6IKNXSH7PDV4I", "start_time": "1.51794322009e+12", "human_length": "15", "nodes_expanded": "999", "instance": "prb24227", "end_time": "1.51794325382e+12", "optimal_length": "16", "subject": "A3CTXNQ2GXIQSP"}
{"rt": "22093.0", "trial_number": "1", "skipped": "True", "complete": "False", "assignment": "34HJIJKLP64Z5YMIU6IKNXSH7PDV4I", "start_time": "1.51794325586e+12", "human_length": "9", "nodes_expanded": "999", "instance": "prb24227", "end_time": "1.51794327795e+12", "optimal_length": "16", "subject": "A3CTXNQ2GXIQSP"}
{"rt": "0.0", "trial_number": "0", "skipped": "False", "complete": "False", "assignment": "3U84XHCDIDLGEIRSV37N835DV0K4ZS", "start_time": "1.5179412228e+12", "human_length": "1", "nodes_expanded": "999", "instance": "prb24227", "end_time": "1.5179412228e+12", "optimal_length": "16", "subject": "A8KX1HFH8NE2Q"}
{"rt": "36648.0", "trial_number": "1", "skipped": "True", "complete": "False", "assignment": "3U84XHCDIDLGEIRSV37N835DV0K4ZS", "start_time": "1.51794122282e+12", "human_length": "6", "nodes_expanded": "999", "instance": "prb24227", "end_time": "1.51794125947e+12", "optimal_length": "16", "subject": "A8KX1HFH8NE2Q"}
{"rt": "53885.0", "trial_number": "0", "skipped": "False", "complete": "True", "assignment": "3TXD01ZLD5PZSJXIPG8FRBQYTI9U4X", "start_time": "1.51794379496e+12", "human_length": "26", "nodes_expanded": "999", "instance": "prb24227", "end_time": "1.51794384884e+12", "optimal_length": "16", "subject": "A3BPRPN10HJD4B"}
{"rt": "29205.0", "trial_number": "0", "skipped": "False", "complete": "False", "assignment": "30IQTZXKALEAAZ9CBKW0ZFZP6O5X07", "start_time": "1.51794572167e+12", "human_length": "13", "nodes_expanded": "999", "instance": "prb24227", "end_time": "1.51794575087e+12", "optimal_length": "16", "subject": "A23XJ8I86R0O3B"}
{"rt": "18596.0", "trial_number": "1", "skipped": "False", "complete": "False", "assignment": "30IQTZXKALEAAZ9CBKW0ZFZP6O5X07", "start_time": "1.51794575198e+12", "human_length": "4", "nodes_expanded": "999", "instance": "prb24227", "end_time": "1.51794577057e+12", "optimal_length": "16", "subject": "A23XJ8I86R0O3B"}
{"rt": "38111.0", "trial_number": "2", "skipped": "False", "complete": "True", "assignment": "30IQTZXKALEAAZ9CBKW0ZFZP6O5X07", "start_time": "1.51794577571e+12", "human_length": "17", "nodes_expanded": "999", "instance": "prb24227", "end_time": "1.51794581382e+12", "optimal_length": "16", "subject": "A23XJ8I86R0O3B"}
{"rt": "12129.0", "trial_number": "0", "skipped": "False", "complete": "False", "assignment": "3STRJBFXOXZ5687WA35LTWTS7QZKTT", "start_time": "1.51794578579e+12", "human_length": "4", "nodes_expanded": "999", "instance": "prb24227", "end_time": "1.51794579792e+12", "optimal_length": "16", "subject": "A3OB6REG5CGHK1"}
{"rt": "6143.0", "trial_number": "1", "skipped": "False", "complete": "False", "assignment": "3STRJBFXOXZ5687WA35LTWTS7QZKTT", "start_time": "1.51794580044e+12", "human_length": "2", "nodes_expanded": "999", "instance": "prb24227", "end_time": "1.51794580658e+12", "optimal_length": "16", "subject": "A3OB6REG5CGHK1"}
{"rt": "34277.0", "trial_number": "2", "skipped": "False", "complete": "True", "assignment": "3STRJBFXOXZ5687WA35LTWTS7QZKTT", "start_time": "1.51794581153e+12", "human_length": "16", "nodes_expanded": "999", "instance": "prb24227", "end_time": "1.5179458458e+12", "optimal_length": "16", "subject": "A3OB6REG5CGHK1"}
{"rt": "20868.0", "trial_number": "0", "skipped": "True", "complete": "False", "assignment": "33PPO7FECWN7JOLBOAKUBCWTC0AIDL", "start_time": "1.51795101411e+12", "human_length": "7", "nodes_expanded": "999", "instance": "prb24227", "end_time": "1.51795103498e+12", "optimal_length": "16", "subject": "AXKM02NVXNGOM"}
{"rt": "31148.0", "trial_number": "0", "skipped": "False", "complete": "True", "assignment": "3PB5A5BD0WED6OE679H5Q89HBDGG71", "start_time": "1.51795019256e+12", "human_length": "20", "nodes_expanded": "999", "instance": "prb24227", "end_time": "1.51795022371e+12", "optimal_length": "16", "subject": "A1USR9JCAMDGM3"}
{"rt": "25628.0", "trial_number": "0", "skipped": "False", "complete": "True", "assignment": "3R5F3LQFV3SKIB1AENMWM1BICT5OZB", "start_time": "1.51796069018e+12", "human_length": "22", "nodes_expanded": "999", "instance": "prb24227", "end_time": "1.51796071581e+12", "optimal_length": "16", "subject": "A1N1EF0MIRSEZZ"}
{"rt": "37714.0", "trial_number": "0", "skipped": "False", "complete": "True", "assignment": "33F859I567LE8WC74WB3GA7E94XBHW", "start_time": "1.517967927e+12", "human_length": "23", "nodes_expanded": "999", "instance": "prb24227", "end_time": "1.51796796472e+12", "optimal_length": "16", "subject": "A1GQS6USF2JEYG"}
{"rt": "23096.0", "trial_number": "0", "skipped": "False", "complete": "True", "assignment": "3IJXV6UZ1YR1KY4G6BFEG1DXR47RIC", "start_time": "1.51797309192e+12", "human_length": "20", "nodes_expanded": "999", "instance": "prb24227", "end_time": "1.51797311502e+12", "optimal_length": "16", "subject": "A18T3WK7J16C1B"}
{"rt": "31960.0", "trial_number": "0", "skipped": "False", "complete": "True", "assignment": "3FTF2T8WLSQDHTSZ1BJ7Q7MB14SW9H", "start_time": "1.51813558027e+12", "human_length": "20", "nodes_expanded": "999", "instance": "prb24227", "end_time": "1.51813561223e+12", "optimal_length": "16", "subject": "A1IUH9D7N69VS"}
{"rt": "37852.0", "trial_number": "0", "skipped": "True", "complete": "False", "assignment": "3XC1O3LBOTUGQEPEV3HM8W67X4RTLL", "start_time": "1.51813824302e+12", "human_length": "14", "nodes_expanded": "999", "instance": "prb24227", "end_time": "1.51813828087e+12", "optimal_length": "16", "subject": "A1ZTSCPETU3UJW"}
{"rt": "28428.0", "trial_number": "0", "skipped": "True", "complete": "False", "assignment": "3TAYZSBPLMG9ASQRWXURJVBCPLN2SH", "start_time": "1.51813795251e+12", "human_length": "17", "nodes_expanded": "999", "instance": "prb24227", "end_time": "1.51813798094e+12", "optimal_length": "16", "subject": "A2RCYLKY072XXO"}
{"rt": "29717.0", "trial_number": "0", "skipped": "False", "complete": "True", "assignment": "3ZSANO2JCGFTBM23KS9Y3E51YP4FSQ", "start_time": "1.51814407716e+12", "human_length": "29", "nodes_expanded": "999", "instance": "prb24227", "end_time": "1.51814410688e+12", "optimal_length": "16", "subject": "A1F42D4L22K5ND"}
{"rt": "29949.0", "trial_number": "0", "skipped": "False", "complete": "False", "assignment": "3TMFV4NEP9MD3O9PWJDTQBR0HZYW8I", "start_time": "1.51814784543e+12", "human_length": "19", "nodes_expanded": "999", "instance": "prb24227", "end_time": "1.51814787538e+12", "optimal_length": "16", "subject": "A3GOOI75XOF24V"}
{"rt": "0.0", "trial_number": "1", "skipped": "False", "complete": "False", "assignment": "3TMFV4NEP9MD3O9PWJDTQBR0HZYW8I", "start_time": "1.51814788271e+12", "human_length": "1", "nodes_expanded": "999", "instance": "prb24227", "end_time": "1.51814788271e+12", "optimal_length": "16", "subject": "A3GOOI75XOF24V"}
{"rt": "8397.0", "trial_number": "2", "skipped": "False", "complete": "False", "assignment": "3TMFV4NEP9MD3O9PWJDTQBR0HZYW8I", "start_time": "1.51814788273e+12", "human_length": "3", "nodes_expanded": "999", "instance": "prb24227", "end_time": "1.51814789112e+12", "optimal_length": "16", "subject": "A3GOOI75XOF24V"}
{"rt": "46251.0", "trial_number": "3", "skipped": "False", "complete": "False", "assignment": "3TMFV4NEP9MD3O9PWJDTQBR0HZYW8I", "start_time": "1.51814789635e+12", "human_length": "33", "nodes_expanded": "999", "instance": "prb24227", "end_time": "1.5181479426e+12", "optimal_length": "16", "subject": "A3GOOI75XOF24V"}
{"rt": "0.0", "trial_number": "4", "skipped": "False", "complete": "False", "assignment": "3TMFV4NEP9MD3O9PWJDTQBR0HZYW8I", "start_time": "1.51814796317e+12", "human_length": "1", "nodes_expanded": "999", "instance": "prb24227", "end_time": "1.51814796317e+12", "optimal_length": "16", "subject": "A3GOOI75XOF24V"}
{"rt": "0.0", "trial_number": "5", "skipped": "False", "complete": "False", "assignment": "3TMFV4NEP9MD3O9PWJDTQBR0HZYW8I", "start_time": "1.51814796319e+12", "human_length": "1", "nodes_expanded": "999", "instance": "prb24227", "end_time": "1.51814796319e+12", "optimal_length": "16", "subject": "A3GOOI75XOF24V"}
{"rt": "0.0", "trial_number": "6", "skipped": "False", "complete": "False", "assignment": "3TMFV4NEP9MD3O9PWJDTQBR0HZYW8I", "start_time": "1.5181479632e+12", "human_length": "1", "nodes_expanded": "999", "instance": "prb24227", "end_time": "1.5181479632e+12", "optimal_length": "16", "subject": "A3GOOI75XOF24V"}
{"rt": "0.0", "trial_number": "7", "skipped": "False", "complete": "False", "assignment": "3TMFV4NEP9MD3O9PWJDTQBR0HZYW8I", "start_time": "1.51814796322e+12", "human_length": "1", "nodes_expanded": "999", "instance": "prb24227", "end_time": "1.51814796322e+12", "optimal_length": "16", "subject": "A3GOOI75XOF24V"}
{"rt": "0.0", "trial_number": "8", "skipped": "False", "complete": "False", "assignment": "3TMFV4NEP9MD3O9PWJDTQBR0HZYW8I", "start_time": "1.51814796324e+12", "human_length": "1", "nodes_expanded": "999", "instance": "prb24227", "end_time": "1.51814796324e+12", "optimal_length": "16", "subject": "A3GOOI75XOF24V"}
{"rt": "0.0", "trial_number": "9", "skipped": "False", "complete": "False", "assignment": "3TMFV4NEP9MD3O9PWJDTQBR0HZYW8I", "start_time": "1.51814796326e+12", "human_length": "1", "nodes_expanded": "999", "instance": "prb24227", "end_time": "1.51814796326e+12", "optimal_length": "16", "subject": "A3GOOI75XOF24V"}
{"rt": "4778.0", "trial_number": "10", "skipped": "False", "complete": "False", "assignment": "3TMFV4NEP9MD3O9PWJDTQBR0HZYW8I", "start_time": "1.51814796327e+12", "human_length": "3", "nodes_expanded": "999", "instance": "prb24227", "end_time": "1.51814796805e+12", "optimal_length": "16", "subject": "A3GOOI75XOF24V"}
{"rt": "52521.0", "trial_number": "11", "skipped": "False", "complete": "True", "assignment": "3TMFV4NEP9MD3O9PWJDTQBR0HZYW8I", "start_time": "1.51814796866e+12", "human_length": "35", "nodes_expanded": "999", "instance": "prb24227", "end_time": "1.51814802119e+12", "optimal_length": "16", "subject": "A3GOOI75XOF24V"}
{"rt": "28089.0", "trial_number": "0", "skipped": "False", "complete": "True", "assignment": "3XLBSAQ9Z5KDX59BX15UBFPNNHYZ7Q", "start_time": "1.51814573524e+12", "human_length": "19", "nodes_expanded": "999", "instance": "prb24227", "end_time": "1.51814576333e+12", "optimal_length": "16", "subject": "A1HFNOKU591WCY"}
{"rt": "78736.0", "trial_number": "0", "skipped": "False", "complete": "True", "assignment": "3FUI0JHJPY6UBT1VAI7VUX8S3KH33W", "start_time": "1.51815072511e+12", "human_length": "38", "nodes_expanded": "999", "instance": "prb24227", "end_time": "1.51815080385e+12", "optimal_length": "16", "subject": "A2QIZ31TMHU0GD"}
{"rt": "0.0", "trial_number": "0", "skipped": "False", "complete": "False", "assignment": "3RUIQRXJBCWS71H9MUFVM5WQ3SCLLJ", "start_time": "1.51815860951e+12", "human_length": "1", "nodes_expanded": "999", "instance": "prb24227", "end_time": "1.51815860951e+12", "optimal_length": "16", "subject": "A1SJRFJWFXSDH4"}
{"rt": "40985.0", "trial_number": "1", "skipped": "False", "complete": "False", "assignment": "3RUIQRXJBCWS71H9MUFVM5WQ3SCLLJ", "start_time": "1.51815861023e+12", "human_length": "20", "nodes_expanded": "999", "instance": "prb24227", "end_time": "1.51815865122e+12", "optimal_length": "16", "subject": "A1SJRFJWFXSDH4"}
{"rt": "0.0", "trial_number": "2", "skipped": "False", "complete": "False", "assignment": "3RUIQRXJBCWS71H9MUFVM5WQ3SCLLJ", "start_time": "1.51815878688e+12", "human_length": "1", "nodes_expanded": "999", "instance": "prb24227", "end_time": "1.51815878688e+12", "optimal_length": "16", "subject": "A1SJRFJWFXSDH4"}
{"rt": "49571.0", "trial_number": "3", "skipped": "False", "complete": "True", "assignment": "3RUIQRXJBCWS71H9MUFVM5WQ3SCLLJ", "start_time": "1.51815878876e+12", "human_length": "26", "nodes_expanded": "999", "instance": "prb24227", "end_time": "1.51815883833e+12", "optimal_length": "16", "subject": "A1SJRFJWFXSDH4"}
{"rt": "64043.0", "trial_number": "0", "skipped": "False", "complete": "True", "assignment": "37QW5D2ZRHUKW7SGCE3STMOFBMK8SX", "start_time": "1.51815957465e+12", "human_length": "29", "nodes_expanded": "999", "instance": "prb24227", "end_time": "1.51815963869e+12", "optimal_length": "16", "subject": "AMW2XLD9443OH"}
{"rt": "20610.0", "trial_number": "0", "skipped": "True", "complete": "False", "assignment": "3M0BCWMB8W4W5M7WZVX3HDH1P53WB1", "start_time": "1.51816017738e+12", "human_length": "10", "nodes_expanded": "999", "instance": "prb24227", "end_time": "1.51816019799e+12", "optimal_length": "16", "subject": "A53S7J4JGWG38"}
{"rt": "49460.0", "trial_number": "0", "skipped": "False", "complete": "True", "assignment": "3SITXWYCNWHBUMCM90TPJWV8Y7AXBW", "start_time": "1.51816541401e+12", "human_length": "21", "nodes_expanded": "999", "instance": "prb24227", "end_time": "1.51816546347e+12", "optimal_length": "16", "subject": "A28RX7L0QZ993M"}
{"rt": "61336.0", "trial_number": "0", "skipped": "False", "complete": "True", "assignment": "3IXEICO793RY7TM78ZBKJDOA7ADT6Q", "start_time": "1.51816835768e+12", "human_length": "35", "nodes_expanded": "999", "instance": "prb24227", "end_time": "1.51816841901e+12", "optimal_length": "16", "subject": "ALH1K6ZAQQMN7"}
