{"rt": "17521.0", "trial_number": "0", "skipped": "False", "complete": "True", "assignment": "3AZHRG4CU5SYU12YRVPCSZALW5003R", "start_time": "1.51630742054e+12", "human_length": "18", "nodes_expanded": "999", "instance": "prb2834", "end_time": "1.51630743806e+12", "optimal_length": "7", "subject": "ARWF605I7RWM7"}
{"rt": "20141.0", "trial_number": "0", "skipped": "False", "complete": "True", "assignment": "3ZV9H2YQQEFR2R3JK2IXZUJPXAF3WW", "start_time": "1.51630778138e+12", "human_length": "12", "nodes_expanded": "999", "instance": "prb2834", "end_time": "1.51630780152e+12", "optimal_length": "7", "subject": "A289D98Z4GAZ28"}
{"rt": "10462.0", "trial_number": "0", "skipped": "False", "complete": "True", "assignment": "3ON104KXQL4CKNMNKGNG9ZBVBAB4WI", "start_time": "1.51631267736e+12", "human_length": "7", "nodes_expanded": "999", "instance": "prb2834", "end_time": "1.51631268783e+12", "optimal_length": "7", "subject": "AYPOAY43REHC8"}
{"rt": "14860.0", "trial_number": "0", "skipped": "False", "complete": "True", "assignment": "3PMBY0YE28B43VMUKKJ6EDF85RV9C8", "start_time": "1.516388375e+12", "human_length": "12", "nodes_expanded": "999", "instance": "prb2834", "end_time": "1.51638838986e+12", "optimal_length": "7", "subject": "A191V7PT3DQKDP"}
{"rt": "0.0", "trial_number": "0", "skipped": "False", "complete": "False", "assignment": "3ZSY5X72NYJBGKFJ46SJ0Y9J0RLROB", "start_time": "1.5163881526e+12", "human_length": "1", "nodes_expanded": "999", "instance": "prb2834", "end_time": "1.5163881526e+12", "optimal_length": "7", "subject": "AU4KK3OYS2UZF"}
{"rt": "5925.0", "trial_number": "1", "skipped": "False", "complete": "False", "assignment": "3ZSY5X72NYJBGKFJ46SJ0Y9J0RLROB", "start_time": "1.51638815261e+12", "human_length": "3", "nodes_expanded": "999", "instance": "prb2834", "end_time": "1.51638815853e+12", "optimal_length": "7", "subject": "AU4KK3OYS2UZF"}
{"rt": "4369.0", "trial_number": "2", "skipped": "False", "complete": "True", "assignment": "3ZSY5X72NYJBGKFJ46SJ0Y9J0RLROB", "start_time": "1.51638816992e+12", "human_length": "7", "nodes_expanded": "999", "instance": "prb2834", "end_time": "1.51638817429e+12", "optimal_length": "7", "subject": "AU4KK3OYS2UZF"}
{"rt": "8547.0", "trial_number": "0", "skipped": "False", "complete": "True", "assignment": "34BBWHLWHBJ6SUL255PK30LEGY5IWG", "start_time": "1.51639293296e+12", "human_length": "7", "nodes_expanded": "999", "instance": "prb2834", "end_time": "1.51639294151e+12", "optimal_length": "7", "subject": "A214HWAW1PYWO8"}
{"rt": "0.0", "trial_number": "0", "skipped": "False", "complete": "False", "assignment": "3VE8AYVF8N5BS2NU6U3TMN50JMNF8V", "start_time": "1.5167369103e+12", "human_length": "1", "nodes_expanded": "999", "instance": "prb2834", "end_time": "1.5167369103e+12", "optimal_length": "7", "subject": "A18QU0YQB6Q8DF"}
{"rt": "0.0", "trial_number": "1", "skipped": "False", "complete": "False", "assignment": "3VE8AYVF8N5BS2NU6U3TMN50JMNF8V", "start_time": "1.5167369103e+12", "human_length": "1", "nodes_expanded": "999", "instance": "prb2834", "end_time": "1.5167369103e+12", "optimal_length": "7", "subject": "A18QU0YQB6Q8DF"}
{"rt": "13381.0", "trial_number": "2", "skipped": "False", "complete": "True", "assignment": "3VE8AYVF8N5BS2NU6U3TMN50JMNF8V", "start_time": "1.5167369103e+12", "human_length": "7", "nodes_expanded": "999", "instance": "prb2834", "end_time": "1.51673692368e+12", "optimal_length": "7", "subject": "A18QU0YQB6Q8DF"}
{"rt": "0.0", "trial_number": "0", "skipped": "False", "complete": "False", "assignment": "3X87C8JFV7JQ2BSCY8KSFD9F2ILSQK", "start_time": "1.51674057893e+12", "human_length": "1", "nodes_expanded": "999", "instance": "prb2834", "end_time": "1.51674057893e+12", "optimal_length": "7", "subject": "A3Q0XAGQ7TD7MP"}
{"rt": "0.0", "trial_number": "1", "skipped": "False", "complete": "False", "assignment": "3X87C8JFV7JQ2BSCY8KSFD9F2ILSQK", "start_time": "1.51674057893e+12", "human_length": "1", "nodes_expanded": "999", "instance": "prb2834", "end_time": "1.51674057893e+12", "optimal_length": "7", "subject": "A3Q0XAGQ7TD7MP"}
{"rt": "10324.0", "trial_number": "2", "skipped": "False", "complete": "True", "assignment": "3X87C8JFV7JQ2BSCY8KSFD9F2ILSQK", "start_time": "1.51674057893e+12", "human_length": "7", "nodes_expanded": "999", "instance": "prb2834", "end_time": "1.51674058925e+12", "optimal_length": "7", "subject": "A3Q0XAGQ7TD7MP"}
{"rt": "17372.0", "trial_number": "3", "skipped": "False", "complete": "True", "assignment": "3GLB5JMZFY3TNXFGYMKRQ0JDXNTDGZ", "start_time": "1.51794612249e+12", "human_length": "9", "nodes_expanded": "999", "instance": "prb2834", "end_time": "1.51794613987e+12", "optimal_length": "7", "subject": "A3Q0XAGQ7TD7MP"}
{"rt": "0.0", "trial_number": "0", "skipped": "False", "complete": "False", "assignment": "3WSELTNVR4AZUVYAYCSWZIQW0J4ATB", "start_time": "1.5167396389e+12", "human_length": "1", "nodes_expanded": "999", "instance": "prb2834", "end_time": "1.5167396389e+12", "optimal_length": "7", "subject": "A2TQNX64349OZ9"}
{"rt": "0.0", "trial_number": "1", "skipped": "False", "complete": "False", "assignment": "3WSELTNVR4AZUVYAYCSWZIQW0J4ATB", "start_time": "1.5167396389e+12", "human_length": "1", "nodes_expanded": "999", "instance": "prb2834", "end_time": "1.5167396389e+12", "optimal_length": "7", "subject": "A2TQNX64349OZ9"}
{"rt": "9896.0", "trial_number": "2", "skipped": "False", "complete": "True", "assignment": "3WSELTNVR4AZUVYAYCSWZIQW0J4ATB", "start_time": "1.5167396389e+12", "human_length": "10", "nodes_expanded": "999", "instance": "prb2834", "end_time": "1.51673964879e+12", "optimal_length": "7", "subject": "A2TQNX64349OZ9"}
{"rt": "0.0", "trial_number": "0", "skipped": "False", "complete": "False", "assignment": "3X87C8JFV7JQ2BSCY8KSFD9F2ILSQK", "start_time": "1.51674784586e+12", "human_length": "1", "nodes_expanded": "999", "instance": "prb2834", "end_time": "1.51674784586e+12", "optimal_length": "7", "subject": "A21S7MA9DCW95E"}
{"rt": "0.0", "trial_number": "1", "skipped": "False", "complete": "False", "assignment": "3X87C8JFV7JQ2BSCY8KSFD9F2ILSQK", "start_time": "1.51674784586e+12", "human_length": "1", "nodes_expanded": "999", "instance": "prb2834", "end_time": "1.51674784586e+12", "optimal_length": "7", "subject": "A21S7MA9DCW95E"}
{"rt": "28178.0", "trial_number": "2", "skipped": "False", "complete": "True", "assignment": "3X87C8JFV7JQ2BSCY8KSFD9F2ILSQK", "start_time": "1.51674784586e+12", "human_length": "20", "nodes_expanded": "999", "instance": "prb2834", "end_time": "1.51674787404e+12", "optimal_length": "7", "subject": "A21S7MA9DCW95E"}
{"rt": "16149.0", "trial_number": "0", "skipped": "False", "complete": "True", "assignment": "3V5Q80FXIYZ5QB5C6ITQBN30WY823U", "start_time": "1.51753323308e+12", "human_length": "9", "nodes_expanded": "999", "instance": "prb2834", "end_time": "1.51753324923e+12", "optimal_length": "7", "subject": "A3NMQ3019X6YE0"}
{"rt": "0.0", "trial_number": "0", "skipped": "False", "complete": "False", "assignment": "3YW4XOSQKRTI0K0Z2YPDTDJVFABU1I", "start_time": "1.51682497759e+12", "human_length": "1", "nodes_expanded": "999", "instance": "prb2834", "end_time": "1.51682497759e+12", "optimal_length": "7", "subject": "A15781PHGW377Y"}
{"rt": "25746.0", "trial_number": "1", "skipped": "False", "complete": "True", "assignment": "3YW4XOSQKRTI0K0Z2YPDTDJVFABU1I", "start_time": "1.51682497759e+12", "human_length": "16", "nodes_expanded": "999", "instance": "prb2834", "end_time": "1.51682500334e+12", "optimal_length": "7", "subject": "A15781PHGW377Y"}
{"rt": "0.0", "trial_number": "0", "skipped": "False", "complete": "False", "assignment": "3IHR8NYAM89M0EPM8U9LH53ZJDTP4U", "start_time": "1.51682543523e+12", "human_length": "1", "nodes_expanded": "999", "instance": "prb2834", "end_time": "1.51682543523e+12", "optimal_length": "7", "subject": "A23437BMZ5T1FH"}
{"rt": "6386.0", "trial_number": "1", "skipped": "False", "complete": "True", "assignment": "3IHR8NYAM89M0EPM8U9LH53ZJDTP4U", "start_time": "1.51682543523e+12", "human_length": "7", "nodes_expanded": "999", "instance": "prb2834", "end_time": "1.51682544162e+12", "optimal_length": "7", "subject": "A23437BMZ5T1FH"}
{"rt": "0.0", "trial_number": "0", "skipped": "False", "complete": "False", "assignment": "3YW4XOSQKRTI0K0Z2YPDTDJVFABU1I", "start_time": "1.51683168978e+12", "human_length": "1", "nodes_expanded": "999", "instance": "prb2834", "end_time": "1.51683168978e+12", "optimal_length": "7", "subject": "A1LR0VQIHQUJAM"}
{"rt": "8946.0", "trial_number": "1", "skipped": "False", "complete": "True", "assignment": "3YW4XOSQKRTI0K0Z2YPDTDJVFABU1I", "start_time": "1.51683168978e+12", "human_length": "11", "nodes_expanded": "999", "instance": "prb2834", "end_time": "1.51683169873e+12", "optimal_length": "7", "subject": "A1LR0VQIHQUJAM"}
{"rt": "13381.0", "trial_number": "0", "skipped": "False", "complete": "True", "assignment": "3VE8AYVF8N5BS2NU6U3TMN50JMNF8V", "start_time": "1.5167369103e+12", "human_length": "7", "nodes_expanded": "999", "instance": "prb2834", "end_time": "1.51673692368e+12", "optimal_length": "7", "subject": "A18QU0YQB6Q8DF"}
{"rt": "10324.0", "trial_number": "0", "skipped": "False", "complete": "True", "assignment": "3X87C8JFV7JQ2BSCY8KSFD9F2ILSQK", "start_time": "1.51674057893e+12", "human_length": "7", "nodes_expanded": "999", "instance": "prb2834", "end_time": "1.51674058925e+12", "optimal_length": "7", "subject": "A3Q0XAGQ7TD7MP"}
{"rt": "17372.0", "trial_number": "1", "skipped": "False", "complete": "True", "assignment": "3GLB5JMZFY3TNXFGYMKRQ0JDXNTDGZ", "start_time": "1.51794612249e+12", "human_length": "9", "nodes_expanded": "999", "instance": "prb2834", "end_time": "1.51794613987e+12", "optimal_length": "7", "subject": "A3Q0XAGQ7TD7MP"}
{"rt": "9896.0", "trial_number": "0", "skipped": "False", "complete": "True", "assignment": "3WSELTNVR4AZUVYAYCSWZIQW0J4ATB", "start_time": "1.5167396389e+12", "human_length": "10", "nodes_expanded": "999", "instance": "prb2834", "end_time": "1.51673964879e+12", "optimal_length": "7", "subject": "A2TQNX64349OZ9"}
{"rt": "28178.0", "trial_number": "0", "skipped": "False", "complete": "True", "assignment": "3X87C8JFV7JQ2BSCY8KSFD9F2ILSQK", "start_time": "1.51674784586e+12", "human_length": "20", "nodes_expanded": "999", "instance": "prb2834", "end_time": "1.51674787404e+12", "optimal_length": "7", "subject": "A21S7MA9DCW95E"}
{"rt": "16149.0", "trial_number": "0", "skipped": "False", "complete": "True", "assignment": "3V5Q80FXIYZ5QB5C6ITQBN30WY823U", "start_time": "1.51753323308e+12", "human_length": "9", "nodes_expanded": "999", "instance": "prb2834", "end_time": "1.51753324923e+12", "optimal_length": "7", "subject": "A3NMQ3019X6YE0"}
{"rt": "25746.0", "trial_number": "0", "skipped": "False", "complete": "True", "assignment": "3YW4XOSQKRTI0K0Z2YPDTDJVFABU1I", "start_time": "1.51682497759e+12", "human_length": "16", "nodes_expanded": "999", "instance": "prb2834", "end_time": "1.51682500334e+12", "optimal_length": "7", "subject": "A15781PHGW377Y"}
{"rt": "49387.0", "trial_number": "0", "skipped": "False", "complete": "True", "assignment": "3TS1AR6UQRM7SOIBWPBN8N9589Y7FV", "start_time": "1.51683765867e+12", "human_length": "36", "nodes_expanded": "999", "instance": "prb2834", "end_time": "1.51683770806e+12", "optimal_length": "7", "subject": "A1F4N58CAX8IMK"}
{"rt": "9723.0", "trial_number": "1", "skipped": "False", "complete": "True", "assignment": "35DR22AR5ES6RR89U7EJ1DXW91AX3P", "start_time": "1.51795442068e+12", "human_length": "12", "nodes_expanded": "999", "instance": "prb2834", "end_time": "1.51795443041e+12", "optimal_length": "7", "subject": "A1F4N58CAX8IMK"}
{"rt": "13805.0", "trial_number": "0", "skipped": "False", "complete": "True", "assignment": "31LM9EDVOM0C0BWUVMJXJINN3QPJNI", "start_time": "1.51752503732e+12", "human_length": "12", "nodes_expanded": "999", "instance": "prb2834", "end_time": "1.51752505113e+12", "optimal_length": "7", "subject": "A1NT8BT94ME6F5"}
{"rt": "11639.0", "trial_number": "0", "skipped": "False", "complete": "True", "assignment": "37TD41K0AIHM8AITTQJXV8KY05QCSB", "start_time": "1.51752420117e+12", "human_length": "7", "nodes_expanded": "999", "instance": "prb2834", "end_time": "1.51752421281e+12", "optimal_length": "7", "subject": "A30KYQGABO7JER"}
{"rt": "13740.0", "trial_number": "0", "skipped": "False", "complete": "True", "assignment": "3TYCR1GOTDRCCQYD1V64UK7OHTBZLQ", "start_time": "1.51753629341e+12", "human_length": "8", "nodes_expanded": "999", "instance": "prb2834", "end_time": "1.51753630715e+12", "optimal_length": "7", "subject": "A13BZCNJ0WR1T7"}
{"rt": "15906.0", "trial_number": "0", "skipped": "False", "complete": "True", "assignment": "3H0W84IWBLAP4T2UASPNVMF5ZH7ER9", "start_time": "1.51755244657e+12", "human_length": "12", "nodes_expanded": "999", "instance": "prb2834", "end_time": "1.51755246247e+12", "optimal_length": "7", "subject": "A1AKX1C8GCVCTP"}
{"rt": "7022.0", "trial_number": "0", "skipped": "False", "complete": "True", "assignment": "3TPWUS5F8A9FFRZ2DVTYSXNJ6BWWC6", "start_time": "1.51794206222e+12", "human_length": "7", "nodes_expanded": "999", "instance": "prb2834", "end_time": "1.51794206924e+12", "optimal_length": "7", "subject": "A3GXC3VG37CQ3G"}
{"rt": "12837.0", "trial_number": "0", "skipped": "False", "complete": "True", "assignment": "34HJIJKLP64Z5YMIU6IKNXSH7PDV4I", "start_time": "1.51794307324e+12", "human_length": "7", "nodes_expanded": "999", "instance": "prb2834", "end_time": "1.51794308608e+12", "optimal_length": "7", "subject": "A3CTXNQ2GXIQSP"}
{"rt": "5818.0", "trial_number": "0", "skipped": "False", "complete": "False", "assignment": "30IQTZXKALEAAZ9CBKW0ZFZP6O5X07", "start_time": "1.51794355629e+12", "human_length": "3", "nodes_expanded": "999", "instance": "prb2834", "end_time": "1.51794356211e+12", "optimal_length": "7", "subject": "A23XJ8I86R0O3B"}
{"rt": "12590.0", "trial_number": "1", "skipped": "False", "complete": "True", "assignment": "30IQTZXKALEAAZ9CBKW0ZFZP6O5X07", "start_time": "1.51794356708e+12", "human_length": "10", "nodes_expanded": "999", "instance": "prb2834", "end_time": "1.51794357967e+12", "optimal_length": "7", "subject": "A23XJ8I86R0O3B"}
{"rt": "14346.0", "trial_number": "0", "skipped": "False", "complete": "True", "assignment": "33PPO7FECWN7JOLBOAKUBCWTC0AIDL", "start_time": "1.51795106839e+12", "human_length": "9", "nodes_expanded": "999", "instance": "prb2834", "end_time": "1.51795108273e+12", "optimal_length": "7", "subject": "AXKM02NVXNGOM"}
{"rt": "0.0", "trial_number": "0", "skipped": "False", "complete": "False", "assignment": "3R5F3LQFV3SKIB1AENMWM1BICT5OZB", "start_time": "1.51795940201e+12", "human_length": "1", "nodes_expanded": "999", "instance": "prb2834", "end_time": "1.51795940201e+12", "optimal_length": "7", "subject": "A1N1EF0MIRSEZZ"}
{"rt": "21598.0", "trial_number": "1", "skipped": "False", "complete": "False", "assignment": "3R5F3LQFV3SKIB1AENMWM1BICT5OZB", "start_time": "1.51795940203e+12", "human_length": "7", "nodes_expanded": "999", "instance": "prb2834", "end_time": "1.51795942363e+12", "optimal_length": "7", "subject": "A1N1EF0MIRSEZZ"}
{"rt": "21683.0", "trial_number": "2", "skipped": "False", "complete": "True", "assignment": "3R5F3LQFV3SKIB1AENMWM1BICT5OZB", "start_time": "1.51795948497e+12", "human_length": "12", "nodes_expanded": "999", "instance": "prb2834", "end_time": "1.51795950665e+12", "optimal_length": "7", "subject": "A1N1EF0MIRSEZZ"}
{"rt": "12363.0", "trial_number": "0", "skipped": "False", "complete": "True", "assignment": "33F859I567LE8WC74WB3GA7E94XBHW", "start_time": "1.517970149e+12", "human_length": "12", "nodes_expanded": "999", "instance": "prb2834", "end_time": "1.51797016136e+12", "optimal_length": "7", "subject": "A1GQS6USF2JEYG"}
{"rt": "7127.0", "trial_number": "0", "skipped": "False", "complete": "True", "assignment": "3IJXV6UZ1YR1KY4G6BFEG1DXR47RIC", "start_time": "1.5179728852e+12", "human_length": "8", "nodes_expanded": "999", "instance": "prb2834", "end_time": "1.51797289232e+12", "optimal_length": "7", "subject": "A18T3WK7J16C1B"}
{"rt": "6800.0", "trial_number": "0", "skipped": "False", "complete": "True", "assignment": "3FTF2T8WLSQDHTSZ1BJ7Q7MB14SW9H", "start_time": "1.51813703765e+12", "human_length": "7", "nodes_expanded": "999", "instance": "prb2834", "end_time": "1.51813704445e+12", "optimal_length": "7", "subject": "A1IUH9D7N69VS"}
{"rt": "13304.0", "trial_number": "0", "skipped": "False", "complete": "True", "assignment": "3XC1O3LBOTUGQEPEV3HM8W67X4RTLL", "start_time": "1.5181391522e+12", "human_length": "7", "nodes_expanded": "999", "instance": "prb2834", "end_time": "1.51813916551e+12", "optimal_length": "7", "subject": "A1ZTSCPETU3UJW"}
{"rt": "8229.0", "trial_number": "0", "skipped": "False", "complete": "True", "assignment": "3TAYZSBPLMG9ASQRWXURJVBCPLN2SH", "start_time": "1.51813736094e+12", "human_length": "7", "nodes_expanded": "999", "instance": "prb2834", "end_time": "1.51813736917e+12", "optimal_length": "7", "subject": "A2RCYLKY072XXO"}
{"rt": "26277.0", "trial_number": "0", "skipped": "True", "complete": "False", "assignment": "3EO896NRAX3AVO1ESI59SHTFTF3JTQ", "start_time": "1.51814225887e+12", "human_length": "9", "nodes_expanded": "999", "instance": "prb2834", "end_time": "1.51814228515e+12", "optimal_length": "7", "subject": "A2KBZ75HMJ7KVX"}
{"rt": "12987.0", "trial_number": "0", "skipped": "False", "complete": "True", "assignment": "3ZSANO2JCGFTBM23KS9Y3E51YP4FSQ", "start_time": "1.51814300738e+12", "human_length": "10", "nodes_expanded": "999", "instance": "prb2834", "end_time": "1.51814302037e+12", "optimal_length": "7", "subject": "A1F42D4L22K5ND"}
{"rt": "9284.0", "trial_number": "0", "skipped": "False", "complete": "True", "assignment": "3XLBSAQ9Z5KDX59BX15UBFPNNHYZ7Q", "start_time": "1.51814526351e+12", "human_length": "7", "nodes_expanded": "999", "instance": "prb2834", "end_time": "1.51814527279e+12", "optimal_length": "7", "subject": "A1HFNOKU591WCY"}
{"rt": "36549.0", "trial_number": "0", "skipped": "False", "complete": "True", "assignment": "3M0BCWMB8W4W5M7WZVX3HDH1P53WB1", "start_time": "1.51816020158e+12", "human_length": "23", "nodes_expanded": "999", "instance": "prb2834", "end_time": "1.51816023813e+12", "optimal_length": "7", "subject": "A53S7J4JGWG38"}
{"rt": "5113.0", "trial_number": "0", "skipped": "False", "complete": "True", "assignment": "3IXEICO793RY7TM78ZBKJDOA7ADT6Q", "start_time": "1.51816821419e+12", "human_length": "7", "nodes_expanded": "999", "instance": "prb2834", "end_time": "1.51816821931e+12", "optimal_length": "7", "subject": "ALH1K6ZAQQMN7"}
