{"rt": "41454.0", "trial_number": "0", "skipped": "False", "complete": "True", "assignment": "3ZV9H2YQQEFR2R3JK2IXZUJPXAF3WW", "start_time": "1.51630753079e+12", "human_length": "7", "nodes_expanded": "999", "instance": "prb29232", "end_time": "1.51630757224e+12", "optimal_length": "7", "subject": "A289D98Z4GAZ28"}
{"rt": "10857.0", "trial_number": "0", "skipped": "False", "complete": "True", "assignment": "3ON104KXQL4CKNMNKGNG9ZBVBAB4WI", "start_time": "1.51631398679e+12", "human_length": "9", "nodes_expanded": "999", "instance": "prb29232", "end_time": "1.51631399764e+12", "optimal_length": "7", "subject": "A58QOLDFC179Q"}
{"rt": "13600.0", "trial_number": "0", "skipped": "False", "complete": "True", "assignment": "3PMBY0YE28B43VMUKKJ6EDF85RV9C8", "start_time": "1.51638701297e+12", "human_length": "14", "nodes_expanded": "999", "instance": "prb29232", "end_time": "1.51638702657e+12", "optimal_length": "7", "subject": "A191V7PT3DQKDP"}
{"rt": "5474.0", "trial_number": "0", "skipped": "False", "complete": "True", "assignment": "34BBWHLWHBJ6SUL255PK30LEGY5IWG", "start_time": "1.51639184698e+12", "human_length": "9", "nodes_expanded": "999", "instance": "prb29232", "end_time": "1.51639185246e+12", "optimal_length": "7", "subject": "A214HWAW1PYWO8"}
{"rt": "0.0", "trial_number": "0", "skipped": "False", "complete": "False", "assignment": "3VE8AYVF8N5BS2NU6U3TMN50JMNF8V", "start_time": "1.5167360106e+12", "human_length": "1", "nodes_expanded": "999", "instance": "prb29232", "end_time": "1.5167360106e+12", "optimal_length": "7", "subject": "A18QU0YQB6Q8DF"}
{"rt": "0.0", "trial_number": "1", "skipped": "False", "complete": "False", "assignment": "3VE8AYVF8N5BS2NU6U3TMN50JMNF8V", "start_time": "1.5167360106e+12", "human_length": "1", "nodes_expanded": "999", "instance": "prb29232", "end_time": "1.5167360106e+12", "optimal_length": "7", "subject": "A18QU0YQB6Q8DF"}
{"rt": "15259.0", "trial_number": "2", "skipped": "False", "complete": "True", "assignment": "3VE8AYVF8N5BS2NU6U3TMN50JMNF8V", "start_time": "1.5167360106e+12", "human_length": "9", "nodes_expanded": "999", "instance": "prb29232", "end_time": "1.51673602586e+12", "optimal_length": "7", "subject": "A18QU0YQB6Q8DF"}
{"rt": "0.0", "trial_number": "0", "skipped": "False", "complete": "False", "assignment": "3X87C8JFV7JQ2BSCY8KSFD9F2ILSQK", "start_time": "1.51673934394e+12", "human_length": "1", "nodes_expanded": "999", "instance": "prb29232", "end_time": "1.51673934394e+12", "optimal_length": "7", "subject": "A3Q0XAGQ7TD7MP"}
{"rt": "0.0", "trial_number": "1", "skipped": "False", "complete": "False", "assignment": "3X87C8JFV7JQ2BSCY8KSFD9F2ILSQK", "start_time": "1.51673934394e+12", "human_length": "1", "nodes_expanded": "999", "instance": "prb29232", "end_time": "1.51673934394e+12", "optimal_length": "7", "subject": "A3Q0XAGQ7TD7MP"}
{"rt": "19668.0", "trial_number": "2", "skipped": "False", "complete": "True", "assignment": "3X87C8JFV7JQ2BSCY8KSFD9F2ILSQK", "start_time": "1.51673934394e+12", "human_length": "7", "nodes_expanded": "999", "instance": "prb29232", "end_time": "1.51673936361e+12", "optimal_length": "7", "subject": "A3Q0XAGQ7TD7MP"}
{"rt": "22865.0", "trial_number": "3", "skipped": "False", "complete": "True", "assignment": "3GLB5JMZFY3TNXFGYMKRQ0JDXNTDGZ", "start_time": "1.51794799954e+12", "human_length": "7", "nodes_expanded": "999", "instance": "prb29232", "end_time": "1.5179480224e+12", "optimal_length": "7", "subject": "A3Q0XAGQ7TD7MP"}
{"rt": "0.0", "trial_number": "0", "skipped": "False", "complete": "False", "assignment": "3WSELTNVR4AZUVYAYCSWZIQW0J4ATB", "start_time": "1.51673874332e+12", "human_length": "1", "nodes_expanded": "999", "instance": "prb29232", "end_time": "1.51673874332e+12", "optimal_length": "7", "subject": "A2TQNX64349OZ9"}
{"rt": "0.0", "trial_number": "1", "skipped": "False", "complete": "False", "assignment": "3WSELTNVR4AZUVYAYCSWZIQW0J4ATB", "start_time": "1.51673874332e+12", "human_length": "1", "nodes_expanded": "999", "instance": "prb29232", "end_time": "1.51673874332e+12", "optimal_length": "7", "subject": "A2TQNX64349OZ9"}
{"rt": "19118.0", "trial_number": "2", "skipped": "False", "complete": "True", "assignment": "3WSELTNVR4AZUVYAYCSWZIQW0J4ATB", "start_time": "1.51673874332e+12", "human_length": "18", "nodes_expanded": "999", "instance": "prb29232", "end_time": "1.51673876244e+12", "optimal_length": "7", "subject": "A2TQNX64349OZ9"}
{"rt": "0.0", "trial_number": "0", "skipped": "False", "complete": "False", "assignment": "3X87C8JFV7JQ2BSCY8KSFD9F2ILSQK", "start_time": "1.51674540488e+12", "human_length": "1", "nodes_expanded": "999", "instance": "prb29232", "end_time": "1.51674540488e+12", "optimal_length": "7", "subject": "A21S7MA9DCW95E"}
{"rt": "0.0", "trial_number": "1", "skipped": "False", "complete": "False", "assignment": "3X87C8JFV7JQ2BSCY8KSFD9F2ILSQK", "start_time": "1.51674540488e+12", "human_length": "1", "nodes_expanded": "999", "instance": "prb29232", "end_time": "1.51674540488e+12", "optimal_length": "7", "subject": "A21S7MA9DCW95E"}
{"rt": "12337.0", "trial_number": "2", "skipped": "False", "complete": "True", "assignment": "3X87C8JFV7JQ2BSCY8KSFD9F2ILSQK", "start_time": "1.51674540488e+12", "human_length": "9", "nodes_expanded": "999", "instance": "prb29232", "end_time": "1.51674541722e+12", "optimal_length": "7", "subject": "A21S7MA9DCW95E"}
{"rt": "14885.0", "trial_number": "0", "skipped": "False", "complete": "True", "assignment": "3V5Q80FXIYZ5QB5C6ITQBN30WY823U", "start_time": "1.51753466494e+12", "human_length": "7", "nodes_expanded": "999", "instance": "prb29232", "end_time": "1.51753467983e+12", "optimal_length": "7", "subject": "A3NMQ3019X6YE0"}
{"rt": "0.0", "trial_number": "0", "skipped": "False", "complete": "False", "assignment": "3X4MXAO0BHWJLTOLVSJTHSM54OHWRG", "start_time": "1.51682516726e+12", "human_length": "1", "nodes_expanded": "999", "instance": "prb29232", "end_time": "1.51682516726e+12", "optimal_length": "7", "subject": "A2IBQA01NR5N76"}
{"rt": "12432.0", "trial_number": "1", "skipped": "False", "complete": "True", "assignment": "3X4MXAO0BHWJLTOLVSJTHSM54OHWRG", "start_time": "1.51682516726e+12", "human_length": "12", "nodes_expanded": "999", "instance": "prb29232", "end_time": "1.51682517969e+12", "optimal_length": "7", "subject": "A2IBQA01NR5N76"}
{"rt": "0.0", "trial_number": "0", "skipped": "False", "complete": "False", "assignment": "3IHR8NYAM89M0EPM8U9LH53ZJDTP4U", "start_time": "1.51682604919e+12", "human_length": "1", "nodes_expanded": "999", "instance": "prb29232", "end_time": "1.51682604919e+12", "optimal_length": "7", "subject": "A23437BMZ5T1FH"}
{"rt": "10422.0", "trial_number": "1", "skipped": "False", "complete": "True", "assignment": "3IHR8NYAM89M0EPM8U9LH53ZJDTP4U", "start_time": "1.51682604919e+12", "human_length": "9", "nodes_expanded": "999", "instance": "prb29232", "end_time": "1.51682605961e+12", "optimal_length": "7", "subject": "A23437BMZ5T1FH"}
{"rt": "0.0", "trial_number": "0", "skipped": "False", "complete": "False", "assignment": "37WLF8U1WQYZ4AWKEQXSIM1ELVEK6W", "start_time": "1.51683137654e+12", "human_length": "1", "nodes_expanded": "999", "instance": "prb29232", "end_time": "1.51683137654e+12", "optimal_length": "7", "subject": "A2EPBSY0VPI38S"}
{"rt": "29332.0", "trial_number": "1", "skipped": "False", "complete": "True", "assignment": "37WLF8U1WQYZ4AWKEQXSIM1ELVEK6W", "start_time": "1.51683137654e+12", "human_length": "18", "nodes_expanded": "999", "instance": "prb29232", "end_time": "1.51683140588e+12", "optimal_length": "7", "subject": "A2EPBSY0VPI38S"}
{"rt": "13494.0", "trial_number": "0", "skipped": "False", "complete": "True", "assignment": "3YW4XOSQKRTI0K0Z2YPDTDJVFABU1I", "start_time": "1.51683285655e+12", "human_length": "16", "nodes_expanded": "999", "instance": "prb29232", "end_time": "1.51683287005e+12", "optimal_length": "7", "subject": "A1LR0VQIHQUJAM"}
{"rt": "15259.0", "trial_number": "0", "skipped": "False", "complete": "True", "assignment": "3VE8AYVF8N5BS2NU6U3TMN50JMNF8V", "start_time": "1.5167360106e+12", "human_length": "9", "nodes_expanded": "999", "instance": "prb29232", "end_time": "1.51673602586e+12", "optimal_length": "7", "subject": "A18QU0YQB6Q8DF"}
{"rt": "19668.0", "trial_number": "0", "skipped": "False", "complete": "True", "assignment": "3X87C8JFV7JQ2BSCY8KSFD9F2ILSQK", "start_time": "1.51673934394e+12", "human_length": "7", "nodes_expanded": "999", "instance": "prb29232", "end_time": "1.51673936361e+12", "optimal_length": "7", "subject": "A3Q0XAGQ7TD7MP"}
{"rt": "22865.0", "trial_number": "1", "skipped": "False", "complete": "True", "assignment": "3GLB5JMZFY3TNXFGYMKRQ0JDXNTDGZ", "start_time": "1.51794799954e+12", "human_length": "7", "nodes_expanded": "999", "instance": "prb29232", "end_time": "1.5179480224e+12", "optimal_length": "7", "subject": "A3Q0XAGQ7TD7MP"}
{"rt": "19118.0", "trial_number": "0", "skipped": "False", "complete": "True", "assignment": "3WSELTNVR4AZUVYAYCSWZIQW0J4ATB", "start_time": "1.51673874332e+12", "human_length": "18", "nodes_expanded": "999", "instance": "prb29232", "end_time": "1.51673876244e+12", "optimal_length": "7", "subject": "A2TQNX64349OZ9"}
{"rt": "12337.0", "trial_number": "0", "skipped": "False", "complete": "True", "assignment": "3X87C8JFV7JQ2BSCY8KSFD9F2ILSQK", "start_time": "1.51674540488e+12", "human_length": "9", "nodes_expanded": "999", "instance": "prb29232", "end_time": "1.51674541722e+12", "optimal_length": "7", "subject": "A21S7MA9DCW95E"}
{"rt": "14885.0", "trial_number": "0", "skipped": "False", "complete": "True", "assignment": "3V5Q80FXIYZ5QB5C6ITQBN30WY823U", "start_time": "1.51753466494e+12", "human_length": "7", "nodes_expanded": "999", "instance": "prb29232", "end_time": "1.51753467983e+12", "optimal_length": "7", "subject": "A3NMQ3019X6YE0"}
{"rt": "13551.0", "trial_number": "0", "skipped": "False", "complete": "True", "assignment": "3TS1AR6UQRM7SOIBWPBN8N9589Y7FV", "start_time": "1.51683928683e+12", "human_length": "15", "nodes_expanded": "999", "instance": "prb29232", "end_time": "1.51683930038e+12", "optimal_length": "7", "subject": "A1F4N58CAX8IMK"}
{"rt": "13637.0", "trial_number": "1", "skipped": "False", "complete": "True", "assignment": "35DR22AR5ES6RR89U7EJ1DXW91AX3P", "start_time": "1.51795337799e+12", "human_length": "15", "nodes_expanded": "999", "instance": "prb29232", "end_time": "1.51795339163e+12", "optimal_length": "7", "subject": "A1F4N58CAX8IMK"}
{"rt": "27901.0", "trial_number": "0", "skipped": "True", "complete": "False", "assignment": "31LM9EDVOM0C0BWUVMJXJINN3QPJNI", "start_time": "1.51752386949e+12", "human_length": "21", "nodes_expanded": "999", "instance": "prb29232", "end_time": "1.51752389739e+12", "optimal_length": "7", "subject": "A1NT8BT94ME6F5"}
{"rt": "12775.0", "trial_number": "0", "skipped": "False", "complete": "True", "assignment": "37TD41K0AIHM8AITTQJXV8KY05QCSB", "start_time": "1.5175245197e+12", "human_length": "7", "nodes_expanded": "999", "instance": "prb29232", "end_time": "1.51752453248e+12", "optimal_length": "7", "subject": "A30KYQGABO7JER"}
{"rt": "15345.0", "trial_number": "0", "skipped": "False", "complete": "True", "assignment": "36H9ULYP6320CJJDXY0KBDEE1Z3JFB", "start_time": "1.5175324255e+12", "human_length": "8", "nodes_expanded": "999", "instance": "prb29232", "end_time": "1.51753244084e+12", "optimal_length": "7", "subject": "AN098C29EGJ6"}
{"rt": "24044.0", "trial_number": "0", "skipped": "False", "complete": "True", "assignment": "3TYCR1GOTDRCCQYD1V64UK7OHTBZLQ", "start_time": "1.51753585091e+12", "human_length": "14", "nodes_expanded": "999", "instance": "prb29232", "end_time": "1.51753587496e+12", "optimal_length": "7", "subject": "A13BZCNJ0WR1T7"}
{"rt": "18355.0", "trial_number": "0", "skipped": "False", "complete": "True", "assignment": "3TPWUS5F8A9FFRZ2DVTYSXNJ6BWWC6", "start_time": "1.51793967561e+12", "human_length": "11", "nodes_expanded": "999", "instance": "prb29232", "end_time": "1.51793969397e+12", "optimal_length": "7", "subject": "A3GXC3VG37CQ3G"}
{"rt": "22873.0", "trial_number": "0", "skipped": "False", "complete": "True", "assignment": "3IAS3U3I0GOAT69PLB8WT61CKJ22BO", "start_time": "1.51793964913e+12", "human_length": "7", "nodes_expanded": "999", "instance": "prb29232", "end_time": "1.517939672e+12", "optimal_length": "7", "subject": "A2C84POENS2UNY"}
{"rt": "9040.0", "trial_number": "0", "skipped": "False", "complete": "True", "assignment": "34HJIJKLP64Z5YMIU6IKNXSH7PDV4I", "start_time": "1.51794190767e+12", "human_length": "7", "nodes_expanded": "999", "instance": "prb29232", "end_time": "1.51794191671e+12", "optimal_length": "7", "subject": "A3CTXNQ2GXIQSP"}
{"rt": "16178.0", "trial_number": "0", "skipped": "False", "complete": "True", "assignment": "33PPO7FECWN7JOLBOAKUBCWTC0AIDL", "start_time": "1.51794140645e+12", "human_length": "7", "nodes_expanded": "999", "instance": "prb29232", "end_time": "1.51794142263e+12", "optimal_length": "7", "subject": "AB5IVPS4OP9M8"}
{"rt": "7066.0", "trial_number": "0", "skipped": "False", "complete": "True", "assignment": "3STRJBFXOXZ5687WA35LTWTS7QZKTT", "start_time": "1.51794334146e+12", "human_length": "7", "nodes_expanded": "999", "instance": "prb29232", "end_time": "1.51794334853e+12", "optimal_length": "7", "subject": "A3OB6REG5CGHK1"}
{"rt": "21905.0", "trial_number": "0", "skipped": "False", "complete": "True", "assignment": "33PPO7FECWN7JOLBOAKUBCWTC0AIDL", "start_time": "1.51795108466e+12", "human_length": "7", "nodes_expanded": "999", "instance": "prb29232", "end_time": "1.51795110657e+12", "optimal_length": "7", "subject": "AXKM02NVXNGOM"}
{"rt": "13594.0", "trial_number": "0", "skipped": "False", "complete": "True", "assignment": "3PB5A5BD0WED6OE679H5Q89HBDGG71", "start_time": "1.51795081129e+12", "human_length": "13", "nodes_expanded": "999", "instance": "prb29232", "end_time": "1.51795082489e+12", "optimal_length": "7", "subject": "A1USR9JCAMDGM3"}
{"rt": "21098.0", "trial_number": "0", "skipped": "False", "complete": "True", "assignment": "33F859I567LE8WC74WB3GA7E94XBHW", "start_time": "1.51796789499e+12", "human_length": "15", "nodes_expanded": "999", "instance": "prb29232", "end_time": "1.51796791609e+12", "optimal_length": "7", "subject": "A1GQS6USF2JEYG"}
{"rt": "9250.0", "trial_number": "0", "skipped": "False", "complete": "True", "assignment": "3FTF2T8WLSQDHTSZ1BJ7Q7MB14SW9H", "start_time": "1.51813720982e+12", "human_length": "9", "nodes_expanded": "999", "instance": "prb29232", "end_time": "1.51813721907e+12", "optimal_length": "7", "subject": "A1IUH9D7N69VS"}
{"rt": "10345.0", "trial_number": "0", "skipped": "False", "complete": "True", "assignment": "3XC1O3LBOTUGQEPEV3HM8W67X4RTLL", "start_time": "1.51813620337e+12", "human_length": "7", "nodes_expanded": "999", "instance": "prb29232", "end_time": "1.51813621371e+12", "optimal_length": "7", "subject": "A1ZTSCPETU3UJW"}
{"rt": "13643.0", "trial_number": "0", "skipped": "False", "complete": "True", "assignment": "3TAYZSBPLMG9ASQRWXURJVBCPLN2SH", "start_time": "1.51813801753e+12", "human_length": "9", "nodes_expanded": "999", "instance": "prb29232", "end_time": "1.51813803117e+12", "optimal_length": "7", "subject": "A2RCYLKY072XXO"}
{"rt": "23821.0", "trial_number": "0", "skipped": "False", "complete": "True", "assignment": "3ZSANO2JCGFTBM23KS9Y3E51YP4FSQ", "start_time": "1.51814296149e+12", "human_length": "25", "nodes_expanded": "999", "instance": "prb29232", "end_time": "1.51814298531e+12", "optimal_length": "7", "subject": "A1F42D4L22K5ND"}
{"rt": "11682.0", "trial_number": "0", "skipped": "False", "complete": "True", "assignment": "3VE8AYVF8N5BS2NU6U3TMN50MV38FP", "start_time": "1.51814394942e+12", "human_length": "9", "nodes_expanded": "999", "instance": "prb29232", "end_time": "1.5181439611e+12", "optimal_length": "7", "subject": "A1JN13098RIE78"}
{"rt": "22429.0", "trial_number": "0", "skipped": "False", "complete": "True", "assignment": "3TMFV4NEP9MD3O9PWJDTQBR0HZYW8I", "start_time": "1.51814446042e+12", "human_length": "10", "nodes_expanded": "999", "instance": "prb29232", "end_time": "1.51814448284e+12", "optimal_length": "7", "subject": "A3GOOI75XOF24V"}
{"rt": "8161.0", "trial_number": "0", "skipped": "False", "complete": "True", "assignment": "3XLBSAQ9Z5KDX59BX15UBFPNNHYZ7Q", "start_time": "1.51814629406e+12", "human_length": "7", "nodes_expanded": "999", "instance": "prb29232", "end_time": "1.51814630222e+12", "optimal_length": "7", "subject": "A1HFNOKU591WCY"}
{"rt": "33612.0", "trial_number": "0", "skipped": "False", "complete": "True", "assignment": "3RUIQRXJBCWS71H9MUFVM5WQ3SCLLJ", "start_time": "1.5181562857e+12", "human_length": "20", "nodes_expanded": "999", "instance": "prb29232", "end_time": "1.51815631931e+12", "optimal_length": "7", "subject": "A1SJRFJWFXSDH4"}
{"rt": "11659.0", "trial_number": "0", "skipped": "False", "complete": "True", "assignment": "3M0BCWMB8W4W5M7WZVX3HDH1P53WB1", "start_time": "1.5181609116e+12", "human_length": "7", "nodes_expanded": "999", "instance": "prb29232", "end_time": "1.51816092326e+12", "optimal_length": "7", "subject": "A53S7J4JGWG38"}
{"rt": "34405.0", "trial_number": "0", "skipped": "False", "complete": "True", "assignment": "3SITXWYCNWHBUMCM90TPJWV8Y7AXBW", "start_time": "1.5181664171e+12", "human_length": "22", "nodes_expanded": "999", "instance": "prb29232", "end_time": "1.51816645151e+12", "optimal_length": "7", "subject": "A28RX7L0QZ993M"}
{"rt": "12867.0", "trial_number": "0", "skipped": "False", "complete": "True", "assignment": "3IXEICO793RY7TM78ZBKJDOA7ADT6Q", "start_time": "1.5181673023e+12", "human_length": "13", "nodes_expanded": "999", "instance": "prb29232", "end_time": "1.51816731517e+12", "optimal_length": "7", "subject": "ALH1K6ZAQQMN7"}
