{"rt": "12784.0", "trial_number": "0", "skipped": "False", "complete": "True", "assignment": "3AZHRG4CU5SYU12YRVPCSZALW5003R", "start_time": "1.5163078403e+12", "human_length": "16", "nodes_expanded": "999", "instance": "prb28111", "end_time": "1.51630785308e+12", "optimal_length": "7", "subject": "ARWF605I7RWM7"}
{"rt": "7893.0", "trial_number": "0", "skipped": "False", "complete": "True", "assignment": "3PMBY0YE28B43VMUKKJ6EDF85RV9C8", "start_time": "1.51638690726e+12", "human_length": "7", "nodes_expanded": "999", "instance": "prb28111", "end_time": "1.51638691515e+12", "optimal_length": "7", "subject": "A191V7PT3DQKDP"}
{"rt": "7379.0", "trial_number": "0", "skipped": "False", "complete": "True", "assignment": "34BBWHLWHBJ6SUL255PK30LEGY5IWG", "start_time": "1.5163930674e+12", "human_length": "8", "nodes_expanded": "999", "instance": "prb28111", "end_time": "1.51639307477e+12", "optimal_length": "7", "subject": "A214HWAW1PYWO8"}
{"rt": "0.0", "trial_number": "0", "skipped": "False", "complete": "False", "assignment": "3VE8AYVF8N5BS2NU6U3TMN50JMNF8V", "start_time": "1.5167366449e+12", "human_length": "1", "nodes_expanded": "999", "instance": "prb28111", "end_time": "1.5167366449e+12", "optimal_length": "7", "subject": "A18QU0YQB6Q8DF"}
{"rt": "0.0", "trial_number": "1", "skipped": "False", "complete": "False", "assignment": "3VE8AYVF8N5BS2NU6U3TMN50JMNF8V", "start_time": "1.5167366449e+12", "human_length": "1", "nodes_expanded": "999", "instance": "prb28111", "end_time": "1.5167366449e+12", "optimal_length": "7", "subject": "A18QU0YQB6Q8DF"}
{"rt": "60754.0", "trial_number": "2", "skipped": "False", "complete": "True", "assignment": "3VE8AYVF8N5BS2NU6U3TMN50JMNF8V", "start_time": "1.5167366449e+12", "human_length": "15", "nodes_expanded": "999", "instance": "prb28111", "end_time": "1.51673670566e+12", "optimal_length": "7", "subject": "A18QU0YQB6Q8DF"}
{"rt": "0.0", "trial_number": "0", "skipped": "False", "complete": "False", "assignment": "3X87C8JFV7JQ2BSCY8KSFD9F2ILSQK", "start_time": "1.51673904325e+12", "human_length": "1", "nodes_expanded": "999", "instance": "prb28111", "end_time": "1.51673904325e+12", "optimal_length": "7", "subject": "A3Q0XAGQ7TD7MP"}
{"rt": "0.0", "trial_number": "1", "skipped": "False", "complete": "False", "assignment": "3X87C8JFV7JQ2BSCY8KSFD9F2ILSQK", "start_time": "1.51673904325e+12", "human_length": "1", "nodes_expanded": "999", "instance": "prb28111", "end_time": "1.51673904325e+12", "optimal_length": "7", "subject": "A3Q0XAGQ7TD7MP"}
{"rt": "8765.0", "trial_number": "2", "skipped": "False", "complete": "True", "assignment": "3X87C8JFV7JQ2BSCY8KSFD9F2ILSQK", "start_time": "1.51673904325e+12", "human_length": "7", "nodes_expanded": "999", "instance": "prb28111", "end_time": "1.51673905202e+12", "optimal_length": "7", "subject": "A3Q0XAGQ7TD7MP"}
{"rt": "16719.0", "trial_number": "3", "skipped": "False", "complete": "True", "assignment": "3GLB5JMZFY3TNXFGYMKRQ0JDXNTDGZ", "start_time": "1.51794648592e+12", "human_length": "8", "nodes_expanded": "999", "instance": "prb28111", "end_time": "1.51794650264e+12", "optimal_length": "7", "subject": "A3Q0XAGQ7TD7MP"}
{"rt": "0.0", "trial_number": "0", "skipped": "False", "complete": "False", "assignment": "3WSELTNVR4AZUVYAYCSWZIQW0J4ATB", "start_time": "1.51673888995e+12", "human_length": "1", "nodes_expanded": "999", "instance": "prb28111", "end_time": "1.51673888995e+12", "optimal_length": "7", "subject": "A2TQNX64349OZ9"}
{"rt": "0.0", "trial_number": "1", "skipped": "False", "complete": "False", "assignment": "3WSELTNVR4AZUVYAYCSWZIQW0J4ATB", "start_time": "1.51673888995e+12", "human_length": "1", "nodes_expanded": "999", "instance": "prb28111", "end_time": "1.51673888995e+12", "optimal_length": "7", "subject": "A2TQNX64349OZ9"}
{"rt": "9539.0", "trial_number": "2", "skipped": "False", "complete": "True", "assignment": "3WSELTNVR4AZUVYAYCSWZIQW0J4ATB", "start_time": "1.51673888995e+12", "human_length": "8", "nodes_expanded": "999", "instance": "prb28111", "end_time": "1.51673889949e+12", "optimal_length": "7", "subject": "A2TQNX64349OZ9"}
{"rt": "0.0", "trial_number": "0", "skipped": "False", "complete": "False", "assignment": "3X4MXAO0BHWJLTOLVSJTHSM54OHWRG", "start_time": "1.51682397483e+12", "human_length": "1", "nodes_expanded": "999", "instance": "prb28111", "end_time": "1.51682397483e+12", "optimal_length": "7", "subject": "A2IBQA01NR5N76"}
{"rt": "18915.0", "trial_number": "1", "skipped": "False", "complete": "True", "assignment": "3X4MXAO0BHWJLTOLVSJTHSM54OHWRG", "start_time": "1.51682397483e+12", "human_length": "12", "nodes_expanded": "999", "instance": "prb28111", "end_time": "1.51682399374e+12", "optimal_length": "7", "subject": "A2IBQA01NR5N76"}
{"rt": "18915.0", "trial_number": "0", "skipped": "False", "complete": "True", "assignment": "3X4MXAO0BHWJLTOLVSJTHSM54OHWRG", "start_time": "1.51682397483e+12", "human_length": "12", "nodes_expanded": "999", "instance": "prb28111", "end_time": "1.51682399374e+12", "optimal_length": "7", "subject": "A2IBQA01NR5N76"}
{"rt": "0.0", "trial_number": "0", "skipped": "False", "complete": "False", "assignment": "3IHR8NYAM89M0EPM8U9LH53ZJDTP4U", "start_time": "1.51682749527e+12", "human_length": "1", "nodes_expanded": "999", "instance": "prb28111", "end_time": "1.51682749527e+12", "optimal_length": "7", "subject": "A23437BMZ5T1FH"}
{"rt": "13057.0", "trial_number": "1", "skipped": "False", "complete": "True", "assignment": "3IHR8NYAM89M0EPM8U9LH53ZJDTP4U", "start_time": "1.51682749527e+12", "human_length": "10", "nodes_expanded": "999", "instance": "prb28111", "end_time": "1.51682750832e+12", "optimal_length": "7", "subject": "A23437BMZ5T1FH"}
{"rt": "0.0", "trial_number": "0", "skipped": "False", "complete": "False", "assignment": "3YW4XOSQKRTI0K0Z2YPDTDJVFABU1I", "start_time": "1.51683075995e+12", "human_length": "1", "nodes_expanded": "999", "instance": "prb28111", "end_time": "1.51683075995e+12", "optimal_length": "7", "subject": "A1LR0VQIHQUJAM"}
{"rt": "9452.0", "trial_number": "1", "skipped": "False", "complete": "True", "assignment": "3YW4XOSQKRTI0K0Z2YPDTDJVFABU1I", "start_time": "1.51683075995e+12", "human_length": "7", "nodes_expanded": "999", "instance": "prb28111", "end_time": "1.5168307694e+12", "optimal_length": "7", "subject": "A1LR0VQIHQUJAM"}
{"rt": "60754.0", "trial_number": "0", "skipped": "False", "complete": "True", "assignment": "3VE8AYVF8N5BS2NU6U3TMN50JMNF8V", "start_time": "1.5167366449e+12", "human_length": "15", "nodes_expanded": "999", "instance": "prb28111", "end_time": "1.51673670566e+12", "optimal_length": "7", "subject": "A18QU0YQB6Q8DF"}
{"rt": "8765.0", "trial_number": "0", "skipped": "False", "complete": "True", "assignment": "3X87C8JFV7JQ2BSCY8KSFD9F2ILSQK", "start_time": "1.51673904325e+12", "human_length": "7", "nodes_expanded": "999", "instance": "prb28111", "end_time": "1.51673905202e+12", "optimal_length": "7", "subject": "A3Q0XAGQ7TD7MP"}
{"rt": "16719.0", "trial_number": "1", "skipped": "False", "complete": "True", "assignment": "3GLB5JMZFY3TNXFGYMKRQ0JDXNTDGZ", "start_time": "1.51794648592e+12", "human_length": "8", "nodes_expanded": "999", "instance": "prb28111", "end_time": "1.51794650264e+12", "optimal_length": "7", "subject": "A3Q0XAGQ7TD7MP"}
{"rt": "9539.0", "trial_number": "0", "skipped": "False", "complete": "True", "assignment": "3WSELTNVR4AZUVYAYCSWZIQW0J4ATB", "start_time": "1.51673888995e+12", "human_length": "8", "nodes_expanded": "999", "instance": "prb28111", "end_time": "1.51673889949e+12", "optimal_length": "7", "subject": "A2TQNX64349OZ9"}
{"rt": "13467.0", "trial_number": "0", "skipped": "False", "complete": "True", "assignment": "3TS1AR6UQRM7SOIBWPBN8N9589Y7FV", "start_time": "1.51683771828e+12", "human_length": "8", "nodes_expanded": "999", "instance": "prb28111", "end_time": "1.51683773174e+12", "optimal_length": "7", "subject": "A1F4N58CAX8IMK"}
{"rt": "19615.0", "trial_number": "1", "skipped": "False", "complete": "True", "assignment": "35DR22AR5ES6RR89U7EJ1DXW91AX3P", "start_time": "1.51795444338e+12", "human_length": "20", "nodes_expanded": "999", "instance": "prb28111", "end_time": "1.517954463e+12", "optimal_length": "7", "subject": "A1F4N58CAX8IMK"}
{"rt": "39869.0", "trial_number": "0", "skipped": "False", "complete": "True", "assignment": "3TS1AR6UQRM7SOIBWPBN8N9589Y7FV", "start_time": "1.51684295514e+12", "human_length": "7", "nodes_expanded": "999", "instance": "prb28111", "end_time": "1.516842995e+12", "optimal_length": "7", "subject": "A15FXHC1CVNW31"}
{"rt": "18927.0", "trial_number": "0", "skipped": "False", "complete": "True", "assignment": "31LM9EDVOM0C0BWUVMJXJINN3QPJNI", "start_time": "1.51752328993e+12", "human_length": "10", "nodes_expanded": "999", "instance": "prb28111", "end_time": "1.51752330886e+12", "optimal_length": "7", "subject": "A1NT8BT94ME6F5"}
{"rt": "15203.0", "trial_number": "0", "skipped": "False", "complete": "True", "assignment": "37TD41K0AIHM8AITTQJXV8KY05QCSB", "start_time": "1.51752372708e+12", "human_length": "7", "nodes_expanded": "999", "instance": "prb28111", "end_time": "1.51752374228e+12", "optimal_length": "7", "subject": "A30KYQGABO7JER"}
{"rt": "20225.0", "trial_number": "0", "skipped": "False", "complete": "True", "assignment": "3TYCR1GOTDRCCQYD1V64UK7OHTBZLQ", "start_time": "1.51753545754e+12", "human_length": "10", "nodes_expanded": "999", "instance": "prb28111", "end_time": "1.51753547776e+12", "optimal_length": "7", "subject": "A13BZCNJ0WR1T7"}
{"rt": "16003.0", "trial_number": "0", "skipped": "False", "complete": "True", "assignment": "3H0W84IWBLAP4T2UASPNVMF5ZH7ER9", "start_time": "1.51755313364e+12", "human_length": "7", "nodes_expanded": "999", "instance": "prb28111", "end_time": "1.51755314964e+12", "optimal_length": "7", "subject": "A1AKX1C8GCVCTP"}
{"rt": "10020.0", "trial_number": "0", "skipped": "False", "complete": "True", "assignment": "3TPWUS5F8A9FFRZ2DVTYSXNJ6BWWC6", "start_time": "1.51794056037e+12", "human_length": "8", "nodes_expanded": "999", "instance": "prb28111", "end_time": "1.51794057039e+12", "optimal_length": "7", "subject": "A3GXC3VG37CQ3G"}
{"rt": "16662.0", "trial_number": "0", "skipped": "False", "complete": "True", "assignment": "34HJIJKLP64Z5YMIU6IKNXSH7PDV4I", "start_time": "1.51794021427e+12", "human_length": "8", "nodes_expanded": "999", "instance": "prb28111", "end_time": "1.51794023093e+12", "optimal_length": "7", "subject": "A3CTXNQ2GXIQSP"}
{"rt": "22442.0", "trial_number": "0", "skipped": "False", "complete": "True", "assignment": "30IQTZXKALEAAZ9CBKW0ZFZP6O5X07", "start_time": "1.51794569547e+12", "human_length": "14", "nodes_expanded": "999", "instance": "prb28111", "end_time": "1.51794571792e+12", "optimal_length": "7", "subject": "A23XJ8I86R0O3B"}
{"rt": "14823.0", "trial_number": "0", "skipped": "False", "complete": "True", "assignment": "3STRJBFXOXZ5687WA35LTWTS7QZKTT", "start_time": "1.51794399347e+12", "human_length": "11", "nodes_expanded": "999", "instance": "prb28111", "end_time": "1.51794400829e+12", "optimal_length": "7", "subject": "A3OB6REG5CGHK1"}
{"rt": "13015.0", "trial_number": "0", "skipped": "False", "complete": "True", "assignment": "3JCG6DTRV4YEPVDZ64VNKDUEMPGQQ1", "start_time": "1.51794618863e+12", "human_length": "7", "nodes_expanded": "999", "instance": "prb28111", "end_time": "1.51794620164e+12", "optimal_length": "7", "subject": "A2V7KYLBCBTI3B"}
{"rt": "12809.0", "trial_number": "0", "skipped": "False", "complete": "True", "assignment": "33PPO7FECWN7JOLBOAKUBCWTC0AIDL", "start_time": "1.51795103921e+12", "human_length": "8", "nodes_expanded": "999", "instance": "prb28111", "end_time": "1.51795105202e+12", "optimal_length": "7", "subject": "AXKM02NVXNGOM"}
{"rt": "12804.0", "trial_number": "0", "skipped": "False", "complete": "True", "assignment": "3R5F3LQFV3SKIB1AENMWM1BICT5OZB", "start_time": "1.51795962406e+12", "human_length": "7", "nodes_expanded": "999", "instance": "prb28111", "end_time": "1.51795963687e+12", "optimal_length": "7", "subject": "A1N1EF0MIRSEZZ"}
{"rt": "18441.0", "trial_number": "0", "skipped": "False", "complete": "True", "assignment": "33F859I567LE8WC74WB3GA7E94XBHW", "start_time": "1.51796959239e+12", "human_length": "16", "nodes_expanded": "999", "instance": "prb28111", "end_time": "1.51796961083e+12", "optimal_length": "7", "subject": "A1GQS6USF2JEYG"}
{"rt": "0.0", "trial_number": "0", "skipped": "False", "complete": "False", "assignment": "3IJXV6UZ1YR1KY4G6BFEG1DXR47RIC", "start_time": "1.51797548347e+12", "human_length": "1", "nodes_expanded": "999", "instance": "prb28111", "end_time": "1.51797548347e+12", "optimal_length": "7", "subject": "A18T3WK7J16C1B"}
{"rt": "0.0", "trial_number": "1", "skipped": "False", "complete": "False", "assignment": "3IJXV6UZ1YR1KY4G6BFEG1DXR47RIC", "start_time": "1.51797548566e+12", "human_length": "1", "nodes_expanded": "999", "instance": "prb28111", "end_time": "1.51797548566e+12", "optimal_length": "7", "subject": "A18T3WK7J16C1B"}
{"rt": "3444.0", "trial_number": "2", "skipped": "False", "complete": "False", "assignment": "3IJXV6UZ1YR1KY4G6BFEG1DXR47RIC", "start_time": "1.51797548576e+12", "human_length": "2", "nodes_expanded": "999", "instance": "prb28111", "end_time": "1.51797548920e+12", "optimal_length": "7", "subject": "A18T3WK7J16C1B"}
{"rt": "24554.0", "trial_number": "3", "skipped": "False", "complete": "True", "assignment": "3IJXV6UZ1YR1KY4G6BFEG1DXR47RIC", "start_time": "1.51797549074e+12", "human_length": "21", "nodes_expanded": "999", "instance": "prb28111", "end_time": "1.51797551529e+12", "optimal_length": "7", "subject": "A18T3WK7J16C1B"}
{"rt": "8517.0", "trial_number": "0", "skipped": "False", "complete": "True", "assignment": "3FTF2T8WLSQDHTSZ1BJ7Q7MB14SW9H", "start_time": "1.5181369166e+12", "human_length": "8", "nodes_expanded": "999", "instance": "prb28111", "end_time": "1.51813692511e+12", "optimal_length": "7", "subject": "A1IUH9D7N69VS"}
{"rt": "30158.0", "trial_number": "0", "skipped": "False", "complete": "False", "assignment": "3XC1O3LBOTUGQEPEV3HM8W67X4RTLL", "start_time": "1.5181371158e+12", "human_length": "9", "nodes_expanded": "999", "instance": "prb28111", "end_time": "1.51813714596e+12", "optimal_length": "7", "subject": "A1ZTSCPETU3UJW"}
{"rt": "34861.0", "trial_number": "1", "skipped": "False", "complete": "True", "assignment": "3XC1O3LBOTUGQEPEV3HM8W67X4RTLL", "start_time": "1.51813715058e+12", "human_length": "18", "nodes_expanded": "999", "instance": "prb28111", "end_time": "1.51813718544e+12", "optimal_length": "7", "subject": "A1ZTSCPETU3UJW"}
{"rt": "9964.0", "trial_number": "0", "skipped": "False", "complete": "True", "assignment": "3TAYZSBPLMG9ASQRWXURJVBCPLN2SH", "start_time": "1.51813817154e+12", "human_length": "7", "nodes_expanded": "999", "instance": "prb28111", "end_time": "1.51813818151e+12", "optimal_length": "7", "subject": "A2RCYLKY072XXO"}
{"rt": "16538.0", "trial_number": "0", "skipped": "False", "complete": "True", "assignment": "3ZSANO2JCGFTBM23KS9Y3E51YP4FSQ", "start_time": "1.51814331496e+12", "human_length": "8", "nodes_expanded": "999", "instance": "prb28111", "end_time": "1.5181433315e+12", "optimal_length": "7", "subject": "A1F42D4L22K5ND"}
{"rt": "13711.0", "trial_number": "0", "skipped": "False", "complete": "True", "assignment": "3VE8AYVF8N5BS2NU6U3TMN50MV38FP", "start_time": "1.51814520288e+12", "human_length": "8", "nodes_expanded": "999", "instance": "prb28111", "end_time": "1.51814521659e+12", "optimal_length": "7", "subject": "A1JN13098RIE78"}
{"rt": "8227.0", "trial_number": "0", "skipped": "False", "complete": "True", "assignment": "3XLBSAQ9Z5KDX59BX15UBFPNNHYZ7Q", "start_time": "1.51814738162e+12", "human_length": "8", "nodes_expanded": "999", "instance": "prb28111", "end_time": "1.51814738985e+12", "optimal_length": "7", "subject": "A1HFNOKU591WCY"}
{"rt": "0.0", "trial_number": "0", "skipped": "False", "complete": "False", "assignment": "3EWIJTFFVPF14ZIVGF68BQEIRXP0ER", "start_time": "1.51814839524e+12", "human_length": "1", "nodes_expanded": "999", "instance": "prb28111", "end_time": "1.51814839524e+12", "optimal_length": "7", "subject": "A30AGR5KF8IEL"}
{"rt": "0.0", "trial_number": "1", "skipped": "False", "complete": "False", "assignment": "3EWIJTFFVPF14ZIVGF68BQEIRXP0ER", "start_time": "1.51814839525e+12", "human_length": "1", "nodes_expanded": "999", "instance": "prb28111", "end_time": "1.51814839525e+12", "optimal_length": "7", "subject": "A30AGR5KF8IEL"}
{"rt": "0.0", "trial_number": "2", "skipped": "False", "complete": "False", "assignment": "3EWIJTFFVPF14ZIVGF68BQEIRXP0ER", "start_time": "1.51814839526e+12", "human_length": "1", "nodes_expanded": "999", "instance": "prb28111", "end_time": "1.51814839526e+12", "optimal_length": "7", "subject": "A30AGR5KF8IEL"}
{"rt": "0.0", "trial_number": "3", "skipped": "False", "complete": "False", "assignment": "3EWIJTFFVPF14ZIVGF68BQEIRXP0ER", "start_time": "1.51814839527e+12", "human_length": "1", "nodes_expanded": "999", "instance": "prb28111", "end_time": "1.51814839527e+12", "optimal_length": "7", "subject": "A30AGR5KF8IEL"}
{"rt": "9591.0", "trial_number": "4", "skipped": "False", "complete": "False", "assignment": "3EWIJTFFVPF14ZIVGF68BQEIRXP0ER", "start_time": "1.51814840092e+12", "human_length": "4", "nodes_expanded": "999", "instance": "prb28111", "end_time": "1.51814841051e+12", "optimal_length": "7", "subject": "A30AGR5KF8IEL"}
{"rt": "0.0", "trial_number": "5", "skipped": "False", "complete": "False", "assignment": "3EWIJTFFVPF14ZIVGF68BQEIRXP0ER", "start_time": "1.51814841255e+12", "human_length": "1", "nodes_expanded": "999", "instance": "prb28111", "end_time": "1.51814841255e+12", "optimal_length": "7", "subject": "A30AGR5KF8IEL"}
{"rt": "0.0", "trial_number": "6", "skipped": "False", "complete": "False", "assignment": "3EWIJTFFVPF14ZIVGF68BQEIRXP0ER", "start_time": "1.51814841310e+12", "human_length": "1", "nodes_expanded": "999", "instance": "prb28111", "end_time": "1.51814841310e+12", "optimal_length": "7", "subject": "A30AGR5KF8IEL"}
{"rt": "3189.0", "trial_number": "7", "skipped": "False", "complete": "False", "assignment": "3EWIJTFFVPF14ZIVGF68BQEIRXP0ER", "start_time": "1.51814841418e+12", "human_length": "2", "nodes_expanded": "999", "instance": "prb28111", "end_time": "1.51814841736e+12", "optimal_length": "7", "subject": "A30AGR5KF8IEL"}
{"rt": "0.0", "trial_number": "8", "skipped": "False", "complete": "False", "assignment": "3EWIJTFFVPF14ZIVGF68BQEIRXP0ER", "start_time": "1.51814841908e+12", "human_length": "1", "nodes_expanded": "999", "instance": "prb28111", "end_time": "1.51814841908e+12", "optimal_length": "7", "subject": "A30AGR5KF8IEL"}
{"rt": "0.0", "trial_number": "9", "skipped": "False", "complete": "False", "assignment": "3EWIJTFFVPF14ZIVGF68BQEIRXP0ER", "start_time": "1.51814842425e+12", "human_length": "1", "nodes_expanded": "999", "instance": "prb28111", "end_time": "1.51814842425e+12", "optimal_length": "7", "subject": "A30AGR5KF8IEL"}
{"rt": "0.0", "trial_number": "10", "skipped": "False", "complete": "False", "assignment": "3EWIJTFFVPF14ZIVGF68BQEIRXP0ER", "start_time": "1.5181484244e+12", "human_length": "1", "nodes_expanded": "999", "instance": "prb28111", "end_time": "1.5181484244e+12", "optimal_length": "7", "subject": "A30AGR5KF8IEL"}
{"rt": "0.0", "trial_number": "11", "skipped": "False", "complete": "False", "assignment": "3EWIJTFFVPF14ZIVGF68BQEIRXP0ER", "start_time": "1.51814842543e+12", "human_length": "1", "nodes_expanded": "999", "instance": "prb28111", "end_time": "1.51814842543e+12", "optimal_length": "7", "subject": "A30AGR5KF8IEL"}
{"rt": "0.0", "trial_number": "12", "skipped": "False", "complete": "False", "assignment": "3EWIJTFFVPF14ZIVGF68BQEIRXP0ER", "start_time": "1.51814842612e+12", "human_length": "1", "nodes_expanded": "999", "instance": "prb28111", "end_time": "1.51814842612e+12", "optimal_length": "7", "subject": "A30AGR5KF8IEL"}
{"rt": "0.0", "trial_number": "13", "skipped": "False", "complete": "False", "assignment": "3EWIJTFFVPF14ZIVGF68BQEIRXP0ER", "start_time": "1.51814842921e+12", "human_length": "1", "nodes_expanded": "999", "instance": "prb28111", "end_time": "1.51814842921e+12", "optimal_length": "7", "subject": "A30AGR5KF8IEL"}
{"rt": "0.0", "trial_number": "14", "skipped": "False", "complete": "False", "assignment": "3EWIJTFFVPF14ZIVGF68BQEIRXP0ER", "start_time": "1.5181484302e+12", "human_length": "1", "nodes_expanded": "999", "instance": "prb28111", "end_time": "1.5181484302e+12", "optimal_length": "7", "subject": "A30AGR5KF8IEL"}
{"rt": "0.0", "trial_number": "15", "skipped": "False", "complete": "False", "assignment": "3EWIJTFFVPF14ZIVGF68BQEIRXP0ER", "start_time": "1.51814843273e+12", "human_length": "1", "nodes_expanded": "999", "instance": "prb28111", "end_time": "1.51814843273e+12", "optimal_length": "7", "subject": "A30AGR5KF8IEL"}
{"rt": "0.0", "trial_number": "16", "skipped": "False", "complete": "False", "assignment": "3EWIJTFFVPF14ZIVGF68BQEIRXP0ER", "start_time": "1.5181484339e+12", "human_length": "1", "nodes_expanded": "999", "instance": "prb28111", "end_time": "1.5181484339e+12", "optimal_length": "7", "subject": "A30AGR5KF8IEL"}
{"rt": "21418.0", "trial_number": "17", "skipped": "True", "complete": "False", "assignment": "3EWIJTFFVPF14ZIVGF68BQEIRXP0ER", "start_time": "1.51814843391e+12", "human_length": "3", "nodes_expanded": "999", "instance": "prb28111", "end_time": "1.51814845533e+12", "optimal_length": "7", "subject": "A30AGR5KF8IEL"}
{"rt": "16180.0", "trial_number": "0", "skipped": "True", "complete": "False", "assignment": "3M0BCWMB8W4W5M7WZVX3HDH1P53WB1", "start_time": "1.51816095796e+12", "human_length": "9", "nodes_expanded": "999", "instance": "prb28111", "end_time": "1.51816097414e+12", "optimal_length": "7", "subject": "A53S7J4JGWG38"}
{"rt": "55601.0", "trial_number": "0", "skipped": "False", "complete": "True", "assignment": "3SITXWYCNWHBUMCM90TPJWV8Y7AXBW", "start_time": "1.51816324681e+12", "human_length": "19", "nodes_expanded": "999", "instance": "prb28111", "end_time": "1.51816330241e+12", "optimal_length": "7", "subject": "A28RX7L0QZ993M"}
{"rt": "7893.0", "trial_number": "0", "skipped": "False", "complete": "True", "assignment": "3IXEICO793RY7TM78ZBKJDOA7ADT6Q", "start_time": "1.51816807068e+12", "human_length": "7", "nodes_expanded": "999", "instance": "prb28111", "end_time": "1.51816807857e+12", "optimal_length": "7", "subject": "ALH1K6ZAQQMN7"}
