{"rt": "338331.0", "trial_number": "0", "skipped": "False", "complete": "True", "assignment": "3AZHRG4CU5SYU12YRVPCSZALW5003R", "start_time": "1.51630515078e+12", "human_length": "154", "nodes_expanded": "999", "instance": "prb3217", "end_time": "1.51630548911e+12", "optimal_length": "11", "subject": "ARWF605I7RWM7"}
{"rt": "25577.0", "trial_number": "0", "skipped": "False", "complete": "True", "assignment": "3PMBY0YE28B43VMUKKJ6EDF85RV9C8", "start_time": "1.51638594181e+12", "human_length": "20", "nodes_expanded": "999", "instance": "prb3217", "end_time": "1.51638596739e+12", "optimal_length": "11", "subject": "A191V7PT3DQKDP"}
{"rt": "27721.0", "trial_number": "0", "skipped": "True", "complete": "False", "assignment": "3VNL7UK1XGRUQMFI9SEODJ1NWBPTF2", "start_time": "1.51638690152e+12", "human_length": "22", "nodes_expanded": "999", "instance": "prb3217", "end_time": "1.51638692924e+12", "optimal_length": "11", "subject": "A394S7JSNUA3TS"}
{"rt": "0.0", "trial_number": "0", "skipped": "False", "complete": "False", "assignment": "3ZSY5X72NYJBGKFJ46SJ0Y9J0RLROB", "start_time": "1.51638819145e+12", "human_length": "1", "nodes_expanded": "999", "instance": "prb3217", "end_time": "1.51638819145e+12", "optimal_length": "11", "subject": "AU4KK3OYS2UZF"}
{"rt": "0.0", "trial_number": "1", "skipped": "False", "complete": "False", "assignment": "3ZSY5X72NYJBGKFJ46SJ0Y9J0RLROB", "start_time": "1.51638819146e+12", "human_length": "1", "nodes_expanded": "999", "instance": "prb3217", "end_time": "1.51638819146e+12", "optimal_length": "11", "subject": "AU4KK3OYS2UZF"}
{"rt": "4796.0", "trial_number": "2", "skipped": "False", "complete": "False", "assignment": "3ZSY5X72NYJBGKFJ46SJ0Y9J0RLROB", "start_time": "1.51638819147e+12", "human_length": "3", "nodes_expanded": "999", "instance": "prb3217", "end_time": "1.51638819627e+12", "optimal_length": "11", "subject": "AU4KK3OYS2UZF"}
{"rt": "25024.0", "trial_number": "3", "skipped": "False", "complete": "True", "assignment": "3ZSY5X72NYJBGKFJ46SJ0Y9J0RLROB", "start_time": "1.51638820204e+12", "human_length": "17", "nodes_expanded": "999", "instance": "prb3217", "end_time": "1.51638822707e+12", "optimal_length": "11", "subject": "AU4KK3OYS2UZF"}
{"rt": "114957.0", "trial_number": "0", "skipped": "False", "complete": "True", "assignment": "3VBEN272ML7ZPMYYVCFGLZ5DV7CGS0", "start_time": "1.51638869316e+12", "human_length": "51", "nodes_expanded": "999", "instance": "prb3217", "end_time": "1.51638880811e+12", "optimal_length": "11", "subject": "A3VZJ2T28HAQ2A"}
{"rt": "30743.0", "trial_number": "0", "skipped": "False", "complete": "True", "assignment": "34BBWHLWHBJ6SUL255PK30LEGY5IWG", "start_time": "1.5163923696e+12", "human_length": "38", "nodes_expanded": "999", "instance": "prb3217", "end_time": "1.51639240034e+12", "optimal_length": "11", "subject": "A214HWAW1PYWO8"}
{"rt": "0.0", "trial_number": "0", "skipped": "False", "complete": "False", "assignment": "3VE8AYVF8N5BS2NU6U3TMN50JMNF8V", "start_time": "1.51673757669e+12", "human_length": "1", "nodes_expanded": "999", "instance": "prb3217", "end_time": "1.51673757669e+12", "optimal_length": "11", "subject": "A18QU0YQB6Q8DF"}
{"rt": "0.0", "trial_number": "1", "skipped": "False", "complete": "False", "assignment": "3VE8AYVF8N5BS2NU6U3TMN50JMNF8V", "start_time": "1.51673757669e+12", "human_length": "1", "nodes_expanded": "999", "instance": "prb3217", "end_time": "1.51673757669e+12", "optimal_length": "11", "subject": "A18QU0YQB6Q8DF"}
{"rt": "47842.0", "trial_number": "2", "skipped": "True", "complete": "False", "assignment": "3VE8AYVF8N5BS2NU6U3TMN50JMNF8V", "start_time": "1.51673757669e+12", "human_length": "61", "nodes_expanded": "999", "instance": "prb3217", "end_time": "1.51673762453e+12", "optimal_length": "11", "subject": "A18QU0YQB6Q8DF"}
{"rt": "0.0", "trial_number": "0", "skipped": "False", "complete": "False", "assignment": "3X87C8JFV7JQ2BSCY8KSFD9F2ILSQK", "start_time": "1.51674023876e+12", "human_length": "1", "nodes_expanded": "999", "instance": "prb3217", "end_time": "1.51674023876e+12", "optimal_length": "11", "subject": "A3Q0XAGQ7TD7MP"}
{"rt": "0.0", "trial_number": "1", "skipped": "False", "complete": "False", "assignment": "3X87C8JFV7JQ2BSCY8KSFD9F2ILSQK", "start_time": "1.51674023876e+12", "human_length": "1", "nodes_expanded": "999", "instance": "prb3217", "end_time": "1.51674023876e+12", "optimal_length": "11", "subject": "A3Q0XAGQ7TD7MP"}
{"rt": "74292.0", "trial_number": "2", "skipped": "False", "complete": "False", "assignment": "3X87C8JFV7JQ2BSCY8KSFD9F2ILSQK", "start_time": "1.51674023876e+12", "human_length": "98", "nodes_expanded": "999", "instance": "prb3217", "end_time": "1.51674031305e+12", "optimal_length": "11", "subject": "A3Q0XAGQ7TD7MP"}
{"rt": "41057.0", "trial_number": "3", "skipped": "False", "complete": "True", "assignment": "3GLB5JMZFY3TNXFGYMKRQ0JDXNTDGZ", "start_time": "1.51794662319e+12", "human_length": "18", "nodes_expanded": "999", "instance": "prb3217", "end_time": "1.51794666424e+12", "optimal_length": "11", "subject": "A3Q0XAGQ7TD7MP"}
{"rt": "24663.0", "trial_number": "0", "skipped": "False", "complete": "False", "assignment": "3WSELTNVR4AZUVYAYCSWZIQW0J4ATB", "start_time": "1.5167387739e+12", "human_length": "18", "nodes_expanded": "999", "instance": "prb3217", "end_time": "1.51673879856e+12", "optimal_length": "11", "subject": "A2TQNX64349OZ9"}
{"rt": "4243.0", "trial_number": "1", "skipped": "False", "complete": "False", "assignment": "3WSELTNVR4AZUVYAYCSWZIQW0J4ATB", "start_time": "1.51673880047e+12", "human_length": "4", "nodes_expanded": "999", "instance": "prb3217", "end_time": "1.51673880471e+12", "optimal_length": "11", "subject": "A2TQNX64349OZ9"}
{"rt": "12493.0", "trial_number": "2", "skipped": "False", "complete": "False", "assignment": "3WSELTNVR4AZUVYAYCSWZIQW0J4ATB", "start_time": "1.51673880932e+12", "human_length": "8", "nodes_expanded": "999", "instance": "prb3217", "end_time": "1.51673882181e+12", "optimal_length": "11", "subject": "A2TQNX64349OZ9"}
{"rt": "8722.0", "trial_number": "3", "skipped": "False", "complete": "False", "assignment": "3WSELTNVR4AZUVYAYCSWZIQW0J4ATB", "start_time": "1.51673882467e+12", "human_length": "5", "nodes_expanded": "999", "instance": "prb3217", "end_time": "1.51673883339e+12", "optimal_length": "11", "subject": "A2TQNX64349OZ9"}
{"rt": "0.0", "trial_number": "4", "skipped": "False", "complete": "False", "assignment": "3WSELTNVR4AZUVYAYCSWZIQW0J4ATB", "start_time": "1.51673883669e+12", "human_length": "1", "nodes_expanded": "999", "instance": "prb3217", "end_time": "1.51673883669e+12", "optimal_length": "11", "subject": "A2TQNX64349OZ9"}
{"rt": "0.0", "trial_number": "5", "skipped": "False", "complete": "False", "assignment": "3WSELTNVR4AZUVYAYCSWZIQW0J4ATB", "start_time": "1.5167387739e+12", "human_length": "1", "nodes_expanded": "999", "instance": "prb3217", "end_time": "1.5167387739e+12", "optimal_length": "11", "subject": "A2TQNX64349OZ9"}
{"rt": "0.0", "trial_number": "6", "skipped": "False", "complete": "False", "assignment": "3WSELTNVR4AZUVYAYCSWZIQW0J4ATB", "start_time": "1.51673880047e+12", "human_length": "1", "nodes_expanded": "999", "instance": "prb3217", "end_time": "1.51673880047e+12", "optimal_length": "11", "subject": "A2TQNX64349OZ9"}
{"rt": "0.0", "trial_number": "7", "skipped": "False", "complete": "False", "assignment": "3WSELTNVR4AZUVYAYCSWZIQW0J4ATB", "start_time": "1.51673880932e+12", "human_length": "1", "nodes_expanded": "999", "instance": "prb3217", "end_time": "1.51673880932e+12", "optimal_length": "11", "subject": "A2TQNX64349OZ9"}
{"rt": "0.0", "trial_number": "8", "skipped": "False", "complete": "False", "assignment": "3WSELTNVR4AZUVYAYCSWZIQW0J4ATB", "start_time": "1.51673882467e+12", "human_length": "1", "nodes_expanded": "999", "instance": "prb3217", "end_time": "1.51673882467e+12", "optimal_length": "11", "subject": "A2TQNX64349OZ9"}
{"rt": "0.0", "trial_number": "9", "skipped": "False", "complete": "False", "assignment": "3WSELTNVR4AZUVYAYCSWZIQW0J4ATB", "start_time": "1.51673883669e+12", "human_length": "1", "nodes_expanded": "999", "instance": "prb3217", "end_time": "1.51673883669e+12", "optimal_length": "11", "subject": "A2TQNX64349OZ9"}
{"rt": "0.0", "trial_number": "10", "skipped": "False", "complete": "False", "assignment": "3WSELTNVR4AZUVYAYCSWZIQW0J4ATB", "start_time": "1.5167387739e+12", "human_length": "1", "nodes_expanded": "999", "instance": "prb3217", "end_time": "1.5167387739e+12", "optimal_length": "11", "subject": "A2TQNX64349OZ9"}
{"rt": "0.0", "trial_number": "11", "skipped": "False", "complete": "False", "assignment": "3WSELTNVR4AZUVYAYCSWZIQW0J4ATB", "start_time": "1.51673880047e+12", "human_length": "1", "nodes_expanded": "999", "instance": "prb3217", "end_time": "1.51673880047e+12", "optimal_length": "11", "subject": "A2TQNX64349OZ9"}
{"rt": "0.0", "trial_number": "12", "skipped": "False", "complete": "False", "assignment": "3WSELTNVR4AZUVYAYCSWZIQW0J4ATB", "start_time": "1.51673880932e+12", "human_length": "1", "nodes_expanded": "999", "instance": "prb3217", "end_time": "1.51673880932e+12", "optimal_length": "11", "subject": "A2TQNX64349OZ9"}
{"rt": "0.0", "trial_number": "13", "skipped": "False", "complete": "False", "assignment": "3WSELTNVR4AZUVYAYCSWZIQW0J4ATB", "start_time": "1.51673882467e+12", "human_length": "1", "nodes_expanded": "999", "instance": "prb3217", "end_time": "1.51673882467e+12", "optimal_length": "11", "subject": "A2TQNX64349OZ9"}
{"rt": "18325.0", "trial_number": "14", "skipped": "False", "complete": "True", "assignment": "3WSELTNVR4AZUVYAYCSWZIQW0J4ATB", "start_time": "1.51673883669e+12", "human_length": "14", "nodes_expanded": "999", "instance": "prb3217", "end_time": "1.51673885502e+12", "optimal_length": "11", "subject": "A2TQNX64349OZ9"}
{"rt": "0.0", "trial_number": "0", "skipped": "False", "complete": "False", "assignment": "3I2PTA7R3U2SESF4TZBQORI5LSJQKK", "start_time": "1.51676053966e+12", "human_length": "1", "nodes_expanded": "999", "instance": "prb3217", "end_time": "1.51676053966e+12", "optimal_length": "11", "subject": "A3NMQ3019X6YE0"}
{"rt": "0.0", "trial_number": "1", "skipped": "False", "complete": "False", "assignment": "3I2PTA7R3U2SESF4TZBQORI5LSJQKK", "start_time": "1.51676053966e+12", "human_length": "1", "nodes_expanded": "999", "instance": "prb3217", "end_time": "1.51676053966e+12", "optimal_length": "11", "subject": "A3NMQ3019X6YE0"}
{"rt": "197150.0", "trial_number": "2", "skipped": "False", "complete": "True", "assignment": "3I2PTA7R3U2SESF4TZBQORI5LSJQKK", "start_time": "1.51676053966e+12", "human_length": "96", "nodes_expanded": "999", "instance": "prb3217", "end_time": "1.51676073681e+12", "optimal_length": "11", "subject": "A3NMQ3019X6YE0"}
{"rt": "0.0", "trial_number": "0", "skipped": "False", "complete": "False", "assignment": "3YW4XOSQKRTI0K0Z2YPDTDJVFABU1I", "start_time": "1.51682300794e+12", "human_length": "1", "nodes_expanded": "999", "instance": "prb3217", "end_time": "1.51682300794e+12", "optimal_length": "11", "subject": "A15781PHGW377Y"}
{"rt": "71002.0", "trial_number": "1", "skipped": "False", "complete": "True", "assignment": "3YW4XOSQKRTI0K0Z2YPDTDJVFABU1I", "start_time": "1.51682300794e+12", "human_length": "22", "nodes_expanded": "999", "instance": "prb3217", "end_time": "1.51682307894e+12", "optimal_length": "11", "subject": "A15781PHGW377Y"}
{"rt": "0.0", "trial_number": "0", "skipped": "False", "complete": "False", "assignment": "3IHR8NYAM89M0EPM8U9LH53ZJDTP4U", "start_time": "1.51682696661e+12", "human_length": "1", "nodes_expanded": "999", "instance": "prb3217", "end_time": "1.51682696661e+12", "optimal_length": "11", "subject": "A23437BMZ5T1FH"}
{"rt": "43984.0", "trial_number": "1", "skipped": "True", "complete": "False", "assignment": "3IHR8NYAM89M0EPM8U9LH53ZJDTP4U", "start_time": "1.51682696661e+12", "human_length": "70", "nodes_expanded": "999", "instance": "prb3217", "end_time": "1.5168270106e+12", "optimal_length": "11", "subject": "A23437BMZ5T1FH"}
{"rt": "0.0", "trial_number": "0", "skipped": "False", "complete": "False", "assignment": "37WLF8U1WQYZ4AWKEQXSIM1ELVEK6W", "start_time": "1.51683107972e+12", "human_length": "1", "nodes_expanded": "999", "instance": "prb3217", "end_time": "1.51683107972e+12", "optimal_length": "11", "subject": "A2EPBSY0VPI38S"}
{"rt": "293420.0", "trial_number": "1", "skipped": "False", "complete": "True", "assignment": "37WLF8U1WQYZ4AWKEQXSIM1ELVEK6W", "start_time": "1.51683107972e+12", "human_length": "142", "nodes_expanded": "999", "instance": "prb3217", "end_time": "1.51683137314e+12", "optimal_length": "11", "subject": "A2EPBSY0VPI38S"}
{"rt": "51167.0", "trial_number": "0", "skipped": "False", "complete": "True", "assignment": "3YW4XOSQKRTI0K0Z2YPDTDJVFABU1I", "start_time": "1.51683234925e+12", "human_length": "44", "nodes_expanded": "999", "instance": "prb3217", "end_time": "1.51683240042e+12", "optimal_length": "11", "subject": "A1LR0VQIHQUJAM"}
{"rt": "47842.0", "trial_number": "0", "skipped": "True", "complete": "False", "assignment": "3VE8AYVF8N5BS2NU6U3TMN50JMNF8V", "start_time": "1.51673757669e+12", "human_length": "23", "nodes_expanded": "999", "instance": "prb3217", "end_time": "1.51673762453e+12", "optimal_length": "11", "subject": "A18QU0YQB6Q8DF"}
{"rt": "74292.0", "trial_number": "0", "skipped": "False", "complete": "False", "assignment": "3X87C8JFV7JQ2BSCY8KSFD9F2ILSQK", "start_time": "1.51674023876e+12", "human_length": "36", "nodes_expanded": "999", "instance": "prb3217", "end_time": "1.51674031305e+12", "optimal_length": "11", "subject": "A3Q0XAGQ7TD7MP"}
{"rt": "41057.0", "trial_number": "1", "skipped": "False", "complete": "True", "assignment": "3GLB5JMZFY3TNXFGYMKRQ0JDXNTDGZ", "start_time": "1.51794662319e+12", "human_length": "18", "nodes_expanded": "999", "instance": "prb3217", "end_time": "1.51794666424e+12", "optimal_length": "11", "subject": "A3Q0XAGQ7TD7MP"}
{"rt": "24663.0", "trial_number": "0", "skipped": "False", "complete": "False", "assignment": "3WSELTNVR4AZUVYAYCSWZIQW0J4ATB", "start_time": "1.5167387739e+12", "human_length": "18", "nodes_expanded": "999", "instance": "prb3217", "end_time": "1.51673879856e+12", "optimal_length": "11", "subject": "A2TQNX64349OZ9"}
{"rt": "4243.0", "trial_number": "1", "skipped": "False", "complete": "False", "assignment": "3WSELTNVR4AZUVYAYCSWZIQW0J4ATB", "start_time": "1.51673880047e+12", "human_length": "4", "nodes_expanded": "999", "instance": "prb3217", "end_time": "1.51673880471e+12", "optimal_length": "11", "subject": "A2TQNX64349OZ9"}
{"rt": "12493.0", "trial_number": "2", "skipped": "False", "complete": "False", "assignment": "3WSELTNVR4AZUVYAYCSWZIQW0J4ATB", "start_time": "1.51673880932e+12", "human_length": "8", "nodes_expanded": "999", "instance": "prb3217", "end_time": "1.51673882181e+12", "optimal_length": "11", "subject": "A2TQNX64349OZ9"}
{"rt": "8722.0", "trial_number": "3", "skipped": "False", "complete": "False", "assignment": "3WSELTNVR4AZUVYAYCSWZIQW0J4ATB", "start_time": "1.51673882467e+12", "human_length": "5", "nodes_expanded": "999", "instance": "prb3217", "end_time": "1.51673883339e+12", "optimal_length": "11", "subject": "A2TQNX64349OZ9"}
{"rt": "18325.0", "trial_number": "4", "skipped": "False", "complete": "True", "assignment": "3WSELTNVR4AZUVYAYCSWZIQW0J4ATB", "start_time": "1.51673883669e+12", "human_length": "14", "nodes_expanded": "999", "instance": "prb3217", "end_time": "1.51673885502e+12", "optimal_length": "11", "subject": "A2TQNX64349OZ9"}
{"rt": "197150.0", "trial_number": "0", "skipped": "False", "complete": "True", "assignment": "3I2PTA7R3U2SESF4TZBQORI5LSJQKK", "start_time": "1.51676053966e+12", "human_length": "96", "nodes_expanded": "999", "instance": "prb3217", "end_time": "1.51676073681e+12", "optimal_length": "11", "subject": "A3NMQ3019X6YE0"}
{"rt": "71002.0", "trial_number": "0", "skipped": "False", "complete": "True", "assignment": "3YW4XOSQKRTI0K0Z2YPDTDJVFABU1I", "start_time": "1.51682300794e+12", "human_length": "22", "nodes_expanded": "999", "instance": "prb3217", "end_time": "1.51682307894e+12", "optimal_length": "11", "subject": "A15781PHGW377Y"}
{"rt": "19096.0", "trial_number": "0", "skipped": "True", "complete": "False", "assignment": "34Q075JO1YL2KYOJ4RBT46VOZM710O", "start_time": "1.51683579795e+12", "human_length": "9", "nodes_expanded": "999", "instance": "prb3217", "end_time": "1.51683581704e+12", "optimal_length": "11", "subject": "A1A2XH9JVSN8Z0"}
{"rt": "110951.0", "trial_number": "0", "skipped": "False", "complete": "False", "assignment": "3TS1AR6UQRM7SOIBWPBN8N9589Y7FV", "start_time": "1.51684056202e+12", "human_length": "86", "nodes_expanded": "999", "instance": "prb3217", "end_time": "1.51684067297e+12", "optimal_length": "11", "subject": "A1F4N58CAX8IMK"}
{"rt": "30024.0", "trial_number": "1", "skipped": "False", "complete": "True", "assignment": "35DR22AR5ES6RR89U7EJ1DXW91AX3P", "start_time": "1.51795450982e+12", "human_length": "30", "nodes_expanded": "999", "instance": "prb3217", "end_time": "1.51795453985e+12", "optimal_length": "11", "subject": "A1F4N58CAX8IMK"}
{"rt": "21018.0", "trial_number": "0", "skipped": "False", "complete": "False", "assignment": "3M0BCWMB8W4W5M7WZVX3HDH1M3FBWL", "start_time": "1.51683819586e+12", "human_length": "5", "nodes_expanded": "999", "instance": "prb3217", "end_time": "1.51683821688e+12", "optimal_length": "11", "subject": "A1XDMS0KFSF5JW"}
{"rt": "40132.0", "trial_number": "1", "skipped": "False", "complete": "False", "assignment": "3M0BCWMB8W4W5M7WZVX3HDH1M3FBWL", "start_time": "1.51683821786e+12", "human_length": "14", "nodes_expanded": "999", "instance": "prb3217", "end_time": "1.51683825799e+12", "optimal_length": "11", "subject": "A1XDMS0KFSF5JW"}
{"rt": "58404.0", "trial_number": "2", "skipped": "False", "complete": "False", "assignment": "3M0BCWMB8W4W5M7WZVX3HDH1M3FBWL", "start_time": "1.51683825956e+12", "human_length": "16", "nodes_expanded": "999", "instance": "prb3217", "end_time": "1.51683831796e+12", "optimal_length": "11", "subject": "A1XDMS0KFSF5JW"}
{"rt": "58692.0", "trial_number": "3", "skipped": "False", "complete": "False", "assignment": "3M0BCWMB8W4W5M7WZVX3HDH1M3FBWL", "start_time": "1.51683832489e+12", "human_length": "16", "nodes_expanded": "999", "instance": "prb3217", "end_time": "1.51683838358e+12", "optimal_length": "11", "subject": "A1XDMS0KFSF5JW"}
{"rt": "57824.0", "trial_number": "4", "skipped": "False", "complete": "False", "assignment": "3M0BCWMB8W4W5M7WZVX3HDH1M3FBWL", "start_time": "1.51683839028e+12", "human_length": "9", "nodes_expanded": "999", "instance": "prb3217", "end_time": "1.51683844811e+12", "optimal_length": "11", "subject": "A1XDMS0KFSF5JW"}
{"rt": "92363.0", "trial_number": "5", "skipped": "False", "complete": "True", "assignment": "3M0BCWMB8W4W5M7WZVX3HDH1M3FBWL", "start_time": "1.51683844998e+12", "human_length": "24", "nodes_expanded": "999", "instance": "prb3217", "end_time": "1.51683854234e+12", "optimal_length": "11", "subject": "A1XDMS0KFSF5JW"}
{"rt": "36677.0", "trial_number": "0", "skipped": "True", "complete": "False", "assignment": "31LM9EDVOM0C0BWUVMJXJINN3QPJNI", "start_time": "1.51752261383e+12", "human_length": "28", "nodes_expanded": "999", "instance": "prb3217", "end_time": "1.5175226505e+12", "optimal_length": "11", "subject": "A1NT8BT94ME6F5"}
{"rt": "27915.0", "trial_number": "0", "skipped": "False", "complete": "False", "assignment": "36H9ULYP6320CJJDXY0KBDEE1Z3JFB", "start_time": "1.51753276326e+12", "human_length": "13", "nodes_expanded": "999", "instance": "prb3217", "end_time": "1.51753279118e+12", "optimal_length": "11", "subject": "AN098C29EGJ6"}
{"rt": "20128.0", "trial_number": "1", "skipped": "True", "complete": "False", "assignment": "36H9ULYP6320CJJDXY0KBDEE1Z3JFB", "start_time": "1.5175327953e+12", "human_length": "10", "nodes_expanded": "999", "instance": "prb3217", "end_time": "1.51753281542e+12", "optimal_length": "11", "subject": "AN098C29EGJ6"}
{"rt": "33030.0", "trial_number": "0", "skipped": "True", "complete": "False", "assignment": "3TYCR1GOTDRCCQYD1V64UK7OHTBZLQ", "start_time": "1.51753736775e+12", "human_length": "24", "nodes_expanded": "999", "instance": "prb3217", "end_time": "1.51753740078e+12", "optimal_length": "11", "subject": "A13BZCNJ0WR1T7"}
{"rt": "40720.0", "trial_number": "0", "skipped": "False", "complete": "False", "assignment": "3H0W84IWBLAP4T2UASPNVMF5ZH7ER9", "start_time": "1.51755409546e+12", "human_length": "34", "nodes_expanded": "999", "instance": "prb3217", "end_time": "1.51755413618e+12", "optimal_length": "11", "subject": "A1AKX1C8GCVCTP"}
{"rt": "0.0", "trial_number": "1", "skipped": "False", "complete": "False", "assignment": "3H0W84IWBLAP4T2UASPNVMF5ZH7ER9", "start_time": "1.5175542098e+12", "human_length": "1", "nodes_expanded": "999", "instance": "prb3217", "end_time": "1.5175542098e+12", "optimal_length": "11", "subject": "A1AKX1C8GCVCTP"}
{"rt": "0.0", "trial_number": "2", "skipped": "False", "complete": "False", "assignment": "3H0W84IWBLAP4T2UASPNVMF5ZH7ER9", "start_time": "1.51755420982e+12", "human_length": "1", "nodes_expanded": "999", "instance": "prb3217", "end_time": "1.51755420982e+12", "optimal_length": "11", "subject": "A1AKX1C8GCVCTP"}
{"rt": "0.0", "trial_number": "3", "skipped": "False", "complete": "False", "assignment": "3H0W84IWBLAP4T2UASPNVMF5ZH7ER9", "start_time": "1.51755420984e+12", "human_length": "1", "nodes_expanded": "999", "instance": "prb3217", "end_time": "1.51755420984e+12", "optimal_length": "11", "subject": "A1AKX1C8GCVCTP"}
{"rt": "0.0", "trial_number": "4", "skipped": "False", "complete": "False", "assignment": "3H0W84IWBLAP4T2UASPNVMF5ZH7ER9", "start_time": "1.51755420986e+12", "human_length": "1", "nodes_expanded": "999", "instance": "prb3217", "end_time": "1.51755420986e+12", "optimal_length": "11", "subject": "A1AKX1C8GCVCTP"}
{"rt": "0.0", "trial_number": "5", "skipped": "False", "complete": "False", "assignment": "3H0W84IWBLAP4T2UASPNVMF5ZH7ER9", "start_time": "1.517554212e+12", "human_length": "1", "nodes_expanded": "999", "instance": "prb3217", "end_time": "1.517554212e+12", "optimal_length": "11", "subject": "A1AKX1C8GCVCTP"}
{"rt": "0.0", "trial_number": "6", "skipped": "False", "complete": "False", "assignment": "3H0W84IWBLAP4T2UASPNVMF5ZH7ER9", "start_time": "1.51755421247e+12", "human_length": "1", "nodes_expanded": "999", "instance": "prb3217", "end_time": "1.51755421247e+12", "optimal_length": "11", "subject": "A1AKX1C8GCVCTP"}
{"rt": "24402.0", "trial_number": "7", "skipped": "False", "complete": "False", "assignment": "3H0W84IWBLAP4T2UASPNVMF5ZH7ER9", "start_time": "1.51755421388e+12", "human_length": "2", "nodes_expanded": "999", "instance": "prb3217", "end_time": "1.51755423828e+12", "optimal_length": "11", "subject": "A1AKX1C8GCVCTP"}
{"rt": "34557.0", "trial_number": "8", "skipped": "True", "complete": "False", "assignment": "3H0W84IWBLAP4T2UASPNVMF5ZH7ER9", "start_time": "1.51755474472e+12", "human_length": "22", "nodes_expanded": "999", "instance": "prb3217", "end_time": "1.51755477928e+12", "optimal_length": "11", "subject": "A1AKX1C8GCVCTP"}
{"rt": "40007.0", "trial_number": "0", "skipped": "False", "complete": "False", "assignment": "3TPWUS5F8A9FFRZ2DVTYSXNJ6BWWC6", "start_time": "1.51793996595e+12", "human_length": "16", "nodes_expanded": "999", "instance": "prb3217", "end_time": "1.51794000595e+12", "optimal_length": "11", "subject": "A3GXC3VG37CQ3G"}
{"rt": "18271.0", "trial_number": "1", "skipped": "False", "complete": "False", "assignment": "3TPWUS5F8A9FFRZ2DVTYSXNJ6BWWC6", "start_time": "1.51794000816e+12", "human_length": "10", "nodes_expanded": "999", "instance": "prb3217", "end_time": "1.51794002643e+12", "optimal_length": "11", "subject": "A3GXC3VG37CQ3G"}
{"rt": "12039.0", "trial_number": "2", "skipped": "False", "complete": "False", "assignment": "3TPWUS5F8A9FFRZ2DVTYSXNJ6BWWC6", "start_time": "1.51794002781e+12", "human_length": "7", "nodes_expanded": "999", "instance": "prb3217", "end_time": "1.51794003985e+12", "optimal_length": "11", "subject": "A3GXC3VG37CQ3G"}
{"rt": "31135.0", "trial_number": "3", "skipped": "False", "complete": "False", "assignment": "3TPWUS5F8A9FFRZ2DVTYSXNJ6BWWC6", "start_time": "1.51794004279e+12", "human_length": "16", "nodes_expanded": "999", "instance": "prb3217", "end_time": "1.51794007393e+12", "optimal_length": "11", "subject": "A3GXC3VG37CQ3G"}
{"rt": "16025.0", "trial_number": "4", "skipped": "False", "complete": "False", "assignment": "3TPWUS5F8A9FFRZ2DVTYSXNJ6BWWC6", "start_time": "1.51794007942e+12", "human_length": "6", "nodes_expanded": "999", "instance": "prb3217", "end_time": "1.51794009545e+12", "optimal_length": "11", "subject": "A3GXC3VG37CQ3G"}
{"rt": "9851.0", "trial_number": "5", "skipped": "False", "complete": "False", "assignment": "3TPWUS5F8A9FFRZ2DVTYSXNJ6BWWC6", "start_time": "1.51794010044e+12", "human_length": "5", "nodes_expanded": "999", "instance": "prb3217", "end_time": "1.51794011029e+12", "optimal_length": "11", "subject": "A3GXC3VG37CQ3G"}
{"rt": "35268.0", "trial_number": "6", "skipped": "False", "complete": "False", "assignment": "3TPWUS5F8A9FFRZ2DVTYSXNJ6BWWC6", "start_time": "1.5179401114e+12", "human_length": "22", "nodes_expanded": "999", "instance": "prb3217", "end_time": "1.51794014667e+12", "optimal_length": "11", "subject": "A3GXC3VG37CQ3G"}
{"rt": "66638.0", "trial_number": "7", "skipped": "False", "complete": "True", "assignment": "3TPWUS5F8A9FFRZ2DVTYSXNJ6BWWC6", "start_time": "1.51794015169e+12", "human_length": "40", "nodes_expanded": "999", "instance": "prb3217", "end_time": "1.51794021833e+12", "optimal_length": "11", "subject": "A3GXC3VG37CQ3G"}
{"rt": "39836.0", "trial_number": "0", "skipped": "False", "complete": "True", "assignment": "34HJIJKLP64Z5YMIU6IKNXSH7PDV4I", "start_time": "1.51794104345e+12", "human_length": "17", "nodes_expanded": "999", "instance": "prb3217", "end_time": "1.51794108328e+12", "optimal_length": "11", "subject": "A3CTXNQ2GXIQSP"}
{"rt": "123371.0", "trial_number": "0", "skipped": "False", "complete": "True", "assignment": "3TXD01ZLD5PZSJXIPG8FRBQYTI9U4X", "start_time": "1.51794398936e+12", "human_length": "61", "nodes_expanded": "999", "instance": "prb3217", "end_time": "1.51794411273e+12", "optimal_length": "11", "subject": "A3BPRPN10HJD4B"}
{"rt": "87709.0", "trial_number": "0", "skipped": "True", "complete": "False", "assignment": "30IQTZXKALEAAZ9CBKW0ZFZP6O5X07", "start_time": "1.51794581905e+12", "human_length": "43", "nodes_expanded": "999", "instance": "prb3217", "end_time": "1.51794590676e+12", "optimal_length": "11", "subject": "A23XJ8I86R0O3B"}
{"rt": "27858.0", "trial_number": "0", "skipped": "False", "complete": "False", "assignment": "3STRJBFXOXZ5687WA35LTWTS7QZKTT", "start_time": "1.51794476653e+12", "human_length": "15", "nodes_expanded": "999", "instance": "prb3217", "end_time": "1.51794479439e+12", "optimal_length": "11", "subject": "A3OB6REG5CGHK1"}
{"rt": "11041.0", "trial_number": "1", "skipped": "False", "complete": "False", "assignment": "3STRJBFXOXZ5687WA35LTWTS7QZKTT", "start_time": "1.51794479603e+12", "human_length": "10", "nodes_expanded": "999", "instance": "prb3217", "end_time": "1.51794480708e+12", "optimal_length": "11", "subject": "A3OB6REG5CGHK1"}
{"rt": "33436.0", "trial_number": "2", "skipped": "True", "complete": "False", "assignment": "3STRJBFXOXZ5687WA35LTWTS7QZKTT", "start_time": "1.51794480833e+12", "human_length": "8", "nodes_expanded": "999", "instance": "prb3217", "end_time": "1.51794484176e+12", "optimal_length": "11", "subject": "A3OB6REG5CGHK1"}
{"rt": "33982.0", "trial_number": "0", "skipped": "False", "complete": "False", "assignment": "33PPO7FECWN7JOLBOAKUBCWTC0AIDL", "start_time": "1.51794915232e+12", "human_length": "10", "nodes_expanded": "999", "instance": "prb3217", "end_time": "1.5179491863e+12", "optimal_length": "11", "subject": "AXKM02NVXNGOM"}
{"rt": "62229.0", "trial_number": "1", "skipped": "False", "complete": "True", "assignment": "33PPO7FECWN7JOLBOAKUBCWTC0AIDL", "start_time": "1.51794918981e+12", "human_length": "22", "nodes_expanded": "999", "instance": "prb3217", "end_time": "1.51794925204e+12", "optimal_length": "11", "subject": "AXKM02NVXNGOM"}
{"rt": "60119.0", "trial_number": "0", "skipped": "False", "complete": "False", "assignment": "3HYA4D452SR06NL5QDUSCWSXZI12FF", "start_time": "1.51795083144e+12", "human_length": "31", "nodes_expanded": "999", "instance": "prb3217", "end_time": "1.51795089156e+12", "optimal_length": "11", "subject": "A2OFWHV8IP7HK"}
{"rt": "0.0", "trial_number": "1", "skipped": "False", "complete": "False", "assignment": "3HYA4D452SR06NL5QDUSCWSXZI12FF", "start_time": "1.51795091104e+12", "human_length": "1", "nodes_expanded": "999", "instance": "prb3217", "end_time": "1.51795091104e+12", "optimal_length": "11", "subject": "A2OFWHV8IP7HK"}
{"rt": "0.0", "trial_number": "2", "skipped": "False", "complete": "False", "assignment": "3HYA4D452SR06NL5QDUSCWSXZI12FF", "start_time": "1.51795091107e+12", "human_length": "1", "nodes_expanded": "999", "instance": "prb3217", "end_time": "1.51795091107e+12", "optimal_length": "11", "subject": "A2OFWHV8IP7HK"}
{"rt": "23165.0", "trial_number": "3", "skipped": "False", "complete": "False", "assignment": "3HYA4D452SR06NL5QDUSCWSXZI12FF", "start_time": "1.51795091938e+12", "human_length": "12", "nodes_expanded": "999", "instance": "prb3217", "end_time": "1.51795094254e+12", "optimal_length": "11", "subject": "A2OFWHV8IP7HK"}
{"rt": "79202.0", "trial_number": "4", "skipped": "False", "complete": "False", "assignment": "3HYA4D452SR06NL5QDUSCWSXZI12FF", "start_time": "1.5179509497e+12", "human_length": "28", "nodes_expanded": "999", "instance": "prb3217", "end_time": "1.5179510289e+12", "optimal_length": "11", "subject": "A2OFWHV8IP7HK"}
{"rt": "74551.0", "trial_number": "5", "skipped": "True", "complete": "False", "assignment": "3HYA4D452SR06NL5QDUSCWSXZI12FF", "start_time": "1.51795103698e+12", "human_length": "21", "nodes_expanded": "999", "instance": "prb3217", "end_time": "1.51795111153e+12", "optimal_length": "11", "subject": "A2OFWHV8IP7HK"}
{"rt": "87233.0", "trial_number": "0", "skipped": "False", "complete": "True", "assignment": "3PB5A5BD0WED6OE679H5Q89HBDGG71", "start_time": "1.51795072312e+12", "human_length": "61", "nodes_expanded": "999", "instance": "prb3217", "end_time": "1.51795081035e+12", "optimal_length": "11", "subject": "A1USR9JCAMDGM3"}
{"rt": "162899.0", "trial_number": "0", "skipped": "False", "complete": "False", "assignment": "33F859I567LE8WC74WB3GA7E94XBHW", "start_time": "1.51796916033e+12", "human_length": "104", "nodes_expanded": "999", "instance": "prb3217", "end_time": "1.51796932323e+12", "optimal_length": "11", "subject": "A1GQS6USF2JEYG"}
{"rt": "6941.0", "trial_number": "1", "skipped": "True", "complete": "False", "assignment": "33F859I567LE8WC74WB3GA7E94XBHW", "start_time": "1.5179693301e+12", "human_length": "7", "nodes_expanded": "999", "instance": "prb3217", "end_time": "1.51796933704e+12", "optimal_length": "11", "subject": "A1GQS6USF2JEYG"}
{"rt": "50073.0", "trial_number": "0", "skipped": "False", "complete": "True", "assignment": "3IJXV6UZ1YR1KY4G6BFEG1DXR47RIC", "start_time": "1.51797220028e+12", "human_length": "43", "nodes_expanded": "999", "instance": "prb3217", "end_time": "1.51797225035e+12", "optimal_length": "11", "subject": "A18T3WK7J16C1B"}
{"rt": "30831.0", "trial_number": "0", "skipped": "False", "complete": "True", "assignment": "3FTF2T8WLSQDHTSZ1BJ7Q7MB14SW9H", "start_time": "1.51813725979e+12", "human_length": "24", "nodes_expanded": "999", "instance": "prb3217", "end_time": "1.51813729062e+12", "optimal_length": "11", "subject": "A1IUH9D7N69VS"}
{"rt": "29704.0", "trial_number": "0", "skipped": "True", "complete": "False", "assignment": "3XC1O3LBOTUGQEPEV3HM8W67X4RTLL", "start_time": "1.51813933204e+12", "human_length": "16", "nodes_expanded": "999", "instance": "prb3217", "end_time": "1.51813936175e+12", "optimal_length": "11", "subject": "A1ZTSCPETU3UJW"}
{"rt": "97455.0", "trial_number": "0", "skipped": "True", "complete": "False", "assignment": "3TAYZSBPLMG9ASQRWXURJVBCPLN2SH", "start_time": "1.51813604502e+12", "human_length": "56", "nodes_expanded": "999", "instance": "prb3217", "end_time": "1.51813614247e+12", "optimal_length": "11", "subject": "A2RCYLKY072XXO"}
{"rt": "62848.0", "trial_number": "0", "skipped": "False", "complete": "False", "assignment": "3ZSANO2JCGFTBM23KS9Y3E51YP4FSQ", "start_time": "1.51814410722e+12", "human_length": "61", "nodes_expanded": "999", "instance": "prb3217", "end_time": "1.51814417007e+12", "optimal_length": "11", "subject": "A1F42D4L22K5ND"}
{"rt": "12280.0", "trial_number": "1", "skipped": "True", "complete": "False", "assignment": "3ZSANO2JCGFTBM23KS9Y3E51YP4FSQ", "start_time": "1.5181441714e+12", "human_length": "12", "nodes_expanded": "999", "instance": "prb3217", "end_time": "1.51814418368e+12", "optimal_length": "11", "subject": "A1F42D4L22K5ND"}
{"rt": "0.0", "trial_number": "0", "skipped": "False", "complete": "False", "assignment": "3VE8AYVF8N5BS2NU6U3TMN50MV38FP", "start_time": "1.51814430539e+12", "human_length": "1", "nodes_expanded": "999", "instance": "prb3217", "end_time": "1.51814430539e+12", "optimal_length": "11", "subject": "A1JN13098RIE78"}
{"rt": "3108.0", "trial_number": "1", "skipped": "False", "complete": "False", "assignment": "3VE8AYVF8N5BS2NU6U3TMN50MV38FP", "start_time": "1.5181443054e+12", "human_length": "2", "nodes_expanded": "999", "instance": "prb3217", "end_time": "1.51814430850e+12", "optimal_length": "11", "subject": "A1JN13098RIE78"}
{"rt": "22280.0", "trial_number": "2", "skipped": "False", "complete": "True", "assignment": "3VE8AYVF8N5BS2NU6U3TMN50MV38FP", "start_time": "1.51814431101e+12", "human_length": "13", "nodes_expanded": "999", "instance": "prb3217", "end_time": "1.51814433329e+12", "optimal_length": "11", "subject": "A1JN13098RIE78"}
{"rt": "46894.0", "trial_number": "0", "skipped": "False", "complete": "False", "assignment": "3TMFV4NEP9MD3O9PWJDTQBR0HZYW8I", "start_time": "1.51814523623e+12", "human_length": "27", "nodes_expanded": "999", "instance": "prb3217", "end_time": "1.51814528312e+12", "optimal_length": "11", "subject": "A3GOOI75XOF24V"}
{"rt": "28429.0", "trial_number": "1", "skipped": "False", "complete": "False", "assignment": "3TMFV4NEP9MD3O9PWJDTQBR0HZYW8I", "start_time": "1.51814528526e+12", "human_length": "19", "nodes_expanded": "999", "instance": "prb3217", "end_time": "1.51814531369e+12", "optimal_length": "11", "subject": "A3GOOI75XOF24V"}
{"rt": "54267.0", "trial_number": "2", "skipped": "False", "complete": "False", "assignment": "3TMFV4NEP9MD3O9PWJDTQBR0HZYW8I", "start_time": "1.51814531801e+12", "human_length": "36", "nodes_expanded": "999", "instance": "prb3217", "end_time": "1.51814537228e+12", "optimal_length": "11", "subject": "A3GOOI75XOF24V"}
{"rt": "51583.0", "trial_number": "3", "skipped": "False", "complete": "True", "assignment": "3TMFV4NEP9MD3O9PWJDTQBR0HZYW8I", "start_time": "1.5181453734e+12", "human_length": "24", "nodes_expanded": "999", "instance": "prb3217", "end_time": "1.51814542498e+12", "optimal_length": "11", "subject": "A3GOOI75XOF24V"}
{"rt": "28396.0", "trial_number": "0", "skipped": "False", "complete": "True", "assignment": "3XLBSAQ9Z5KDX59BX15UBFPNNHYZ7Q", "start_time": "1.51814528892e+12", "human_length": "18", "nodes_expanded": "999", "instance": "prb3217", "end_time": "1.51814531732e+12", "optimal_length": "11", "subject": "A1HFNOKU591WCY"}
{"rt": "0.0", "trial_number": "0", "skipped": "False", "complete": "False", "assignment": "3EWIJTFFVPF14ZIVGF68BQEIRXP0ER", "start_time": "1.51815033557e+12", "human_length": "1", "nodes_expanded": "999", "instance": "prb3217", "end_time": "1.51815033557e+12", "optimal_length": "11", "subject": "A30AGR5KF8IEL"}
{"rt": "5181.0", "trial_number": "1", "skipped": "False", "complete": "False", "assignment": "3EWIJTFFVPF14ZIVGF68BQEIRXP0ER", "start_time": "1.51815033558e+12", "human_length": "2", "nodes_expanded": "999", "instance": "prb3217", "end_time": "1.51815034076e+12", "optimal_length": "11", "subject": "A30AGR5KF8IEL"}
{"rt": "0.0", "trial_number": "2", "skipped": "False", "complete": "False", "assignment": "3EWIJTFFVPF14ZIVGF68BQEIRXP0ER", "start_time": "1.51815034489e+12", "human_length": "1", "nodes_expanded": "999", "instance": "prb3217", "end_time": "1.51815034489e+12", "optimal_length": "11", "subject": "A30AGR5KF8IEL"}
{"rt": "1580.0", "trial_number": "3", "skipped": "False", "complete": "False", "assignment": "3EWIJTFFVPF14ZIVGF68BQEIRXP0ER", "start_time": "1.51815034491e+12", "human_length": "2", "nodes_expanded": "999", "instance": "prb3217", "end_time": "1.51815034649e+12", "optimal_length": "11", "subject": "A30AGR5KF8IEL"}
{"rt": "4558.0", "trial_number": "4", "skipped": "False", "complete": "False", "assignment": "3EWIJTFFVPF14ZIVGF68BQEIRXP0ER", "start_time": "1.51815035658e+12", "human_length": "2", "nodes_expanded": "999", "instance": "prb3217", "end_time": "1.51815036114e+12", "optimal_length": "11", "subject": "A30AGR5KF8IEL"}
{"rt": "0.0", "trial_number": "5", "skipped": "False", "complete": "False", "assignment": "3EWIJTFFVPF14ZIVGF68BQEIRXP0ER", "start_time": "1.51815036399e+12", "human_length": "1", "nodes_expanded": "999", "instance": "prb3217", "end_time": "1.51815036399e+12", "optimal_length": "11", "subject": "A30AGR5KF8IEL"}
{"rt": "0.0", "trial_number": "6", "skipped": "False", "complete": "False", "assignment": "3EWIJTFFVPF14ZIVGF68BQEIRXP0ER", "start_time": "1.518150365e+12", "human_length": "1", "nodes_expanded": "999", "instance": "prb3217", "end_time": "1.518150365e+12", "optimal_length": "11", "subject": "A30AGR5KF8IEL"}
{"rt": "2947.0", "trial_number": "7", "skipped": "False", "complete": "False", "assignment": "3EWIJTFFVPF14ZIVGF68BQEIRXP0ER", "start_time": "1.5181503745e+12", "human_length": "3", "nodes_expanded": "999", "instance": "prb3217", "end_time": "1.51815037745e+12", "optimal_length": "11", "subject": "A30AGR5KF8IEL"}
{"rt": "0.0", "trial_number": "8", "skipped": "False", "complete": "False", "assignment": "3EWIJTFFVPF14ZIVGF68BQEIRXP0ER", "start_time": "1.51815037795e+12", "human_length": "1", "nodes_expanded": "999", "instance": "prb3217", "end_time": "1.51815037795e+12", "optimal_length": "11", "subject": "A30AGR5KF8IEL"}
{"rt": "0.0", "trial_number": "9", "skipped": "False", "complete": "False", "assignment": "3EWIJTFFVPF14ZIVGF68BQEIRXP0ER", "start_time": "1.51815037797e+12", "human_length": "1", "nodes_expanded": "999", "instance": "prb3217", "end_time": "1.51815037797e+12", "optimal_length": "11", "subject": "A30AGR5KF8IEL"}
{"rt": "2447.0", "trial_number": "10", "skipped": "False", "complete": "False", "assignment": "3EWIJTFFVPF14ZIVGF68BQEIRXP0ER", "start_time": "1.51815038264e+12", "human_length": "3", "nodes_expanded": "999", "instance": "prb3217", "end_time": "1.51815038508e+12", "optimal_length": "11", "subject": "A30AGR5KF8IEL"}
{"rt": "6940.0", "trial_number": "11", "skipped": "False", "complete": "False", "assignment": "3EWIJTFFVPF14ZIVGF68BQEIRXP0ER", "start_time": "1.51815038877e+12", "human_length": "3", "nodes_expanded": "999", "instance": "prb3217", "end_time": "1.51815039571e+12", "optimal_length": "11", "subject": "A30AGR5KF8IEL"}
{"rt": "2260.0", "trial_number": "12", "skipped": "False", "complete": "False", "assignment": "3EWIJTFFVPF14ZIVGF68BQEIRXP0ER", "start_time": "1.51815039644e+12", "human_length": "2", "nodes_expanded": "999", "instance": "prb3217", "end_time": "1.5181503987e+12", "optimal_length": "11", "subject": "A30AGR5KF8IEL"}
{"rt": "105956.0", "trial_number": "13", "skipped": "False", "complete": "True", "assignment": "3EWIJTFFVPF14ZIVGF68BQEIRXP0ER", "start_time": "1.51815042724e+12", "human_length": "49", "nodes_expanded": "999", "instance": "prb3217", "end_time": "1.5181505332e+12", "optimal_length": "11", "subject": "A30AGR5KF8IEL"}
{"rt": "92592.0", "trial_number": "0", "skipped": "False", "complete": "True", "assignment": "3FUI0JHJPY6UBT1VAI7VUX8S3KH33W", "start_time": "1.51815284569e+12", "human_length": "75", "nodes_expanded": "999", "instance": "prb3217", "end_time": "1.51815293828e+12", "optimal_length": "11", "subject": "A2QIZ31TMHU0GD"}
{"rt": "24065.0", "trial_number": "0", "skipped": "False", "complete": "True", "assignment": "37QW5D2ZRHUKW7SGCE3STMOFBMK8SX", "start_time": "1.51815668167e+12", "human_length": "16", "nodes_expanded": "999", "instance": "prb3217", "end_time": "1.51815670574e+12", "optimal_length": "11", "subject": "AMW2XLD9443OH"}
{"rt": "45398.0", "trial_number": "0", "skipped": "False", "complete": "False", "assignment": "3M0BCWMB8W4W5M7WZVX3HDH1P53WB1", "start_time": "1.51815817451e+12", "human_length": "10", "nodes_expanded": "999", "instance": "prb3217", "end_time": "1.5181582199e+12", "optimal_length": "11", "subject": "A53S7J4JGWG38"}
{"rt": "29215.0", "trial_number": "1", "skipped": "False", "complete": "False", "assignment": "3M0BCWMB8W4W5M7WZVX3HDH1P53WB1", "start_time": "1.5181582228e+12", "human_length": "20", "nodes_expanded": "999", "instance": "prb3217", "end_time": "1.51815825202e+12", "optimal_length": "11", "subject": "A53S7J4JGWG38"}
{"rt": "61882.0", "trial_number": "2", "skipped": "False", "complete": "False", "assignment": "3M0BCWMB8W4W5M7WZVX3HDH1P53WB1", "start_time": "1.5181582544e+12", "human_length": "32", "nodes_expanded": "999", "instance": "prb3217", "end_time": "1.51815831628e+12", "optimal_length": "11", "subject": "A53S7J4JGWG38"}
{"rt": "30093.0", "trial_number": "3", "skipped": "False", "complete": "True", "assignment": "3M0BCWMB8W4W5M7WZVX3HDH1P53WB1", "start_time": "1.51815831875e+12", "human_length": "21", "nodes_expanded": "999", "instance": "prb3217", "end_time": "1.51815834885e+12", "optimal_length": "11", "subject": "A53S7J4JGWG38"}
{"rt": "34819.0", "trial_number": "0", "skipped": "False", "complete": "True", "assignment": "3IXEICO793RY7TM78ZBKJDOA7ADT6Q", "start_time": "1.51816879057e+12", "human_length": "23", "nodes_expanded": "999", "instance": "prb3217", "end_time": "1.51816882539e+12", "optimal_length": "11", "subject": "ALH1K6ZAQQMN7"}
