{"rt": "67878.0", "trial_number": "0", "skipped": "False", "complete": "True", "assignment": "3AZHRG4CU5SYU12YRVPCSZALW5003R", "start_time": "1.51630731871e+12", "human_length": "81", "nodes_expanded": "999", "instance": "prb343", "end_time": "1.51630738658e+12", "optimal_length": "14", "subject": "ARWF605I7RWM7"}
{"rt": "185030.0", "trial_number": "0", "skipped": "False", "complete": "True", "assignment": "3PMBY0YE28B43VMUKKJ6EDF85RV9C8", "start_time": "1.51638752886e+12", "human_length": "110", "nodes_expanded": "999", "instance": "prb343", "end_time": "1.51638771389e+12", "optimal_length": "14", "subject": "A191V7PT3DQKDP"}
{"rt": "102270.0", "trial_number": "0", "skipped": "False", "complete": "True", "assignment": "3VBEN272ML7ZPMYYVCFGLZ5DV7CGS0", "start_time": "1.51638849525e+12", "human_length": "36", "nodes_expanded": "999", "instance": "prb343", "end_time": "1.51638859752e+12", "optimal_length": "14", "subject": "A3VZJ2T28HAQ2A"}
{"rt": "179599.0", "trial_number": "0", "skipped": "False", "complete": "True", "assignment": "3TYCR1GOTDRCCQYD1V64UK7OE48LZS", "start_time": "1.51639225249e+12", "human_length": "81", "nodes_expanded": "999", "instance": "prb343", "end_time": "1.51639243209e+12", "optimal_length": "14", "subject": "A2MYB6MLQW0IGN"}
{"rt": "93347.0", "trial_number": "0", "skipped": "False", "complete": "True", "assignment": "34BBWHLWHBJ6SUL255PK30LEGY5IWG", "start_time": "1.51639102031e+12", "human_length": "30", "nodes_expanded": "999", "instance": "prb343", "end_time": "1.51639111366e+12", "optimal_length": "14", "subject": "A214HWAW1PYWO8"}
{"rt": "13352.0", "trial_number": "0", "skipped": "False", "complete": "False", "assignment": "3VE8AYVF8N5BS2NU6U3TMN50JMNF8V", "start_time": "1.51673695088e+12", "human_length": "4", "nodes_expanded": "999", "instance": "prb343", "end_time": "1.51673696423e+12", "optimal_length": "14", "subject": "A18QU0YQB6Q8DF"}
{"rt": "13406.0", "trial_number": "1", "skipped": "False", "complete": "False", "assignment": "3VE8AYVF8N5BS2NU6U3TMN50JMNF8V", "start_time": "1.5167369695e+12", "human_length": "7", "nodes_expanded": "999", "instance": "prb343", "end_time": "1.5167369829e+12", "optimal_length": "14", "subject": "A18QU0YQB6Q8DF"}
{"rt": "0.0", "trial_number": "2", "skipped": "False", "complete": "False", "assignment": "3VE8AYVF8N5BS2NU6U3TMN50JMNF8V", "start_time": "1.51673698989e+12", "human_length": "1", "nodes_expanded": "999", "instance": "prb343", "end_time": "1.51673698989e+12", "optimal_length": "14", "subject": "A18QU0YQB6Q8DF"}
{"rt": "0.0", "trial_number": "3", "skipped": "False", "complete": "False", "assignment": "3VE8AYVF8N5BS2NU6U3TMN50JMNF8V", "start_time": "1.51673695088e+12", "human_length": "1", "nodes_expanded": "999", "instance": "prb343", "end_time": "1.51673695088e+12", "optimal_length": "14", "subject": "A18QU0YQB6Q8DF"}
{"rt": "0.0", "trial_number": "4", "skipped": "False", "complete": "False", "assignment": "3VE8AYVF8N5BS2NU6U3TMN50JMNF8V", "start_time": "1.5167369695e+12", "human_length": "1", "nodes_expanded": "999", "instance": "prb343", "end_time": "1.5167369695e+12", "optimal_length": "14", "subject": "A18QU0YQB6Q8DF"}
{"rt": "0.0", "trial_number": "5", "skipped": "False", "complete": "False", "assignment": "3VE8AYVF8N5BS2NU6U3TMN50JMNF8V", "start_time": "1.51673698989e+12", "human_length": "1", "nodes_expanded": "999", "instance": "prb343", "end_time": "1.51673698989e+12", "optimal_length": "14", "subject": "A18QU0YQB6Q8DF"}
{"rt": "0.0", "trial_number": "6", "skipped": "False", "complete": "False", "assignment": "3VE8AYVF8N5BS2NU6U3TMN50JMNF8V", "start_time": "1.51673695088e+12", "human_length": "1", "nodes_expanded": "999", "instance": "prb343", "end_time": "1.51673695088e+12", "optimal_length": "14", "subject": "A18QU0YQB6Q8DF"}
{"rt": "0.0", "trial_number": "7", "skipped": "False", "complete": "False", "assignment": "3VE8AYVF8N5BS2NU6U3TMN50JMNF8V", "start_time": "1.5167369695e+12", "human_length": "1", "nodes_expanded": "999", "instance": "prb343", "end_time": "1.5167369695e+12", "optimal_length": "14", "subject": "A18QU0YQB6Q8DF"}
{"rt": "22909.0", "trial_number": "8", "skipped": "True", "complete": "False", "assignment": "3VE8AYVF8N5BS2NU6U3TMN50JMNF8V", "start_time": "1.51673698989e+12", "human_length": "44", "nodes_expanded": "999", "instance": "prb343", "end_time": "1.5167370128e+12", "optimal_length": "14", "subject": "A18QU0YQB6Q8DF"}
{"rt": "0.0", "trial_number": "0", "skipped": "False", "complete": "False", "assignment": "3X87C8JFV7JQ2BSCY8KSFD9F2ILSQK", "start_time": "1.51673853164e+12", "human_length": "1", "nodes_expanded": "999", "instance": "prb343", "end_time": "1.51673853164e+12", "optimal_length": "14", "subject": "A3Q0XAGQ7TD7MP"}
{"rt": "0.0", "trial_number": "1", "skipped": "False", "complete": "False", "assignment": "3X87C8JFV7JQ2BSCY8KSFD9F2ILSQK", "start_time": "1.51673853164e+12", "human_length": "1", "nodes_expanded": "999", "instance": "prb343", "end_time": "1.51673853164e+12", "optimal_length": "14", "subject": "A3Q0XAGQ7TD7MP"}
{"rt": "30011.0", "trial_number": "2", "skipped": "False", "complete": "True", "assignment": "3X87C8JFV7JQ2BSCY8KSFD9F2ILSQK", "start_time": "1.51673853164e+12", "human_length": "15", "nodes_expanded": "999", "instance": "prb343", "end_time": "1.51673856166e+12", "optimal_length": "14", "subject": "A3Q0XAGQ7TD7MP"}
{"rt": "122272.0", "trial_number": "3", "skipped": "False", "complete": "True", "assignment": "3GLB5JMZFY3TNXFGYMKRQ0JDXNTDGZ", "start_time": "1.51794737032e+12", "human_length": "52", "nodes_expanded": "999", "instance": "prb343", "end_time": "1.51794749259e+12", "optimal_length": "14", "subject": "A3Q0XAGQ7TD7MP"}
{"rt": "0.0", "trial_number": "0", "skipped": "False", "complete": "False", "assignment": "3WSELTNVR4AZUVYAYCSWZIQW0J4ATB", "start_time": "1.5167403219e+12", "human_length": "1", "nodes_expanded": "999", "instance": "prb343", "end_time": "1.5167403219e+12", "optimal_length": "14", "subject": "A2TQNX64349OZ9"}
{"rt": "0.0", "trial_number": "1", "skipped": "False", "complete": "False", "assignment": "3WSELTNVR4AZUVYAYCSWZIQW0J4ATB", "start_time": "1.5167403219e+12", "human_length": "1", "nodes_expanded": "999", "instance": "prb343", "end_time": "1.5167403219e+12", "optimal_length": "14", "subject": "A2TQNX64349OZ9"}
{"rt": "15324.0", "trial_number": "2", "skipped": "True", "complete": "False", "assignment": "3WSELTNVR4AZUVYAYCSWZIQW0J4ATB", "start_time": "1.5167403219e+12", "human_length": "40", "nodes_expanded": "999", "instance": "prb343", "end_time": "1.51674033722e+12", "optimal_length": "14", "subject": "A2TQNX64349OZ9"}
{"rt": "81218.0", "trial_number": "0", "skipped": "False", "complete": "False", "assignment": "3IJXV6UZ1YR1KY4G6BFEG1DXP7SRI1", "start_time": "1.51675024903e+12", "human_length": "45", "nodes_expanded": "999", "instance": "prb343", "end_time": "1.51675033025e+12", "optimal_length": "14", "subject": "A2RTJ6BDY0DZVZ"}
{"rt": "74162.0", "trial_number": "1", "skipped": "False", "complete": "False", "assignment": "3IJXV6UZ1YR1KY4G6BFEG1DXP7SRI1", "start_time": "1.51675033318e+12", "human_length": "43", "nodes_expanded": "999", "instance": "prb343", "end_time": "1.51675040734e+12", "optimal_length": "14", "subject": "A2RTJ6BDY0DZVZ"}
{"rt": "0.0", "trial_number": "2", "skipped": "False", "complete": "False", "assignment": "3IJXV6UZ1YR1KY4G6BFEG1DXP7SRI1", "start_time": "1.51675040973e+12", "human_length": "1", "nodes_expanded": "999", "instance": "prb343", "end_time": "1.51675040973e+12", "optimal_length": "14", "subject": "A2RTJ6BDY0DZVZ"}
{"rt": "0.0", "trial_number": "3", "skipped": "False", "complete": "False", "assignment": "3IJXV6UZ1YR1KY4G6BFEG1DXP7SRI1", "start_time": "1.51675024903e+12", "human_length": "1", "nodes_expanded": "999", "instance": "prb343", "end_time": "1.51675024903e+12", "optimal_length": "14", "subject": "A2RTJ6BDY0DZVZ"}
{"rt": "0.0", "trial_number": "4", "skipped": "False", "complete": "False", "assignment": "3IJXV6UZ1YR1KY4G6BFEG1DXP7SRI1", "start_time": "1.51675033318e+12", "human_length": "1", "nodes_expanded": "999", "instance": "prb343", "end_time": "1.51675033318e+12", "optimal_length": "14", "subject": "A2RTJ6BDY0DZVZ"}
{"rt": "0.0", "trial_number": "5", "skipped": "False", "complete": "False", "assignment": "3IJXV6UZ1YR1KY4G6BFEG1DXP7SRI1", "start_time": "1.51675040973e+12", "human_length": "1", "nodes_expanded": "999", "instance": "prb343", "end_time": "1.51675040973e+12", "optimal_length": "14", "subject": "A2RTJ6BDY0DZVZ"}
{"rt": "0.0", "trial_number": "6", "skipped": "False", "complete": "False", "assignment": "3IJXV6UZ1YR1KY4G6BFEG1DXP7SRI1", "start_time": "1.51675024903e+12", "human_length": "1", "nodes_expanded": "999", "instance": "prb343", "end_time": "1.51675024903e+12", "optimal_length": "14", "subject": "A2RTJ6BDY0DZVZ"}
{"rt": "0.0", "trial_number": "7", "skipped": "False", "complete": "False", "assignment": "3IJXV6UZ1YR1KY4G6BFEG1DXP7SRI1", "start_time": "1.51675033318e+12", "human_length": "1", "nodes_expanded": "999", "instance": "prb343", "end_time": "1.51675033318e+12", "optimal_length": "14", "subject": "A2RTJ6BDY0DZVZ"}
{"rt": "54041.0", "trial_number": "8", "skipped": "False", "complete": "True", "assignment": "3IJXV6UZ1YR1KY4G6BFEG1DXP7SRI1", "start_time": "1.51675040973e+12", "human_length": "33", "nodes_expanded": "999", "instance": "prb343", "end_time": "1.51675046378e+12", "optimal_length": "14", "subject": "A2RTJ6BDY0DZVZ"}
{"rt": "0.0", "trial_number": "0", "skipped": "False", "complete": "False", "assignment": "3I2PTA7R3U2SESF4TZBQORI5LSJQKK", "start_time": "1.51675871097e+12", "human_length": "1", "nodes_expanded": "999", "instance": "prb343", "end_time": "1.51675871097e+12", "optimal_length": "14", "subject": "A3NMQ3019X6YE0"}
{"rt": "0.0", "trial_number": "1", "skipped": "False", "complete": "False", "assignment": "3I2PTA7R3U2SESF4TZBQORI5LSJQKK", "start_time": "1.51675871097e+12", "human_length": "1", "nodes_expanded": "999", "instance": "prb343", "end_time": "1.51675871097e+12", "optimal_length": "14", "subject": "A3NMQ3019X6YE0"}
{"rt": "333133.0", "trial_number": "2", "skipped": "False", "complete": "True", "assignment": "3I2PTA7R3U2SESF4TZBQORI5LSJQKK", "start_time": "1.51675871097e+12", "human_length": "154", "nodes_expanded": "999", "instance": "prb343", "end_time": "1.5167590441e+12", "optimal_length": "14", "subject": "A3NMQ3019X6YE0"}
{"rt": "125078.0", "trial_number": "3", "skipped": "False", "complete": "False", "assignment": "3V5Q80FXIYZ5QB5C6ITQBN30WY823U", "start_time": "1.51753549878e+12", "human_length": "74", "nodes_expanded": "999", "instance": "prb343", "end_time": "1.51753562386e+12", "optimal_length": "14", "subject": "A3NMQ3019X6YE0"}
{"rt": "68724.0", "trial_number": "4", "skipped": "True", "complete": "False", "assignment": "3V5Q80FXIYZ5QB5C6ITQBN30WY823U", "start_time": "1.51753564983e+12", "human_length": "27", "nodes_expanded": "999", "instance": "prb343", "end_time": "1.51753571855e+12", "optimal_length": "14", "subject": "A3NMQ3019X6YE0"}
{"rt": "0.0", "trial_number": "0", "skipped": "False", "complete": "False", "assignment": "3YW4XOSQKRTI0K0Z2YPDTDJVFABU1I", "start_time": "1.51682324274e+12", "human_length": "1", "nodes_expanded": "999", "instance": "prb343", "end_time": "1.51682324274e+12", "optimal_length": "14", "subject": "A15781PHGW377Y"}
{"rt": "28456.0", "trial_number": "1", "skipped": "False", "complete": "True", "assignment": "3YW4XOSQKRTI0K0Z2YPDTDJVFABU1I", "start_time": "1.51682324274e+12", "human_length": "21", "nodes_expanded": "999", "instance": "prb343", "end_time": "1.5168232712e+12", "optimal_length": "14", "subject": "A15781PHGW377Y"}
{"rt": "0.0", "trial_number": "0", "skipped": "False", "complete": "False", "assignment": "3IHR8NYAM89M0EPM8U9LH53ZJDTP4U", "start_time": "1.51682544297e+12", "human_length": "1", "nodes_expanded": "999", "instance": "prb343", "end_time": "1.51682544297e+12", "optimal_length": "14", "subject": "A23437BMZ5T1FH"}
{"rt": "177969.0", "trial_number": "1", "skipped": "True", "complete": "False", "assignment": "3IHR8NYAM89M0EPM8U9LH53ZJDTP4U", "start_time": "1.51682544297e+12", "human_length": "246", "nodes_expanded": "999", "instance": "prb343", "end_time": "1.51682562094e+12", "optimal_length": "14", "subject": "A23437BMZ5T1FH"}
{"rt": "0.0", "trial_number": "0", "skipped": "False", "complete": "False", "assignment": "3YW4XOSQKRTI0K0Z2YPDTDJVFABU1I", "start_time": "1.51683090765e+12", "human_length": "1", "nodes_expanded": "999", "instance": "prb343", "end_time": "1.51683090765e+12", "optimal_length": "14", "subject": "A1LR0VQIHQUJAM"}
{"rt": "97328.0", "trial_number": "1", "skipped": "True", "complete": "False", "assignment": "3YW4XOSQKRTI0K0Z2YPDTDJVFABU1I", "start_time": "1.51683090765e+12", "human_length": "119", "nodes_expanded": "999", "instance": "prb343", "end_time": "1.51683100498e+12", "optimal_length": "14", "subject": "A1LR0VQIHQUJAM"}
{"rt": "13352.0", "trial_number": "0", "skipped": "False", "complete": "False", "assignment": "3VE8AYVF8N5BS2NU6U3TMN50JMNF8V", "start_time": "1.51673695088e+12", "human_length": "4", "nodes_expanded": "999", "instance": "prb343", "end_time": "1.51673696423e+12", "optimal_length": "14", "subject": "A18QU0YQB6Q8DF"}
{"rt": "13406.0", "trial_number": "1", "skipped": "False", "complete": "False", "assignment": "3VE8AYVF8N5BS2NU6U3TMN50JMNF8V", "start_time": "1.5167369695e+12", "human_length": "7", "nodes_expanded": "999", "instance": "prb343", "end_time": "1.5167369829e+12", "optimal_length": "14", "subject": "A18QU0YQB6Q8DF"}
{"rt": "19402.0", "trial_number": "2", "skipped": "True", "complete": "False", "assignment": "3VE8AYVF8N5BS2NU6U3TMN50JMNF8V", "start_time": "1.51673698989e+12", "human_length": "10", "nodes_expanded": "999", "instance": "prb343", "end_time": "1.51673700929e+12", "optimal_length": "14", "subject": "A18QU0YQB6Q8DF"}
{"rt": "30011.0", "trial_number": "0", "skipped": "False", "complete": "True", "assignment": "3X87C8JFV7JQ2BSCY8KSFD9F2ILSQK", "start_time": "1.51673853164e+12", "human_length": "15", "nodes_expanded": "999", "instance": "prb343", "end_time": "1.51673856166e+12", "optimal_length": "14", "subject": "A3Q0XAGQ7TD7MP"}
{"rt": "122272.0", "trial_number": "1", "skipped": "False", "complete": "True", "assignment": "3GLB5JMZFY3TNXFGYMKRQ0JDXNTDGZ", "start_time": "1.51794737032e+12", "human_length": "52", "nodes_expanded": "999", "instance": "prb343", "end_time": "1.51794749259e+12", "optimal_length": "14", "subject": "A3Q0XAGQ7TD7MP"}
{"rt": "15324.0", "trial_number": "0", "skipped": "True", "complete": "False", "assignment": "3WSELTNVR4AZUVYAYCSWZIQW0J4ATB", "start_time": "1.5167403219e+12", "human_length": "16", "nodes_expanded": "999", "instance": "prb343", "end_time": "1.51674033722e+12", "optimal_length": "14", "subject": "A2TQNX64349OZ9"}
{"rt": "81218.0", "trial_number": "0", "skipped": "False", "complete": "False", "assignment": "3IJXV6UZ1YR1KY4G6BFEG1DXP7SRI1", "start_time": "1.51675024903e+12", "human_length": "45", "nodes_expanded": "999", "instance": "prb343", "end_time": "1.51675033025e+12", "optimal_length": "14", "subject": "A2RTJ6BDY0DZVZ"}
{"rt": "74162.0", "trial_number": "1", "skipped": "False", "complete": "False", "assignment": "3IJXV6UZ1YR1KY4G6BFEG1DXP7SRI1", "start_time": "1.51675033318e+12", "human_length": "43", "nodes_expanded": "999", "instance": "prb343", "end_time": "1.51675040734e+12", "optimal_length": "14", "subject": "A2RTJ6BDY0DZVZ"}
{"rt": "54041.0", "trial_number": "2", "skipped": "False", "complete": "True", "assignment": "3IJXV6UZ1YR1KY4G6BFEG1DXP7SRI1", "start_time": "1.51675040973e+12", "human_length": "33", "nodes_expanded": "999", "instance": "prb343", "end_time": "1.51675046378e+12", "optimal_length": "14", "subject": "A2RTJ6BDY0DZVZ"}
{"rt": "333133.0", "trial_number": "0", "skipped": "False", "complete": "True", "assignment": "3I2PTA7R3U2SESF4TZBQORI5LSJQKK", "start_time": "1.51675871097e+12", "human_length": "154", "nodes_expanded": "999", "instance": "prb343", "end_time": "1.5167590441e+12", "optimal_length": "14", "subject": "A3NMQ3019X6YE0"}
{"rt": "125078.0", "trial_number": "1", "skipped": "False", "complete": "False", "assignment": "3V5Q80FXIYZ5QB5C6ITQBN30WY823U", "start_time": "1.51753549878e+12", "human_length": "74", "nodes_expanded": "999", "instance": "prb343", "end_time": "1.51753562386e+12", "optimal_length": "14", "subject": "A3NMQ3019X6YE0"}
{"rt": "68724.0", "trial_number": "2", "skipped": "True", "complete": "False", "assignment": "3V5Q80FXIYZ5QB5C6ITQBN30WY823U", "start_time": "1.51753564983e+12", "human_length": "27", "nodes_expanded": "999", "instance": "prb343", "end_time": "1.51753571855e+12", "optimal_length": "14", "subject": "A3NMQ3019X6YE0"}
{"rt": "28456.0", "trial_number": "0", "skipped": "False", "complete": "True", "assignment": "3YW4XOSQKRTI0K0Z2YPDTDJVFABU1I", "start_time": "1.51682324274e+12", "human_length": "21", "nodes_expanded": "999", "instance": "prb343", "end_time": "1.5168232712e+12", "optimal_length": "14", "subject": "A15781PHGW377Y"}
{"rt": "103329.0", "trial_number": "0", "skipped": "False", "complete": "False", "assignment": "3TS1AR6UQRM7SOIBWPBN8N9589Y7FV", "start_time": "1.51683835462e+12", "human_length": "84", "nodes_expanded": "999", "instance": "prb343", "end_time": "1.51683845795e+12", "optimal_length": "14", "subject": "A1F4N58CAX8IMK"}
{"rt": "23556.0", "trial_number": "1", "skipped": "False", "complete": "True", "assignment": "35DR22AR5ES6RR89U7EJ1DXW91AX3P", "start_time": "1.51795335389e+12", "human_length": "25", "nodes_expanded": "999", "instance": "prb343", "end_time": "1.51795337745e+12", "optimal_length": "14", "subject": "A1F4N58CAX8IMK"}
{"rt": "24062.0", "trial_number": "0", "skipped": "True", "complete": "False", "assignment": "31LM9EDVOM0C0BWUVMJXJINN3QPJNI", "start_time": "1.51752404544e+12", "human_length": "19", "nodes_expanded": "999", "instance": "prb343", "end_time": "1.51752406951e+12", "optimal_length": "14", "subject": "A1NT8BT94ME6F5"}
{"rt": "73218.0", "trial_number": "0", "skipped": "True", "complete": "False", "assignment": "37TD41K0AIHM8AITTQJXV8KY05QCSB", "start_time": "1.51752513074e+12", "human_length": "34", "nodes_expanded": "999", "instance": "prb343", "end_time": "1.51752520396e+12", "optimal_length": "14", "subject": "A30KYQGABO7JER"}
{"rt": "88359.0", "trial_number": "0", "skipped": "False", "complete": "True", "assignment": "36H9ULYP6320CJJDXY0KBDEE1Z3JFB", "start_time": "1.51753250461e+12", "human_length": "51", "nodes_expanded": "999", "instance": "prb343", "end_time": "1.51753259297e+12", "optimal_length": "14", "subject": "AN098C29EGJ6"}
{"rt": "152550.0", "trial_number": "0", "skipped": "False", "complete": "False", "assignment": "3TYCR1GOTDRCCQYD1V64UK7OHTBZLQ", "start_time": "1.51753515127e+12", "human_length": "121", "nodes_expanded": "999", "instance": "prb343", "end_time": "1.51753530382e+12", "optimal_length": "14", "subject": "A13BZCNJ0WR1T7"}
{"rt": "71129.0", "trial_number": "1", "skipped": "False", "complete": "True", "assignment": "3TYCR1GOTDRCCQYD1V64UK7OHTBZLQ", "start_time": "1.5175353068e+12", "human_length": "58", "nodes_expanded": "999", "instance": "prb343", "end_time": "1.51753537793e+12", "optimal_length": "14", "subject": "A13BZCNJ0WR1T7"}
{"rt": "40468.0", "trial_number": "0", "skipped": "False", "complete": "True", "assignment": "34HJIJKLP64Z5YMIU6IKNXSH7PDV4I", "start_time": "1.517942226e+12", "human_length": "28", "nodes_expanded": "999", "instance": "prb343", "end_time": "1.51794226647e+12", "optimal_length": "14", "subject": "A3CTXNQ2GXIQSP"}
{"rt": "28938.0", "trial_number": "0", "skipped": "False", "complete": "False", "assignment": "30IQTZXKALEAAZ9CBKW0ZFZP6O5X07", "start_time": "1.51794684105e+12", "human_length": "13", "nodes_expanded": "999", "instance": "prb343", "end_time": "1.51794686998e+12", "optimal_length": "14", "subject": "A23XJ8I86R0O3B"}
{"rt": "45310.0", "trial_number": "1", "skipped": "True", "complete": "False", "assignment": "30IQTZXKALEAAZ9CBKW0ZFZP6O5X07", "start_time": "1.51794687431e+12", "human_length": "28", "nodes_expanded": "999", "instance": "prb343", "end_time": "1.51794691962e+12", "optimal_length": "14", "subject": "A23XJ8I86R0O3B"}
{"rt": "22045.0", "trial_number": "0", "skipped": "False", "complete": "False", "assignment": "3STRJBFXOXZ5687WA35LTWTS7QZKTT", "start_time": "1.51794626818e+12", "human_length": "19", "nodes_expanded": "999", "instance": "prb343", "end_time": "1.51794629023e+12", "optimal_length": "14", "subject": "A3OB6REG5CGHK1"}
{"rt": "0.0", "trial_number": "1", "skipped": "False", "complete": "False", "assignment": "3STRJBFXOXZ5687WA35LTWTS7QZKTT", "start_time": "1.51794631121e+12", "human_length": "1", "nodes_expanded": "999", "instance": "prb343", "end_time": "1.51794631121e+12", "optimal_length": "14", "subject": "A3OB6REG5CGHK1"}
{"rt": "0.0", "trial_number": "2", "skipped": "False", "complete": "False", "assignment": "3STRJBFXOXZ5687WA35LTWTS7QZKTT", "start_time": "1.51794631123e+12", "human_length": "1", "nodes_expanded": "999", "instance": "prb343", "end_time": "1.51794631123e+12", "optimal_length": "14", "subject": "A3OB6REG5CGHK1"}
{"rt": "8925.0", "trial_number": "3", "skipped": "False", "complete": "False", "assignment": "3STRJBFXOXZ5687WA35LTWTS7QZKTT", "start_time": "1.51794631125e+12", "human_length": "2", "nodes_expanded": "999", "instance": "prb343", "end_time": "1.51794632017e+12", "optimal_length": "14", "subject": "A3OB6REG5CGHK1"}
{"rt": "18433.0", "trial_number": "4", "skipped": "False", "complete": "True", "assignment": "3STRJBFXOXZ5687WA35LTWTS7QZKTT", "start_time": "1.51794632335e+12", "human_length": "14", "nodes_expanded": "999", "instance": "prb343", "end_time": "1.51794634178e+12", "optimal_length": "14", "subject": "A3OB6REG5CGHK1"}
{"rt": "65685.0", "trial_number": "0", "skipped": "False", "complete": "True", "assignment": "3JCG6DTRV4YEPVDZ64VNKDUEMPGQQ1", "start_time": "1.51794754121e+12", "human_length": "33", "nodes_expanded": "999", "instance": "prb343", "end_time": "1.51794760689e+12", "optimal_length": "14", "subject": "A2V7KYLBCBTI3B"}
{"rt": "30685.0", "trial_number": "0", "skipped": "False", "complete": "True", "assignment": "33PPO7FECWN7JOLBOAKUBCWTC0AIDL", "start_time": "1.51795098253e+12", "human_length": "14", "nodes_expanded": "999", "instance": "prb343", "end_time": "1.51795101321e+12", "optimal_length": "14", "subject": "AXKM02NVXNGOM"}
{"rt": "76890.0", "trial_number": "0", "skipped": "False", "complete": "True", "assignment": "3HYA4D452SR06NL5QDUSCWSXZI12FF", "start_time": "1.51795009311e+12", "human_length": "32", "nodes_expanded": "999", "instance": "prb343", "end_time": "1.51795017e+12", "optimal_length": "14", "subject": "A2OFWHV8IP7HK"}
{"rt": "66959.0", "trial_number": "0", "skipped": "False", "complete": "True", "assignment": "3PB5A5BD0WED6OE679H5Q89HBDGG71", "start_time": "1.51795302077e+12", "human_length": "47", "nodes_expanded": "999", "instance": "prb343", "end_time": "1.51795308773e+12", "optimal_length": "14", "subject": "A1USR9JCAMDGM3"}
{"rt": "38467.0", "trial_number": "0", "skipped": "False", "complete": "True", "assignment": "3R5F3LQFV3SKIB1AENMWM1BICT5OZB", "start_time": "1.51795747368e+12", "human_length": "29", "nodes_expanded": "999", "instance": "prb343", "end_time": "1.51795751215e+12", "optimal_length": "14", "subject": "A1N1EF0MIRSEZZ"}
{"rt": "40816.0", "trial_number": "0", "skipped": "False", "complete": "True", "assignment": "33F859I567LE8WC74WB3GA7E94XBHW", "start_time": "1.5179696287e+12", "human_length": "37", "nodes_expanded": "999", "instance": "prb343", "end_time": "1.51796966951e+12", "optimal_length": "14", "subject": "A1GQS6USF2JEYG"}
{"rt": "149018.0", "trial_number": "0", "skipped": "False", "complete": "True", "assignment": "3IJXV6UZ1YR1KY4G6BFEG1DXR47RIC", "start_time": "1.51797470479e+12", "human_length": "138", "nodes_expanded": "999", "instance": "prb343", "end_time": "1.5179748538e+12", "optimal_length": "14", "subject": "A18T3WK7J16C1B"}
{"rt": "54403.0", "trial_number": "0", "skipped": "False", "complete": "True", "assignment": "3FTF2T8WLSQDHTSZ1BJ7Q7MB14SW9H", "start_time": "1.5181361332e+12", "human_length": "34", "nodes_expanded": "999", "instance": "prb343", "end_time": "1.51813618761e+12", "optimal_length": "14", "subject": "A1IUH9D7N69VS"}
{"rt": "91147.0", "trial_number": "0", "skipped": "False", "complete": "False", "assignment": "3XC1O3LBOTUGQEPEV3HM8W67X4RTLL", "start_time": "1.51813572295e+12", "human_length": "37", "nodes_expanded": "999", "instance": "prb343", "end_time": "1.5181358141e+12", "optimal_length": "14", "subject": "A1ZTSCPETU3UJW"}
{"rt": "57904.0", "trial_number": "1", "skipped": "True", "complete": "False", "assignment": "3XC1O3LBOTUGQEPEV3HM8W67X4RTLL", "start_time": "1.51813581799e+12", "human_length": "23", "nodes_expanded": "999", "instance": "prb343", "end_time": "1.5181358759e+12", "optimal_length": "14", "subject": "A1ZTSCPETU3UJW"}
{"rt": "143800.0", "trial_number": "0", "skipped": "True", "complete": "False", "assignment": "3TAYZSBPLMG9ASQRWXURJVBCPLN2SH", "start_time": "1.51813557642e+12", "human_length": "65", "nodes_expanded": "999", "instance": "prb343", "end_time": "1.51813572022e+12", "optimal_length": "14", "subject": "A2RCYLKY072XXO"}
{"rt": "95751.0", "trial_number": "0", "skipped": "False", "complete": "True", "assignment": "3ZSANO2JCGFTBM23KS9Y3E51YP4FSQ", "start_time": "1.51814219493e+12", "human_length": "61", "nodes_expanded": "999", "instance": "prb343", "end_time": "1.51814229068e+12", "optimal_length": "14", "subject": "A1F42D4L22K5ND"}
{"rt": "22297.0", "trial_number": "0", "skipped": "False", "complete": "False", "assignment": "3TMFV4NEP9MD3O9PWJDTQBR0HZYW8I", "start_time": "1.51814730398e+12", "human_length": "11", "nodes_expanded": "999", "instance": "prb343", "end_time": "1.51814732627e+12", "optimal_length": "14", "subject": "A3GOOI75XOF24V"}
{"rt": "49694.0", "trial_number": "1", "skipped": "False", "complete": "False", "assignment": "3TMFV4NEP9MD3O9PWJDTQBR0HZYW8I", "start_time": "1.51814732801e+12", "human_length": "14", "nodes_expanded": "999", "instance": "prb343", "end_time": "1.51814737771e+12", "optimal_length": "14", "subject": "A3GOOI75XOF24V"}
{"rt": "31556.0", "trial_number": "2", "skipped": "False", "complete": "False", "assignment": "3TMFV4NEP9MD3O9PWJDTQBR0HZYW8I", "start_time": "1.51814738751e+12", "human_length": "16", "nodes_expanded": "999", "instance": "prb343", "end_time": "1.51814741907e+12", "optimal_length": "14", "subject": "A3GOOI75XOF24V"}
{"rt": "73420.0", "trial_number": "3", "skipped": "False", "complete": "True", "assignment": "3TMFV4NEP9MD3O9PWJDTQBR0HZYW8I", "start_time": "1.51814742138e+12", "human_length": "34", "nodes_expanded": "999", "instance": "prb343", "end_time": "1.5181474948e+12", "optimal_length": "14", "subject": "A3GOOI75XOF24V"}
{"rt": "24470.0", "trial_number": "0", "skipped": "True", "complete": "False", "assignment": "3XLBSAQ9Z5KDX59BX15UBFPNNHYZ7Q", "start_time": "1.51814586089e+12", "human_length": "24", "nodes_expanded": "999", "instance": "prb343", "end_time": "1.51814588536e+12", "optimal_length": "14", "subject": "A1HFNOKU591WCY"}
{"rt": "0.0", "trial_number": "0", "skipped": "False", "complete": "False", "assignment": "3EWIJTFFVPF14ZIVGF68BQEIRXP0ER", "start_time": "1.51815054307e+12", "human_length": "1", "nodes_expanded": "999", "instance": "prb343", "end_time": "1.51815054307e+12", "optimal_length": "14", "subject": "A30AGR5KF8IEL"}
{"rt": "5961.0", "trial_number": "1", "skipped": "False", "complete": "False", "assignment": "3EWIJTFFVPF14ZIVGF68BQEIRXP0ER", "start_time": "1.51815054309e+12", "human_length": "2", "nodes_expanded": "999", "instance": "prb343", "end_time": "1.51815054906e+12", "optimal_length": "14", "subject": "A30AGR5KF8IEL"}
{"rt": "0.0", "trial_number": "2", "skipped": "False", "complete": "False", "assignment": "3EWIJTFFVPF14ZIVGF68BQEIRXP0ER", "start_time": "1.5181506257e+12", "human_length": "1", "nodes_expanded": "999", "instance": "prb343", "end_time": "1.5181506257e+12", "optimal_length": "14", "subject": "A30AGR5KF8IEL"}
{"rt": "4629.0", "trial_number": "3", "skipped": "False", "complete": "False", "assignment": "3EWIJTFFVPF14ZIVGF68BQEIRXP0ER", "start_time": "1.51815062572e+12", "human_length": "2", "nodes_expanded": "999", "instance": "prb343", "end_time": "1.51815063035e+12", "optimal_length": "14", "subject": "A30AGR5KF8IEL"}
{"rt": "66747.0", "trial_number": "4", "skipped": "False", "complete": "True", "assignment": "3EWIJTFFVPF14ZIVGF68BQEIRXP0ER", "start_time": "1.51815063194e+12", "human_length": "42", "nodes_expanded": "999", "instance": "prb343", "end_time": "1.51815069868e+12", "optimal_length": "14", "subject": "A30AGR5KF8IEL"}
{"rt": "223352.0", "trial_number": "0", "skipped": "False", "complete": "True", "assignment": "3FUI0JHJPY6UBT1VAI7VUX8S3KH33W", "start_time": "1.51815094052e+12", "human_length": "139", "nodes_expanded": "999", "instance": "prb343", "end_time": "1.51815116388e+12", "optimal_length": "14", "subject": "A2QIZ31TMHU0GD"}
{"rt": "0.0", "trial_number": "0", "skipped": "False", "complete": "False", "assignment": "3RUIQRXJBCWS71H9MUFVM5WQ3SCLLJ", "start_time": "1.51815886722e+12", "human_length": "1", "nodes_expanded": "999", "instance": "prb343", "end_time": "1.51815886722e+12", "optimal_length": "14", "subject": "A1SJRFJWFXSDH4"}
{"rt": "0.0", "trial_number": "1", "skipped": "False", "complete": "False", "assignment": "3RUIQRXJBCWS71H9MUFVM5WQ3SCLLJ", "start_time": "1.51815886724e+12", "human_length": "1", "nodes_expanded": "999", "instance": "prb343", "end_time": "1.51815886724e+12", "optimal_length": "14", "subject": "A1SJRFJWFXSDH4"}
{"rt": "0.0", "trial_number": "2", "skipped": "False", "complete": "False", "assignment": "3RUIQRXJBCWS71H9MUFVM5WQ3SCLLJ", "start_time": "1.51815886737e+12", "human_length": "1", "nodes_expanded": "999", "instance": "prb343", "end_time": "1.51815886737e+12", "optimal_length": "14", "subject": "A1SJRFJWFXSDH4"}
{"rt": "36859.0", "trial_number": "3", "skipped": "False", "complete": "True", "assignment": "3RUIQRXJBCWS71H9MUFVM5WQ3SCLLJ", "start_time": "1.51815886909e+12", "human_length": "22", "nodes_expanded": "999", "instance": "prb343", "end_time": "1.51815890595e+12", "optimal_length": "14", "subject": "A1SJRFJWFXSDH4"}
{"rt": "46153.0", "trial_number": "0", "skipped": "False", "complete": "True", "assignment": "37QW5D2ZRHUKW7SGCE3STMOFBMK8SX", "start_time": "1.51815975227e+12", "human_length": "22", "nodes_expanded": "999", "instance": "prb343", "end_time": "1.51815979842e+12", "optimal_length": "14", "subject": "AMW2XLD9443OH"}
{"rt": "54044.0", "trial_number": "0", "skipped": "False", "complete": "False", "assignment": "3M0BCWMB8W4W5M7WZVX3HDH1P53WB1", "start_time": "1.5181589302e+12", "human_length": "32", "nodes_expanded": "999", "instance": "prb343", "end_time": "1.51815898425e+12", "optimal_length": "14", "subject": "A53S7J4JGWG38"}
{"rt": "51594.0", "trial_number": "1", "skipped": "False", "complete": "True", "assignment": "3M0BCWMB8W4W5M7WZVX3HDH1P53WB1", "start_time": "1.51815898596e+12", "human_length": "25", "nodes_expanded": "999", "instance": "prb343", "end_time": "1.51815903755e+12", "optimal_length": "14", "subject": "A53S7J4JGWG38"}
{"rt": "94975.0", "trial_number": "0", "skipped": "True", "complete": "False", "assignment": "3SITXWYCNWHBUMCM90TPJWV8Y7AXBW", "start_time": "1.51816614190e+12", "human_length": "47", "nodes_expanded": "999", "instance": "prb343", "end_time": "1.51816623688e+12", "optimal_length": "14", "subject": "A28RX7L0QZ993M"}
{"rt": "46208.0", "trial_number": "0", "skipped": "False", "complete": "True", "assignment": "3IXEICO793RY7TM78ZBKJDOA7ADT6Q", "start_time": "1.51816932666e+12", "human_length": "39", "nodes_expanded": "999", "instance": "prb343", "end_time": "1.51816937286e+12", "optimal_length": "14", "subject": "ALH1K6ZAQQMN7"}
