{"rt": "25967.0", "trial_number": "0", "skipped": "False", "complete": "True", "assignment": "3TYCR1GOTDRCCQYD1V64UK7OHTBZLQ", "start_time": "1.51753670339e+12", "human_length": "22", "nodes_expanded": "999", "instance": "prb3203", "end_time": "1.51753672935e+12", "optimal_length": "14", "subject": "A13BZCNJ0WR1T7"}
{"rt": "30700.0", "trial_number": "0", "skipped": "False", "complete": "True", "assignment": "3IJXV6UZ1YR1KY4G6BFEG1DXR47RIC", "start_time": "1.51797348392e+12", "human_length": "25", "nodes_expanded": "999", "instance": "prb3203", "end_time": "1.51797351462e+12", "optimal_length": "14", "subject": "A18T3WK7J16C1B"}
{"rt": "21257.0", "trial_number": "0", "skipped": "False", "complete": "True", "assignment": "3PMBY0YE28B43VMUKKJ6EDF85RV9C8", "start_time": "1.51638789859e+12", "human_length": "19", "nodes_expanded": "999", "instance": "prb3203", "end_time": "1.51638791985e+12", "optimal_length": "14", "subject": "A191V7PT3DQKDP"}
{"rt": "0.0", "trial_number": "0", "skipped": "False", "complete": "False", "assignment": "3H0W84IWBLAP4T2UASPNVMF5ZH7ER9", "start_time": "1.51755544895e+12", "human_length": "1", "nodes_expanded": "999", "instance": "prb3203", "end_time": "1.51755544895e+12", "optimal_length": "14", "subject": "A1AKX1C8GCVCTP"}
{"rt": "0.0", "trial_number": "1", "skipped": "False", "complete": "False", "assignment": "3H0W84IWBLAP4T2UASPNVMF5ZH7ER9", "start_time": "1.51755544897e+12", "human_length": "1", "nodes_expanded": "999", "instance": "prb3203", "end_time": "1.51755544897e+12", "optimal_length": "14", "subject": "A1AKX1C8GCVCTP"}
{"rt": "0.0", "trial_number": "2", "skipped": "False", "complete": "False", "assignment": "3H0W84IWBLAP4T2UASPNVMF5ZH7ER9", "start_time": "1.51755545045e+12", "human_length": "1", "nodes_expanded": "999", "instance": "prb3203", "end_time": "1.51755545045e+12", "optimal_length": "14", "subject": "A1AKX1C8GCVCTP"}
{"rt": "0.0", "trial_number": "3", "skipped": "False", "complete": "False", "assignment": "3H0W84IWBLAP4T2UASPNVMF5ZH7ER9", "start_time": "1.51755545047e+12", "human_length": "1", "nodes_expanded": "999", "instance": "prb3203", "end_time": "1.51755545047e+12", "optimal_length": "14", "subject": "A1AKX1C8GCVCTP"}
{"rt": "11495.0", "trial_number": "4", "skipped": "False", "complete": "False", "assignment": "3H0W84IWBLAP4T2UASPNVMF5ZH7ER9", "start_time": "1.51755545269e+12", "human_length": "4", "nodes_expanded": "999", "instance": "prb3203", "end_time": "1.51755546419e+12", "optimal_length": "14", "subject": "A1AKX1C8GCVCTP"}
{"rt": "77639.0", "trial_number": "5", "skipped": "False", "complete": "False", "assignment": "3H0W84IWBLAP4T2UASPNVMF5ZH7ER9", "start_time": "1.51755547108e+12", "human_length": "45", "nodes_expanded": "999", "instance": "prb3203", "end_time": "1.51755554872e+12", "optimal_length": "14", "subject": "A1AKX1C8GCVCTP"}
{"rt": "0.0", "trial_number": "6", "skipped": "False", "complete": "False", "assignment": "3H0W84IWBLAP4T2UASPNVMF5ZH7ER9", "start_time": "1.51755560253e+12", "human_length": "1", "nodes_expanded": "999", "instance": "prb3203", "end_time": "1.51755560253e+12", "optimal_length": "14", "subject": "A1AKX1C8GCVCTP"}
{"rt": "0.0", "trial_number": "7", "skipped": "False", "complete": "False", "assignment": "3H0W84IWBLAP4T2UASPNVMF5ZH7ER9", "start_time": "1.51755560256e+12", "human_length": "1", "nodes_expanded": "999", "instance": "prb3203", "end_time": "1.51755560256e+12", "optimal_length": "14", "subject": "A1AKX1C8GCVCTP"}
{"rt": "45120.0", "trial_number": "8", "skipped": "False", "complete": "False", "assignment": "3H0W84IWBLAP4T2UASPNVMF5ZH7ER9", "start_time": "1.51755560458e+12", "human_length": "3", "nodes_expanded": "999", "instance": "prb3203", "end_time": "1.5175556497e+12", "optimal_length": "14", "subject": "A1AKX1C8GCVCTP"}
{"rt": "38544.0", "trial_number": "9", "skipped": "False", "complete": "True", "assignment": "3H0W84IWBLAP4T2UASPNVMF5ZH7ER9", "start_time": "1.51755565482e+12", "human_length": "25", "nodes_expanded": "999", "instance": "prb3203", "end_time": "1.51755569336e+12", "optimal_length": "14", "subject": "A1AKX1C8GCVCTP"}
{"rt": "21830.0", "trial_number": "0", "skipped": "False", "complete": "True", "assignment": "3ZSANO2JCGFTBM23KS9Y3E51YP4FSQ", "start_time": "1.51814298543e+12", "human_length": "17", "nodes_expanded": "999", "instance": "prb3203", "end_time": "1.51814300726e+12", "optimal_length": "14", "subject": "A1F42D4L22K5ND"}
{"rt": "24364.0", "trial_number": "0", "skipped": "False", "complete": "True", "assignment": "3TS1AR6UQRM7SOIBWPBN8N9589Y7FV", "start_time": "1.51683896643e+12", "human_length": "22", "nodes_expanded": "999", "instance": "prb3203", "end_time": "1.5168389908e+12", "optimal_length": "14", "subject": "A1F4N58CAX8IMK"}
{"rt": "62560.0", "trial_number": "1", "skipped": "False", "complete": "True", "assignment": "35DR22AR5ES6RR89U7EJ1DXW91AX3P", "start_time": "1.51795497223e+12", "human_length": "56", "nodes_expanded": "999", "instance": "prb3203", "end_time": "1.51795503479e+12", "optimal_length": "14", "subject": "A1F4N58CAX8IMK"}
{"rt": "52349.0", "trial_number": "0", "skipped": "False", "complete": "False", "assignment": "33F859I567LE8WC74WB3GA7E94XBHW", "start_time": "1.51796771828e+12", "human_length": "25", "nodes_expanded": "999", "instance": "prb3203", "end_time": "1.51796777063e+12", "optimal_length": "14", "subject": "A1GQS6USF2JEYG"}
{"rt": "42331.0", "trial_number": "1", "skipped": "False", "complete": "True", "assignment": "33F859I567LE8WC74WB3GA7E94XBHW", "start_time": "1.51796777332e+12", "human_length": "20", "nodes_expanded": "999", "instance": "prb3203", "end_time": "1.51796781565e+12", "optimal_length": "14", "subject": "A1GQS6USF2JEYG"}
{"rt": "44520.0", "trial_number": "0", "skipped": "False", "complete": "True", "assignment": "3XLBSAQ9Z5KDX59BX15UBFPNNHYZ7Q", "start_time": "1.51814727956e+12", "human_length": "37", "nodes_expanded": "999", "instance": "prb3203", "end_time": "1.51814732408e+12", "optimal_length": "14", "subject": "A1HFNOKU591WCY"}
{"rt": "36605.0", "trial_number": "0", "skipped": "False", "complete": "True", "assignment": "3FTF2T8WLSQDHTSZ1BJ7Q7MB14SW9H", "start_time": "1.5181357713e+12", "human_length": "22", "nodes_expanded": "999", "instance": "prb3203", "end_time": "1.5181358079e+12", "optimal_length": "14", "subject": "A1IUH9D7N69VS"}
{"rt": "0.0", "trial_number": "0", "skipped": "False", "complete": "False", "assignment": "3YW4XOSQKRTI0K0Z2YPDTDJVFABU1I", "start_time": "1.5168310108e+12", "human_length": "1", "nodes_expanded": "999", "instance": "prb3203", "end_time": "1.5168310108e+12", "optimal_length": "14", "subject": "A1LR0VQIHQUJAM"}
{"rt": "45839.0", "trial_number": "1", "skipped": "False", "complete": "True", "assignment": "3YW4XOSQKRTI0K0Z2YPDTDJVFABU1I", "start_time": "1.5168310108e+12", "human_length": "37", "nodes_expanded": "999", "instance": "prb3203", "end_time": "1.51683105664e+12", "optimal_length": "14", "subject": "A1LR0VQIHQUJAM"}
{"rt": "47926.0", "trial_number": "0", "skipped": "True", "complete": "False", "assignment": "3R5F3LQFV3SKIB1AENMWM1BICT5OZB", "start_time": "1.5179581368e+12", "human_length": "31", "nodes_expanded": "999", "instance": "prb3203", "end_time": "1.51795818472e+12", "optimal_length": "14", "subject": "A1N1EF0MIRSEZZ"}
{"rt": "12371.0", "trial_number": "0", "skipped": "True", "complete": "False", "assignment": "31LM9EDVOM0C0BWUVMJXJINN3QPJNI", "start_time": "1.51752564298e+12", "human_length": "7", "nodes_expanded": "999", "instance": "prb3203", "end_time": "1.51752565535e+12", "optimal_length": "14", "subject": "A1NT8BT94ME6F5"}
{"rt": "72194.0", "trial_number": "0", "skipped": "False", "complete": "True", "assignment": "3PB5A5BD0WED6OE679H5Q89HBDGG71", "start_time": "1.51795353514e+12", "human_length": "44", "nodes_expanded": "999", "instance": "prb3203", "end_time": "1.51795360734e+12", "optimal_length": "14", "subject": "A1USR9JCAMDGM3"}
{"rt": "35370.0", "trial_number": "0", "skipped": "False", "complete": "True", "assignment": "3M0BCWMB8W4W5M7WZVX3HDH1M3FBWL", "start_time": "1.51684196838e+12", "human_length": "20", "nodes_expanded": "999", "instance": "prb3203", "end_time": "1.51684200375e+12", "optimal_length": "14", "subject": "A1XDMS0KFSF5JW"}
{"rt": "72423.0", "trial_number": "0", "skipped": "False", "complete": "False", "assignment": "3XC1O3LBOTUGQEPEV3HM8W67X4RTLL", "start_time": "1.51813634072e+12", "human_length": "31", "nodes_expanded": "999", "instance": "prb3203", "end_time": "1.51813641314e+12", "optimal_length": "14", "subject": "A1ZTSCPETU3UJW"}
{"rt": "45808.0", "trial_number": "1", "skipped": "False", "complete": "True", "assignment": "3XC1O3LBOTUGQEPEV3HM8W67X4RTLL", "start_time": "1.51813641424e+12", "human_length": "19", "nodes_expanded": "999", "instance": "prb3203", "end_time": "1.51813646005e+12", "optimal_length": "14", "subject": "A1ZTSCPETU3UJW"}
{"rt": "142313.0", "trial_number": "0", "skipped": "False", "complete": "False", "assignment": "34BBWHLWHBJ6SUL255PK30LEGY5IWG", "start_time": "1.51639215748e+12", "human_length": "17", "nodes_expanded": "999", "instance": "prb3203", "end_time": "1.5163922998e+12", "optimal_length": "14", "subject": "A214HWAW1PYWO8"}
{"rt": "28346.0", "trial_number": "1", "skipped": "False", "complete": "True", "assignment": "34BBWHLWHBJ6SUL255PK30LEGY5IWG", "start_time": "1.51639230419e+12", "human_length": "20", "nodes_expanded": "999", "instance": "prb3203", "end_time": "1.51639233254e+12", "optimal_length": "14", "subject": "A214HWAW1PYWO8"}
{"rt": "0.0", "trial_number": "0", "skipped": "False", "complete": "False", "assignment": "3X87C8JFV7JQ2BSCY8KSFD9F2ILSQK", "start_time": "1.51674809348e+12", "human_length": "1", "nodes_expanded": "999", "instance": "prb3203", "end_time": "1.51674809348e+12", "optimal_length": "14", "subject": "A21S7MA9DCW95E"}
{"rt": "0.0", "trial_number": "1", "skipped": "False", "complete": "False", "assignment": "3X87C8JFV7JQ2BSCY8KSFD9F2ILSQK", "start_time": "1.51674809348e+12", "human_length": "1", "nodes_expanded": "999", "instance": "prb3203", "end_time": "1.51674809348e+12", "optimal_length": "14", "subject": "A21S7MA9DCW95E"}
{"rt": "132237.0", "trial_number": "2", "skipped": "False", "complete": "True", "assignment": "3X87C8JFV7JQ2BSCY8KSFD9F2ILSQK", "start_time": "1.51674809348e+12", "human_length": "82", "nodes_expanded": "999", "instance": "prb3203", "end_time": "1.51674822572e+12", "optimal_length": "14", "subject": "A21S7MA9DCW95E"}
{"rt": "132237.0", "trial_number": "0", "skipped": "False", "complete": "True", "assignment": "3X87C8JFV7JQ2BSCY8KSFD9F2ILSQK", "start_time": "1.51674809348e+12", "human_length": "82", "nodes_expanded": "999", "instance": "prb3203", "end_time": "1.51674822572e+12", "optimal_length": "14", "subject": "A21S7MA9DCW95E"}
{"rt": "0.0", "trial_number": "0", "skipped": "False", "complete": "False", "assignment": "3IHR8NYAM89M0EPM8U9LH53ZJDTP4U", "start_time": "1.51682578816e+12", "human_length": "1", "nodes_expanded": "999", "instance": "prb3203", "end_time": "1.51682578816e+12", "optimal_length": "14", "subject": "A23437BMZ5T1FH"}
{"rt": "32162.0", "trial_number": "1", "skipped": "False", "complete": "True", "assignment": "3IHR8NYAM89M0EPM8U9LH53ZJDTP4U", "start_time": "1.51682578816e+12", "human_length": "27", "nodes_expanded": "999", "instance": "prb3203", "end_time": "1.51682582032e+12", "optimal_length": "14", "subject": "A23437BMZ5T1FH"}
{"rt": "83526.0", "trial_number": "0", "skipped": "False", "complete": "False", "assignment": "30IQTZXKALEAAZ9CBKW0ZFZP6O5X07", "start_time": "1.51794358136e+12", "human_length": "21", "nodes_expanded": "999", "instance": "prb3203", "end_time": "1.51794366489e+12", "optimal_length": "14", "subject": "A23XJ8I86R0O3B"}
{"rt": "63771.0", "trial_number": "1", "skipped": "False", "complete": "True", "assignment": "30IQTZXKALEAAZ9CBKW0ZFZP6O5X07", "start_time": "1.51794367328e+12", "human_length": "25", "nodes_expanded": "999", "instance": "prb3203", "end_time": "1.51794373705e+12", "optimal_length": "14", "subject": "A23XJ8I86R0O3B"}
{"rt": "37660.0", "trial_number": "0", "skipped": "False", "complete": "True", "assignment": "3ZV9H2YQQEFR2R3JK2IXZUJPXAF3WW", "start_time": "1.51630737985e+12", "human_length": "19", "nodes_expanded": "999", "instance": "prb3203", "end_time": "1.51630741751e+12", "optimal_length": "14", "subject": "A289D98Z4GAZ28"}
{"rt": "0.0", "trial_number": "0", "skipped": "False", "complete": "False", "assignment": "3X4MXAO0BHWJLTOLVSJTHSM54OHWRG", "start_time": "1.51682468037e+12", "human_length": "1", "nodes_expanded": "999", "instance": "prb3203", "end_time": "1.51682468037e+12", "optimal_length": "14", "subject": "A2IBQA01NR5N76"}
{"rt": "45967.0", "trial_number": "1", "skipped": "False", "complete": "True", "assignment": "3X4MXAO0BHWJLTOLVSJTHSM54OHWRG", "start_time": "1.51682468037e+12", "human_length": "26", "nodes_expanded": "999", "instance": "prb3203", "end_time": "1.51682472634e+12", "optimal_length": "14", "subject": "A2IBQA01NR5N76"}
{"rt": "73951.0", "trial_number": "0", "skipped": "False", "complete": "False", "assignment": "3TYCR1GOTDRCCQYD1V64UK7OE48LZS", "start_time": "1.51638958489e+12", "human_length": "39", "nodes_expanded": "999", "instance": "prb3203", "end_time": "1.51638965884e+12", "optimal_length": "14", "subject": "A2MYB6MLQW0IGN"}
{"rt": "0.0", "trial_number": "1", "skipped": "False", "complete": "False", "assignment": "3TYCR1GOTDRCCQYD1V64UK7OE48LZS", "start_time": "1.51638966568e+12", "human_length": "1", "nodes_expanded": "999", "instance": "prb3203", "end_time": "1.51638966568e+12", "optimal_length": "14", "subject": "A2MYB6MLQW0IGN"}
{"rt": "7166.0", "trial_number": "2", "skipped": "False", "complete": "False", "assignment": "3TYCR1GOTDRCCQYD1V64UK7OE48LZS", "start_time": "1.5163896657e+12", "human_length": "3", "nodes_expanded": "999", "instance": "prb3203", "end_time": "1.51638967286e+12", "optimal_length": "14", "subject": "A2MYB6MLQW0IGN"}
{"rt": "0.0", "trial_number": "3", "skipped": "False", "complete": "False", "assignment": "3TYCR1GOTDRCCQYD1V64UK7OE48LZS", "start_time": "1.51638968657e+12", "human_length": "1", "nodes_expanded": "999", "instance": "prb3203", "end_time": "1.51638968657e+12", "optimal_length": "14", "subject": "A2MYB6MLQW0IGN"}
{"rt": "20680.0", "trial_number": "4", "skipped": "False", "complete": "False", "assignment": "3TYCR1GOTDRCCQYD1V64UK7OE48LZS", "start_time": "1.5163896866e+12", "human_length": "5", "nodes_expanded": "999", "instance": "prb3203", "end_time": "1.51638970728e+12", "optimal_length": "14", "subject": "A2MYB6MLQW0IGN"}
{"rt": "65962.0", "trial_number": "5", "skipped": "False", "complete": "True", "assignment": "3TYCR1GOTDRCCQYD1V64UK7OE48LZS", "start_time": "1.51638971009e+12", "human_length": "31", "nodes_expanded": "999", "instance": "prb3203", "end_time": "1.51638977605e+12", "optimal_length": "14", "subject": "A2MYB6MLQW0IGN"}
{"rt": "41413.0", "trial_number": "0", "skipped": "True", "complete": "False", "assignment": "3TAYZSBPLMG9ASQRWXURJVBCPLN2SH", "start_time": "1.51813758672e+12", "human_length": "28", "nodes_expanded": "999", "instance": "prb3203", "end_time": "1.51813762813e+12", "optimal_length": "14", "subject": "A2RCYLKY072XXO"}
{"rt": "0.0", "trial_number": "0", "skipped": "False", "complete": "False", "assignment": "3WSELTNVR4AZUVYAYCSWZIQW0J4ATB", "start_time": "1.51673859771e+12", "human_length": "1", "nodes_expanded": "999", "instance": "prb3203", "end_time": "1.51673859771e+12", "optimal_length": "14", "subject": "A2TQNX64349OZ9"}
{"rt": "0.0", "trial_number": "1", "skipped": "False", "complete": "False", "assignment": "3WSELTNVR4AZUVYAYCSWZIQW0J4ATB", "start_time": "1.51673859771e+12", "human_length": "1", "nodes_expanded": "999", "instance": "prb3203", "end_time": "1.51673859771e+12", "optimal_length": "14", "subject": "A2TQNX64349OZ9"}
{"rt": "61258.0", "trial_number": "2", "skipped": "False", "complete": "True", "assignment": "3WSELTNVR4AZUVYAYCSWZIQW0J4ATB", "start_time": "1.51673859771e+12", "human_length": "48", "nodes_expanded": "999", "instance": "prb3203", "end_time": "1.51673865896e+12", "optimal_length": "14", "subject": "A2TQNX64349OZ9"}
{"rt": "61258.0", "trial_number": "0", "skipped": "False", "complete": "True", "assignment": "3WSELTNVR4AZUVYAYCSWZIQW0J4ATB", "start_time": "1.51673859771e+12", "human_length": "48", "nodes_expanded": "999", "instance": "prb3203", "end_time": "1.51673865896e+12", "optimal_length": "14", "subject": "A2TQNX64349OZ9"}
{"rt": "58355.0", "trial_number": "0", "skipped": "False", "complete": "False", "assignment": "3JCG6DTRV4YEPVDZ64VNKDUEMPGQQ1", "start_time": "1.51794655129e+12", "human_length": "24", "nodes_expanded": "999", "instance": "prb3203", "end_time": "1.51794660964e+12", "optimal_length": "14", "subject": "A2V7KYLBCBTI3B"}
{"rt": "41843.0", "trial_number": "1", "skipped": "False", "complete": "False", "assignment": "3JCG6DTRV4YEPVDZ64VNKDUEMPGQQ1", "start_time": "1.51794661603e+12", "human_length": "13", "nodes_expanded": "999", "instance": "prb3203", "end_time": "1.51794665788e+12", "optimal_length": "14", "subject": "A2V7KYLBCBTI3B"}
{"rt": "20058.0", "trial_number": "2", "skipped": "True", "complete": "False", "assignment": "3JCG6DTRV4YEPVDZ64VNKDUEMPGQQ1", "start_time": "1.5179466666e+12", "human_length": "8", "nodes_expanded": "999", "instance": "prb3203", "end_time": "1.51794668666e+12", "optimal_length": "14", "subject": "A2V7KYLBCBTI3B"}
{"rt": "0.0", "trial_number": "0", "skipped": "False", "complete": "False", "assignment": "3EWIJTFFVPF14ZIVGF68BQEIRXP0ER", "start_time": "1.51814854482e+12", "human_length": "1", "nodes_expanded": "999", "instance": "prb3203", "end_time": "1.51814854482e+12", "optimal_length": "14", "subject": "A30AGR5KF8IEL"}
{"rt": "0.0", "trial_number": "1", "skipped": "False", "complete": "False", "assignment": "3EWIJTFFVPF14ZIVGF68BQEIRXP0ER", "start_time": "1.51814854483e+12", "human_length": "1", "nodes_expanded": "999", "instance": "prb3203", "end_time": "1.51814854483e+12", "optimal_length": "14", "subject": "A30AGR5KF8IEL"}
{"rt": "18974.0", "trial_number": "2", "skipped": "False", "complete": "False", "assignment": "3EWIJTFFVPF14ZIVGF68BQEIRXP0ER", "start_time": "1.51814854484e+12", "human_length": "5", "nodes_expanded": "999", "instance": "prb3203", "end_time": "1.51814856382e+12", "optimal_length": "14", "subject": "A30AGR5KF8IEL"}
{"rt": "0.0", "trial_number": "3", "skipped": "False", "complete": "False", "assignment": "3EWIJTFFVPF14ZIVGF68BQEIRXP0ER", "start_time": "1.51814856422e+12", "human_length": "1", "nodes_expanded": "999", "instance": "prb3203", "end_time": "1.51814856422e+12", "optimal_length": "14", "subject": "A30AGR5KF8IEL"}
{"rt": "0.0", "trial_number": "4", "skipped": "False", "complete": "False", "assignment": "3EWIJTFFVPF14ZIVGF68BQEIRXP0ER", "start_time": "1.51814856423e+12", "human_length": "1", "nodes_expanded": "999", "instance": "prb3203", "end_time": "1.51814856423e+12", "optimal_length": "14", "subject": "A30AGR5KF8IEL"}
{"rt": "3134.0", "trial_number": "5", "skipped": "False", "complete": "False", "assignment": "3EWIJTFFVPF14ZIVGF68BQEIRXP0ER", "start_time": "1.51814856675e+12", "human_length": "2", "nodes_expanded": "999", "instance": "prb3203", "end_time": "1.51814856989e+12", "optimal_length": "14", "subject": "A30AGR5KF8IEL"}
{"rt": "0.0", "trial_number": "6", "skipped": "False", "complete": "False", "assignment": "3EWIJTFFVPF14ZIVGF68BQEIRXP0ER", "start_time": "1.51814857478e+12", "human_length": "1", "nodes_expanded": "999", "instance": "prb3203", "end_time": "1.51814857478e+12", "optimal_length": "14", "subject": "A30AGR5KF8IEL"}
{"rt": "0.0", "trial_number": "7", "skipped": "False", "complete": "False", "assignment": "3EWIJTFFVPF14ZIVGF68BQEIRXP0ER", "start_time": "1.51814857634e+12", "human_length": "1", "nodes_expanded": "999", "instance": "prb3203", "end_time": "1.51814857634e+12", "optimal_length": "14", "subject": "A30AGR5KF8IEL"}
{"rt": "0.0", "trial_number": "8", "skipped": "False", "complete": "False", "assignment": "3EWIJTFFVPF14ZIVGF68BQEIRXP0ER", "start_time": "1.51814857635e+12", "human_length": "1", "nodes_expanded": "999", "instance": "prb3203", "end_time": "1.51814857635e+12", "optimal_length": "14", "subject": "A30AGR5KF8IEL"}
{"rt": "0.0", "trial_number": "9", "skipped": "False", "complete": "False", "assignment": "3EWIJTFFVPF14ZIVGF68BQEIRXP0ER", "start_time": "1.51814857754e+12", "human_length": "1", "nodes_expanded": "999", "instance": "prb3203", "end_time": "1.51814857754e+12", "optimal_length": "14", "subject": "A30AGR5KF8IEL"}
{"rt": "0.0", "trial_number": "10", "skipped": "False", "complete": "False", "assignment": "3EWIJTFFVPF14ZIVGF68BQEIRXP0ER", "start_time": "1.51814857817e+12", "human_length": "1", "nodes_expanded": "999", "instance": "prb3203", "end_time": "1.51814857817e+12", "optimal_length": "14", "subject": "A30AGR5KF8IEL"}
{"rt": "0.0", "trial_number": "11", "skipped": "False", "complete": "False", "assignment": "3EWIJTFFVPF14ZIVGF68BQEIRXP0ER", "start_time": "1.51814857818e+12", "human_length": "1", "nodes_expanded": "999", "instance": "prb3203", "end_time": "1.51814857818e+12", "optimal_length": "14", "subject": "A30AGR5KF8IEL"}
{"rt": "0.0", "trial_number": "12", "skipped": "False", "complete": "False", "assignment": "3EWIJTFFVPF14ZIVGF68BQEIRXP0ER", "start_time": "1.51814858001e+12", "human_length": "1", "nodes_expanded": "999", "instance": "prb3203", "end_time": "1.51814858001e+12", "optimal_length": "14", "subject": "A30AGR5KF8IEL"}
{"rt": "0.0", "trial_number": "13", "skipped": "False", "complete": "False", "assignment": "3EWIJTFFVPF14ZIVGF68BQEIRXP0ER", "start_time": "1.51814858134e+12", "human_length": "1", "nodes_expanded": "999", "instance": "prb3203", "end_time": "1.51814858134e+12", "optimal_length": "14", "subject": "A30AGR5KF8IEL"}
{"rt": "0.0", "trial_number": "14", "skipped": "False", "complete": "False", "assignment": "3EWIJTFFVPF14ZIVGF68BQEIRXP0ER", "start_time": "1.51814858136e+12", "human_length": "1", "nodes_expanded": "999", "instance": "prb3203", "end_time": "1.51814858136e+12", "optimal_length": "14", "subject": "A30AGR5KF8IEL"}
{"rt": "0.0", "trial_number": "15", "skipped": "False", "complete": "False", "assignment": "3EWIJTFFVPF14ZIVGF68BQEIRXP0ER", "start_time": "1.51814858138e+12", "human_length": "1", "nodes_expanded": "999", "instance": "prb3203", "end_time": "1.51814858138e+12", "optimal_length": "14", "subject": "A30AGR5KF8IEL"}
{"rt": "0.0", "trial_number": "16", "skipped": "True", "complete": "False", "assignment": "3EWIJTFFVPF14ZIVGF68BQEIRXP0ER", "start_time": "1.51814858358e+12", "human_length": "1", "nodes_expanded": "999", "instance": "prb3203", "end_time": "1.51814858358e+12", "optimal_length": "14", "subject": "A30AGR5KF8IEL"}
{"rt": "26111.0", "trial_number": "0", "skipped": "False", "complete": "True", "assignment": "37TD41K0AIHM8AITTQJXV8KY05QCSB", "start_time": "1.5175250248e+12", "human_length": "17", "nodes_expanded": "999", "instance": "prb3203", "end_time": "1.51752505091e+12", "optimal_length": "14", "subject": "A30KYQGABO7JER"}
{"rt": "26397.0", "trial_number": "0", "skipped": "False", "complete": "True", "assignment": "34HJIJKLP64Z5YMIU6IKNXSH7PDV4I", "start_time": "1.51794308679e+12", "human_length": "16", "nodes_expanded": "999", "instance": "prb3203", "end_time": "1.51794311318e+12", "optimal_length": "14", "subject": "A3CTXNQ2GXIQSP"}
{"rt": "29256.0", "trial_number": "0", "skipped": "False", "complete": "True", "assignment": "3TPWUS5F8A9FFRZ2DVTYSXNJ6BWWC6", "start_time": "1.51794084166e+12", "human_length": "24", "nodes_expanded": "999", "instance": "prb3203", "end_time": "1.51794087092e+12", "optimal_length": "14", "subject": "A3GXC3VG37CQ3G"}
{"rt": "69745.0", "trial_number": "0", "skipped": "False", "complete": "True", "assignment": "3V5Q80FXIYZ5QB5C6ITQBN30WY823U", "start_time": "1.51753572719e+12", "human_length": "42", "nodes_expanded": "999", "instance": "prb3203", "end_time": "1.51753579693e+12", "optimal_length": "14", "subject": "A3NMQ3019X6YE0"}
{"rt": "69745.0", "trial_number": "0", "skipped": "False", "complete": "True", "assignment": "3V5Q80FXIYZ5QB5C6ITQBN30WY823U", "start_time": "1.51753572719e+12", "human_length": "42", "nodes_expanded": "999", "instance": "prb3203", "end_time": "1.51753579693e+12", "optimal_length": "14", "subject": "A3NMQ3019X6YE0"}
{"rt": "0.0", "trial_number": "0", "skipped": "False", "complete": "False", "assignment": "3X87C8JFV7JQ2BSCY8KSFD9F2ILSQK", "start_time": "1.51673961108e+12", "human_length": "1", "nodes_expanded": "999", "instance": "prb3203", "end_time": "1.51673961108e+12", "optimal_length": "14", "subject": "A3Q0XAGQ7TD7MP"}
{"rt": "0.0", "trial_number": "1", "skipped": "False", "complete": "False", "assignment": "3X87C8JFV7JQ2BSCY8KSFD9F2ILSQK", "start_time": "1.51673961108e+12", "human_length": "1", "nodes_expanded": "999", "instance": "prb3203", "end_time": "1.51673961108e+12", "optimal_length": "14", "subject": "A3Q0XAGQ7TD7MP"}
{"rt": "90161.0", "trial_number": "2", "skipped": "False", "complete": "True", "assignment": "3X87C8JFV7JQ2BSCY8KSFD9F2ILSQK", "start_time": "1.51673961108e+12", "human_length": "34", "nodes_expanded": "999", "instance": "prb3203", "end_time": "1.51673970124e+12", "optimal_length": "14", "subject": "A3Q0XAGQ7TD7MP"}
{"rt": "54296.0", "trial_number": "3", "skipped": "False", "complete": "True", "assignment": "3GLB5JMZFY3TNXFGYMKRQ0JDXNTDGZ", "start_time": "1.51794804984e+12", "human_length": "22", "nodes_expanded": "999", "instance": "prb3203", "end_time": "1.51794810414e+12", "optimal_length": "14", "subject": "A3Q0XAGQ7TD7MP"}
{"rt": "90161.0", "trial_number": "0", "skipped": "False", "complete": "True", "assignment": "3X87C8JFV7JQ2BSCY8KSFD9F2ILSQK", "start_time": "1.51673961108e+12", "human_length": "34", "nodes_expanded": "999", "instance": "prb3203", "end_time": "1.51673970124e+12", "optimal_length": "14", "subject": "A3Q0XAGQ7TD7MP"}
{"rt": "54296.0", "trial_number": "1", "skipped": "False", "complete": "True", "assignment": "3GLB5JMZFY3TNXFGYMKRQ0JDXNTDGZ", "start_time": "1.51794804984e+12", "human_length": "22", "nodes_expanded": "999", "instance": "prb3203", "end_time": "1.51794810414e+12", "optimal_length": "14", "subject": "A3Q0XAGQ7TD7MP"}
{"rt": "49628.0", "trial_number": "0", "skipped": "False", "complete": "True", "assignment": "3M0BCWMB8W4W5M7WZVX3HDH1P53WB1", "start_time": "1.5181580184e+12", "human_length": "25", "nodes_expanded": "999", "instance": "prb3203", "end_time": "1.51815806803e+12", "optimal_length": "14", "subject": "A53S7J4JGWG38"}
{"rt": "0.0", "trial_number": "0", "skipped": "True", "complete": "False", "assignment": "33PPO7FECWN7JOLBOAKUBCWTC0AIDL", "start_time": "1.51794280241e+12", "human_length": "1", "nodes_expanded": "999", "instance": "prb3203", "end_time": "1.51794280241e+12", "optimal_length": "14", "subject": "AB5IVPS4OP9M7"}
{"rt": "26332.0", "trial_number": "0", "skipped": "False", "complete": "True", "assignment": "3IXEICO793RY7TM78ZBKJDOA7ADT6Q", "start_time": "1.51816911128e+12", "human_length": "21", "nodes_expanded": "999", "instance": "prb3203", "end_time": "1.51816913761e+12", "optimal_length": "14", "subject": "ALH1K6ZAQQMN7"}
{"rt": "0.0", "trial_number": "0", "skipped": "False", "complete": "False", "assignment": "37QW5D2ZRHUKW7SGCE3STMOFBMK8SX", "start_time": "1.51815816389e+12", "human_length": "1", "nodes_expanded": "999", "instance": "prb3203", "end_time": "1.51815816389e+12", "optimal_length": "14", "subject": "AMW2XLD9443OH"}
{"rt": "0.0", "trial_number": "1", "skipped": "False", "complete": "False", "assignment": "37QW5D2ZRHUKW7SGCE3STMOFBMK8SX", "start_time": "1.51815816427e+12", "human_length": "1", "nodes_expanded": "999", "instance": "prb3203", "end_time": "1.51815816427e+12", "optimal_length": "14", "subject": "AMW2XLD9443OH"}
{"rt": "34371.0", "trial_number": "2", "skipped": "False", "complete": "False", "assignment": "37QW5D2ZRHUKW7SGCE3STMOFBMK8SX", "start_time": "1.51815816692e+12", "human_length": "5", "nodes_expanded": "999", "instance": "prb3203", "end_time": "1.51815820129e+12", "optimal_length": "14", "subject": "AMW2XLD9443OH"}
{"rt": "23611.0", "trial_number": "3", "skipped": "False", "complete": "False", "assignment": "37QW5D2ZRHUKW7SGCE3STMOFBMK8SX", "start_time": "1.51815823427e+12", "human_length": "16", "nodes_expanded": "999", "instance": "prb3203", "end_time": "1.51815825788e+12", "optimal_length": "14", "subject": "AMW2XLD9443OH"}
{"rt": "30205.0", "trial_number": "4", "skipped": "False", "complete": "True", "assignment": "37QW5D2ZRHUKW7SGCE3STMOFBMK8SX", "start_time": "1.51815830355e+12", "human_length": "14", "nodes_expanded": "999", "instance": "prb3203", "end_time": "1.51815833376e+12", "optimal_length": "14", "subject": "AMW2XLD9443OH"}
{"rt": "72350.0", "trial_number": "0", "skipped": "False", "complete": "True", "assignment": "3HWRJOOET6A15827PHPSLWK1MOYSEU", "start_time": "1.51814609504e+12", "human_length": "60", "nodes_expanded": "999", "instance": "prb3203", "end_time": "1.51814616739e+12", "optimal_length": "14", "subject": "AO1QGAUZ85T6L"}
{"rt": "29733.0", "trial_number": "0", "skipped": "False", "complete": "True", "assignment": "3ZSY5X72NYJBGKFJ46SJ0Y9J0RLROB", "start_time": "1.51638799745e+12", "human_length": "23", "nodes_expanded": "999", "instance": "prb3203", "end_time": "1.51638802718e+12", "optimal_length": "14", "subject": "AU4KK3OYS2UZF"}
{"rt": "25649.0", "trial_number": "0", "skipped": "True", "complete": "False", "assignment": "33PPO7FECWN7JOLBOAKUBCWTC0AIDL", "start_time": "1.51795068915e+12", "human_length": "6", "nodes_expanded": "999", "instance": "prb3203", "end_time": "1.5179507148e+12", "optimal_length": "14", "subject": "AXKM02NVXNGOM"}
{"rt": "197763.0", "trial_number": "0", "skipped": "False", "complete": "True", "assignment": "3ON104KXQL4CKNMNKGNG9ZBVBAB4WI", "start_time": "1.51631288424e+12", "human_length": "136", "nodes_expanded": "999", "instance": "prb3203", "end_time": "1.51631308200e+12", "optimal_length": "14", "subject": "AYPOAY43REHC8"}
