{"rt": "57070.0", "trial_number": "0", "skipped": "False", "complete": "True", "assignment": "36AHBNMV1SKT9O0GSS6XX0QHZV3YDN", "start_time": "1.51630429452e+12", "human_length": "67", "nodes_expanded": "999", "instance": "prb38725", "end_time": "1.5163043516e+12", "optimal_length": "14", "subject": "A39GADIK8RLMVC"}
{"rt": "70104.0", "trial_number": "0", "skipped": "False", "complete": "True", "assignment": "3AZHRG4CU5SYU12YRVPCSZALW5003R", "start_time": "1.5163045177e+12", "human_length": "33", "nodes_expanded": "999", "instance": "prb38725", "end_time": "1.51630458781e+12", "optimal_length": "14", "subject": "ARWF605I7RWM7"}
{"rt": "34658.0", "trial_number": "0", "skipped": "False", "complete": "True", "assignment": "3ZV9H2YQQEFR2R3JK2IXZUJPXAF3WW", "start_time": "1.51630742753e+12", "human_length": "15", "nodes_expanded": "999", "instance": "prb38725", "end_time": "1.51630746219e+12", "optimal_length": "14", "subject": "A289D98Z4GAZ28"}
{"rt": "20452.0", "trial_number": "0", "skipped": "False", "complete": "True", "assignment": "3PMBY0YE28B43VMUKKJ6EDF85RV9C8", "start_time": "1.51638611542e+12", "human_length": "14", "nodes_expanded": "999", "instance": "prb38725", "end_time": "1.51638613587e+12", "optimal_length": "14", "subject": "A191V7PT3DQKDP"}
{"rt": "75947.0", "trial_number": "0", "skipped": "False", "complete": "True", "assignment": "3TYCR1GOTDRCCQYD1V64UK7OE48LZS", "start_time": "1.51639095114e+12", "human_length": "46", "nodes_expanded": "999", "instance": "prb38725", "end_time": "1.51639102708e+12", "optimal_length": "14", "subject": "A2MYB6MLQW0IGN"}
{"rt": "10731.0", "trial_number": "0", "skipped": "False", "complete": "True", "assignment": "34BBWHLWHBJ6SUL255PK30LEGY5IWG", "start_time": "1.51639320481e+12", "human_length": "14", "nodes_expanded": "999", "instance": "prb38725", "end_time": "1.51639321554e+12", "optimal_length": "14", "subject": "A214HWAW1PYWO8"}
{"rt": "68121.0", "trial_number": "0", "skipped": "False", "complete": "True", "assignment": "3TYCR1GOTDRCCQYD1V64UK7OE48LZS", "start_time": "1.51639592523e+12", "human_length": "60", "nodes_expanded": "999", "instance": "prb38725", "end_time": "1.51639599335e+12", "optimal_length": "14", "subject": "A16SJ5D3DKUEXJ"}
{"rt": "0.0", "trial_number": "0", "skipped": "False", "complete": "False", "assignment": "3VE8AYVF8N5BS2NU6U3TMN50JMNF8V", "start_time": "1.51673740519e+12", "human_length": "1", "nodes_expanded": "999", "instance": "prb38725", "end_time": "1.51673740519e+12", "optimal_length": "14", "subject": "A18QU0YQB6Q8DF"}
{"rt": "0.0", "trial_number": "1", "skipped": "False", "complete": "False", "assignment": "3VE8AYVF8N5BS2NU6U3TMN50JMNF8V", "start_time": "1.51673740519e+12", "human_length": "1", "nodes_expanded": "999", "instance": "prb38725", "end_time": "1.51673740519e+12", "optimal_length": "14", "subject": "A18QU0YQB6Q8DF"}
{"rt": "80975.0", "trial_number": "2", "skipped": "True", "complete": "False", "assignment": "3VE8AYVF8N5BS2NU6U3TMN50JMNF8V", "start_time": "1.51673740519e+12", "human_length": "95", "nodes_expanded": "999", "instance": "prb38725", "end_time": "1.51673748617e+12", "optimal_length": "14", "subject": "A18QU0YQB6Q8DF"}
{"rt": "0.0", "trial_number": "0", "skipped": "False", "complete": "False", "assignment": "3U84XHCDIDLGEIRSV37N835DT5LZ4W", "start_time": "1.51673599501e+12", "human_length": "1", "nodes_expanded": "999", "instance": "prb38725", "end_time": "1.51673599501e+12", "optimal_length": "14", "subject": "A12723JDRPT207"}
{"rt": "0.0", "trial_number": "1", "skipped": "False", "complete": "False", "assignment": "3U84XHCDIDLGEIRSV37N835DT5LZ4W", "start_time": "1.51673599501e+12", "human_length": "1", "nodes_expanded": "999", "instance": "prb38725", "end_time": "1.51673599501e+12", "optimal_length": "14", "subject": "A12723JDRPT207"}
{"rt": "31472.0", "trial_number": "2", "skipped": "True", "complete": "False", "assignment": "3U84XHCDIDLGEIRSV37N835DT5LZ4W", "start_time": "1.51673599501e+12", "human_length": "63", "nodes_expanded": "999", "instance": "prb38725", "end_time": "1.51673602648e+12", "optimal_length": "14", "subject": "A12723JDRPT207"}
{"rt": "0.0", "trial_number": "0", "skipped": "False", "complete": "False", "assignment": "3X87C8JFV7JQ2BSCY8KSFD9F2ILSQK", "start_time": "1.51674072064e+12", "human_length": "1", "nodes_expanded": "999", "instance": "prb38725", "end_time": "1.51674072064e+12", "optimal_length": "14", "subject": "A3Q0XAGQ7TD7MP"}
{"rt": "0.0", "trial_number": "1", "skipped": "False", "complete": "False", "assignment": "3X87C8JFV7JQ2BSCY8KSFD9F2ILSQK", "start_time": "1.51674072064e+12", "human_length": "1", "nodes_expanded": "999", "instance": "prb38725", "end_time": "1.51674072064e+12", "optimal_length": "14", "subject": "A3Q0XAGQ7TD7MP"}
{"rt": "21933.0", "trial_number": "2", "skipped": "False", "complete": "True", "assignment": "3X87C8JFV7JQ2BSCY8KSFD9F2ILSQK", "start_time": "1.51674072064e+12", "human_length": "14", "nodes_expanded": "999", "instance": "prb38725", "end_time": "1.51674074257e+12", "optimal_length": "14", "subject": "A3Q0XAGQ7TD7MP"}
{"rt": "26457.0", "trial_number": "3", "skipped": "False", "complete": "True", "assignment": "3GLB5JMZFY3TNXFGYMKRQ0JDXNTDGZ", "start_time": "1.5179465042e+12", "human_length": "14", "nodes_expanded": "999", "instance": "prb38725", "end_time": "1.51794653065e+12", "optimal_length": "14", "subject": "A3Q0XAGQ7TD7MP"}
{"rt": "0.0", "trial_number": "0", "skipped": "False", "complete": "False", "assignment": "3WSELTNVR4AZUVYAYCSWZIQW0J4ATB", "start_time": "1.51673855559e+12", "human_length": "1", "nodes_expanded": "999", "instance": "prb38725", "end_time": "1.51673855559e+12", "optimal_length": "14", "subject": "A2TQNX64349OZ9"}
{"rt": "0.0", "trial_number": "1", "skipped": "False", "complete": "False", "assignment": "3WSELTNVR4AZUVYAYCSWZIQW0J4ATB", "start_time": "1.51673855559e+12", "human_length": "1", "nodes_expanded": "999", "instance": "prb38725", "end_time": "1.51673855559e+12", "optimal_length": "14", "subject": "A2TQNX64349OZ9"}
{"rt": "38650.0", "trial_number": "2", "skipped": "True", "complete": "False", "assignment": "3WSELTNVR4AZUVYAYCSWZIQW0J4ATB", "start_time": "1.51673855559e+12", "human_length": "73", "nodes_expanded": "999", "instance": "prb38725", "end_time": "1.51673859424e+12", "optimal_length": "14", "subject": "A2TQNX64349OZ9"}
{"rt": "42239.0", "trial_number": "0", "skipped": "False", "complete": "False", "assignment": "3U8YCDAGXQOQ1280P618573W7RSQ0N", "start_time": "1.51674370437e+12", "human_length": "23", "nodes_expanded": "999", "instance": "prb38725", "end_time": "1.51674374661e+12", "optimal_length": "14", "subject": "AWCO7MG0BHSTQ"}
{"rt": "0.0", "trial_number": "1", "skipped": "False", "complete": "False", "assignment": "3U8YCDAGXQOQ1280P618573W7RSQ0N", "start_time": "1.5167437496e+12", "human_length": "1", "nodes_expanded": "999", "instance": "prb38725", "end_time": "1.5167437496e+12", "optimal_length": "14", "subject": "AWCO7MG0BHSTQ"}
{"rt": "0.0", "trial_number": "2", "skipped": "False", "complete": "False", "assignment": "3U8YCDAGXQOQ1280P618573W7RSQ0N", "start_time": "1.51674370437e+12", "human_length": "1", "nodes_expanded": "999", "instance": "prb38725", "end_time": "1.51674370437e+12", "optimal_length": "14", "subject": "AWCO7MG0BHSTQ"}
{"rt": "0.0", "trial_number": "3", "skipped": "False", "complete": "False", "assignment": "3U8YCDAGXQOQ1280P618573W7RSQ0N", "start_time": "1.5167437496e+12", "human_length": "1", "nodes_expanded": "999", "instance": "prb38725", "end_time": "1.5167437496e+12", "optimal_length": "14", "subject": "AWCO7MG0BHSTQ"}
{"rt": "0.0", "trial_number": "4", "skipped": "False", "complete": "False", "assignment": "3U8YCDAGXQOQ1280P618573W7RSQ0N", "start_time": "1.51674370437e+12", "human_length": "1", "nodes_expanded": "999", "instance": "prb38725", "end_time": "1.51674370437e+12", "optimal_length": "14", "subject": "AWCO7MG0BHSTQ"}
{"rt": "23325.0", "trial_number": "5", "skipped": "True", "complete": "False", "assignment": "3U8YCDAGXQOQ1280P618573W7RSQ0N", "start_time": "1.5167437496e+12", "human_length": "71", "nodes_expanded": "999", "instance": "prb38725", "end_time": "1.51674377292e+12", "optimal_length": "14", "subject": "AWCO7MG0BHSTQ"}
{"rt": "0.0", "trial_number": "0", "skipped": "False", "complete": "False", "assignment": "3X87C8JFV7JQ2BSCY8KSFD9F2ILSQK", "start_time": "1.51674621368e+12", "human_length": "1", "nodes_expanded": "999", "instance": "prb38725", "end_time": "1.51674621368e+12", "optimal_length": "14", "subject": "A21S7MA9DCW95E"}
{"rt": "0.0", "trial_number": "1", "skipped": "False", "complete": "False", "assignment": "3X87C8JFV7JQ2BSCY8KSFD9F2ILSQK", "start_time": "1.51674621368e+12", "human_length": "1", "nodes_expanded": "999", "instance": "prb38725", "end_time": "1.51674621368e+12", "optimal_length": "14", "subject": "A21S7MA9DCW95E"}
{"rt": "22414.0", "trial_number": "2", "skipped": "False", "complete": "True", "assignment": "3X87C8JFV7JQ2BSCY8KSFD9F2ILSQK", "start_time": "1.51674621368e+12", "human_length": "16", "nodes_expanded": "999", "instance": "prb38725", "end_time": "1.51674623609e+12", "optimal_length": "14", "subject": "A21S7MA9DCW95E"}
{"rt": "138297.0", "trial_number": "0", "skipped": "False", "complete": "False", "assignment": "3IJXV6UZ1YR1KY4G6BFEG1DXP7SRI1", "start_time": "1.51675067766e+12", "human_length": "89", "nodes_expanded": "999", "instance": "prb38725", "end_time": "1.51675081596e+12", "optimal_length": "14", "subject": "A2RTJ6BDY0DZVZ"}
{"rt": "0.0", "trial_number": "1", "skipped": "False", "complete": "False", "assignment": "3IJXV6UZ1YR1KY4G6BFEG1DXP7SRI1", "start_time": "1.51675081817e+12", "human_length": "1", "nodes_expanded": "999", "instance": "prb38725", "end_time": "1.51675081817e+12", "optimal_length": "14", "subject": "A2RTJ6BDY0DZVZ"}
{"rt": "0.0", "trial_number": "2", "skipped": "False", "complete": "False", "assignment": "3IJXV6UZ1YR1KY4G6BFEG1DXP7SRI1", "start_time": "1.51675067766e+12", "human_length": "1", "nodes_expanded": "999", "instance": "prb38725", "end_time": "1.51675067766e+12", "optimal_length": "14", "subject": "A2RTJ6BDY0DZVZ"}
{"rt": "0.0", "trial_number": "3", "skipped": "False", "complete": "False", "assignment": "3IJXV6UZ1YR1KY4G6BFEG1DXP7SRI1", "start_time": "1.51675081817e+12", "human_length": "1", "nodes_expanded": "999", "instance": "prb38725", "end_time": "1.51675081817e+12", "optimal_length": "14", "subject": "A2RTJ6BDY0DZVZ"}
{"rt": "0.0", "trial_number": "4", "skipped": "False", "complete": "False", "assignment": "3IJXV6UZ1YR1KY4G6BFEG1DXP7SRI1", "start_time": "1.51675067766e+12", "human_length": "1", "nodes_expanded": "999", "instance": "prb38725", "end_time": "1.51675067766e+12", "optimal_length": "14", "subject": "A2RTJ6BDY0DZVZ"}
{"rt": "39024.0", "trial_number": "5", "skipped": "False", "complete": "True", "assignment": "3IJXV6UZ1YR1KY4G6BFEG1DXP7SRI1", "start_time": "1.51675081817e+12", "human_length": "20", "nodes_expanded": "999", "instance": "prb38725", "end_time": "1.51675085719e+12", "optimal_length": "14", "subject": "A2RTJ6BDY0DZVZ"}
{"rt": "0.0", "trial_number": "0", "skipped": "False", "complete": "False", "assignment": "3YW4XOSQKRTI0K0Z2YPDTDJVFABU1I", "start_time": "1.51682232278e+12", "human_length": "1", "nodes_expanded": "999", "instance": "prb38725", "end_time": "1.51682232278e+12", "optimal_length": "14", "subject": "A15781PHGW377Y"}
{"rt": "38804.0", "trial_number": "1", "skipped": "False", "complete": "True", "assignment": "3YW4XOSQKRTI0K0Z2YPDTDJVFABU1I", "start_time": "1.51682232278e+12", "human_length": "24", "nodes_expanded": "999", "instance": "prb38725", "end_time": "1.51682236158e+12", "optimal_length": "14", "subject": "A15781PHGW377Y"}
{"rt": "0.0", "trial_number": "0", "skipped": "False", "complete": "False", "assignment": "3IHR8NYAM89M0EPM8U9LH53ZJDTP4U", "start_time": "1.5168252029e+12", "human_length": "1", "nodes_expanded": "999", "instance": "prb38725", "end_time": "1.5168252029e+12", "optimal_length": "14", "subject": "A23437BMZ5T1FH"}
{"rt": "42232.0", "trial_number": "1", "skipped": "False", "complete": "True", "assignment": "3IHR8NYAM89M0EPM8U9LH53ZJDTP4U", "start_time": "1.5168252029e+12", "human_length": "38", "nodes_expanded": "999", "instance": "prb38725", "end_time": "1.51682524513e+12", "optimal_length": "14", "subject": "A23437BMZ5T1FH"}
{"rt": "113822.0", "trial_number": "0", "skipped": "False", "complete": "True", "assignment": "3YW4XOSQKRTI0K0Z2YPDTDJVFABU1I", "start_time": "1.51683266264e+12", "human_length": "76", "nodes_expanded": "999", "instance": "prb38725", "end_time": "1.51683277646e+12", "optimal_length": "14", "subject": "A1LR0VQIHQUJAM"}
{"rt": "80975.0", "trial_number": "0", "skipped": "True", "complete": "False", "assignment": "3VE8AYVF8N5BS2NU6U3TMN50JMNF8V", "start_time": "1.51673740519e+12", "human_length": "33", "nodes_expanded": "999", "instance": "prb38725", "end_time": "1.51673748617e+12", "optimal_length": "14", "subject": "A18QU0YQB6Q8DF"}
{"rt": "31472.0", "trial_number": "0", "skipped": "True", "complete": "False", "assignment": "3U84XHCDIDLGEIRSV37N835DT5LZ4W", "start_time": "1.51673599501e+12", "human_length": "23", "nodes_expanded": "999", "instance": "prb38725", "end_time": "1.51673602648e+12", "optimal_length": "14", "subject": "A12723JDRPT207"}
{"rt": "21933.0", "trial_number": "0", "skipped": "False", "complete": "True", "assignment": "3X87C8JFV7JQ2BSCY8KSFD9F2ILSQK", "start_time": "1.51674072064e+12", "human_length": "14", "nodes_expanded": "999", "instance": "prb38725", "end_time": "1.51674074257e+12", "optimal_length": "14", "subject": "A3Q0XAGQ7TD7MP"}
{"rt": "26457.0", "trial_number": "1", "skipped": "False", "complete": "True", "assignment": "3GLB5JMZFY3TNXFGYMKRQ0JDXNTDGZ", "start_time": "1.5179465042e+12", "human_length": "14", "nodes_expanded": "999", "instance": "prb38725", "end_time": "1.51794653065e+12", "optimal_length": "14", "subject": "A3Q0XAGQ7TD7MP"}
{"rt": "38650.0", "trial_number": "0", "skipped": "True", "complete": "False", "assignment": "3WSELTNVR4AZUVYAYCSWZIQW0J4ATB", "start_time": "1.51673855559e+12", "human_length": "29", "nodes_expanded": "999", "instance": "prb38725", "end_time": "1.51673859424e+12", "optimal_length": "14", "subject": "A2TQNX64349OZ9"}
{"rt": "42239.0", "trial_number": "0", "skipped": "False", "complete": "False", "assignment": "3U8YCDAGXQOQ1280P618573W7RSQ0N", "start_time": "1.51674370437e+12", "human_length": "23", "nodes_expanded": "999", "instance": "prb38725", "end_time": "1.51674374661e+12", "optimal_length": "14", "subject": "AWCO7MG0BHSTQ"}
{"rt": "23325.0", "trial_number": "1", "skipped": "True", "complete": "False", "assignment": "3U8YCDAGXQOQ1280P618573W7RSQ0N", "start_time": "1.5167437496e+12", "human_length": "10", "nodes_expanded": "999", "instance": "prb38725", "end_time": "1.51674377292e+12", "optimal_length": "14", "subject": "AWCO7MG0BHSTQ"}
{"rt": "22414.0", "trial_number": "0", "skipped": "False", "complete": "True", "assignment": "3X87C8JFV7JQ2BSCY8KSFD9F2ILSQK", "start_time": "1.51674621368e+12", "human_length": "16", "nodes_expanded": "999", "instance": "prb38725", "end_time": "1.51674623609e+12", "optimal_length": "14", "subject": "A21S7MA9DCW95E"}
{"rt": "138297.0", "trial_number": "0", "skipped": "False", "complete": "False", "assignment": "3IJXV6UZ1YR1KY4G6BFEG1DXP7SRI1", "start_time": "1.51675067766e+12", "human_length": "89", "nodes_expanded": "999", "instance": "prb38725", "end_time": "1.51675081596e+12", "optimal_length": "14", "subject": "A2RTJ6BDY0DZVZ"}
{"rt": "39024.0", "trial_number": "1", "skipped": "False", "complete": "True", "assignment": "3IJXV6UZ1YR1KY4G6BFEG1DXP7SRI1", "start_time": "1.51675081817e+12", "human_length": "20", "nodes_expanded": "999", "instance": "prb38725", "end_time": "1.51675085719e+12", "optimal_length": "14", "subject": "A2RTJ6BDY0DZVZ"}
{"rt": "38804.0", "trial_number": "0", "skipped": "False", "complete": "True", "assignment": "3YW4XOSQKRTI0K0Z2YPDTDJVFABU1I", "start_time": "1.51682232278e+12", "human_length": "24", "nodes_expanded": "999", "instance": "prb38725", "end_time": "1.51682236158e+12", "optimal_length": "14", "subject": "A15781PHGW377Y"}
{"rt": "54541.0", "trial_number": "0", "skipped": "False", "complete": "False", "assignment": "3TS1AR6UQRM7SOIBWPBN8N9589Y7FV", "start_time": "1.51684017521e+12", "human_length": "49", "nodes_expanded": "999", "instance": "prb38725", "end_time": "1.51684022975e+12", "optimal_length": "14", "subject": "A1F4N58CAX8IMK"}
{"rt": "62813.0", "trial_number": "1", "skipped": "False", "complete": "True", "assignment": "35DR22AR5ES6RR89U7EJ1DXW91AX3P", "start_time": "1.51795421273e+12", "human_length": "62", "nodes_expanded": "999", "instance": "prb38725", "end_time": "1.51795427554e+12", "optimal_length": "14", "subject": "A1F4N58CAX8IMK"}
{"rt": "132827.0", "trial_number": "0", "skipped": "False", "complete": "True", "assignment": "3TS1AR6UQRM7SOIBWPBN8N9589Y7FV", "start_time": "1.51684403412e+12", "human_length": "92", "nodes_expanded": "999", "instance": "prb38725", "end_time": "1.51684416694e+12", "optimal_length": "14", "subject": "A15FXHC1CVNW31"}
{"rt": "19004.0", "trial_number": "0", "skipped": "False", "complete": "True", "assignment": "31LM9EDVOM0C0BWUVMJXJINN3QPJNI", "start_time": "1.51752411876e+12", "human_length": "18", "nodes_expanded": "999", "instance": "prb38725", "end_time": "1.51752413777e+12", "optimal_length": "14", "subject": "A1NT8BT94ME6F5"}
{"rt": "113600.0", "trial_number": "0", "skipped": "True", "complete": "False", "assignment": "37TD41K0AIHM8AITTQJXV8KY05QCSB", "start_time": "1.51752602849e+12", "human_length": "72", "nodes_expanded": "999", "instance": "prb38725", "end_time": "1.51752614209e+12", "optimal_length": "14", "subject": "A30KYQGABO7JER"}
{"rt": "51113.0", "trial_number": "0", "skipped": "True", "complete": "False", "assignment": "36H9ULYP6320CJJDXY0KBDEE1Z3JFB", "start_time": "1.51753306913e+12", "human_length": "25", "nodes_expanded": "999", "instance": "prb38725", "end_time": "1.51753312024e+12", "optimal_length": "14", "subject": "AN098C29EGJ6"}
{"rt": "29452.0", "trial_number": "0", "skipped": "False", "complete": "True", "assignment": "3TYCR1GOTDRCCQYD1V64UK7OHTBZLQ", "start_time": "1.51753704394e+12", "human_length": "31", "nodes_expanded": "999", "instance": "prb38725", "end_time": "1.51753707339e+12", "optimal_length": "14", "subject": "A13BZCNJ0WR1T7"}
{"rt": "17225.0", "trial_number": "0", "skipped": "False", "complete": "True", "assignment": "3H0W84IWBLAP4T2UASPNVMF5ZH7ER9", "start_time": "1.51755495375e+12", "human_length": "18", "nodes_expanded": "999", "instance": "prb38725", "end_time": "1.51755497098e+12", "optimal_length": "14", "subject": "A1AKX1C8GCVCTP"}
{"rt": "45839.0", "trial_number": "0", "skipped": "False", "complete": "False", "assignment": "30IQTZXKALEAAZ9CBKW0ZFZP6O5X07", "start_time": "1.51793962274e+12", "human_length": "12", "nodes_expanded": "999", "instance": "prb38725", "end_time": "1.51793966858e+12", "optimal_length": "14", "subject": "A10YS8AVLQWUZZ"}
{"rt": "34241.0", "trial_number": "1", "skipped": "False", "complete": "False", "assignment": "30IQTZXKALEAAZ9CBKW0ZFZP6O5X07", "start_time": "1.51793967354e+12", "human_length": "11", "nodes_expanded": "999", "instance": "prb38725", "end_time": "1.51793970778e+12", "optimal_length": "14", "subject": "A10YS8AVLQWUZZ"}
{"rt": "38152.0", "trial_number": "2", "skipped": "False", "complete": "False", "assignment": "30IQTZXKALEAAZ9CBKW0ZFZP6O5X07", "start_time": "1.51793971046e+12", "human_length": "10", "nodes_expanded": "999", "instance": "prb38725", "end_time": "1.51793974861e+12", "optimal_length": "14", "subject": "A10YS8AVLQWUZZ"}
{"rt": "33375.0", "trial_number": "3", "skipped": "False", "complete": "False", "assignment": "30IQTZXKALEAAZ9CBKW0ZFZP6O5X07", "start_time": "1.51793975012e+12", "human_length": "3", "nodes_expanded": "999", "instance": "prb38725", "end_time": "1.51793978349e+12", "optimal_length": "14", "subject": "A10YS8AVLQWUZZ"}
{"rt": "5436.0", "trial_number": "4", "skipped": "False", "complete": "False", "assignment": "30IQTZXKALEAAZ9CBKW0ZFZP6O5X07", "start_time": "1.51793978788e+12", "human_length": "3", "nodes_expanded": "999", "instance": "prb38725", "end_time": "1.51793979332e+12", "optimal_length": "14", "subject": "A10YS8AVLQWUZZ"}
{"rt": "13850.0", "trial_number": "5", "skipped": "False", "complete": "False", "assignment": "30IQTZXKALEAAZ9CBKW0ZFZP6O5X07", "start_time": "1.51793980446e+12", "human_length": "5", "nodes_expanded": "999", "instance": "prb38725", "end_time": "1.51793981831e+12", "optimal_length": "14", "subject": "A10YS8AVLQWUZZ"}
{"rt": "73913.0", "trial_number": "6", "skipped": "False", "complete": "False", "assignment": "30IQTZXKALEAAZ9CBKW0ZFZP6O5X07", "start_time": "1.51793983453e+12", "human_length": "13", "nodes_expanded": "999", "instance": "prb38725", "end_time": "1.51793990844e+12", "optimal_length": "14", "subject": "A10YS8AVLQWUZZ"}
{"rt": "49093.0", "trial_number": "7", "skipped": "False", "complete": "False", "assignment": "30IQTZXKALEAAZ9CBKW0ZFZP6O5X07", "start_time": "1.51793991127e+12", "human_length": "12", "nodes_expanded": "999", "instance": "prb38725", "end_time": "1.51793996036e+12", "optimal_length": "14", "subject": "A10YS8AVLQWUZZ"}
{"rt": "26328.0", "trial_number": "8", "skipped": "False", "complete": "False", "assignment": "30IQTZXKALEAAZ9CBKW0ZFZP6O5X07", "start_time": "1.51793996305e+12", "human_length": "8", "nodes_expanded": "999", "instance": "prb38725", "end_time": "1.51793998938e+12", "optimal_length": "14", "subject": "A10YS8AVLQWUZZ"}
{"rt": "49757.0", "trial_number": "9", "skipped": "False", "complete": "False", "assignment": "30IQTZXKALEAAZ9CBKW0ZFZP6O5X07", "start_time": "1.51793999219e+12", "human_length": "12", "nodes_expanded": "999", "instance": "prb38725", "end_time": "1.51794004194e+12", "optimal_length": "14", "subject": "A10YS8AVLQWUZZ"}
{"rt": "0.0", "trial_number": "10", "skipped": "True", "complete": "False", "assignment": "30IQTZXKALEAAZ9CBKW0ZFZP6O5X07", "start_time": "1.51794004355e+12", "human_length": "1", "nodes_expanded": "999", "instance": "prb38725", "end_time": "1.51794004355e+12", "optimal_length": "14", "subject": "A10YS8AVLQWUZZ"}
{"rt": "22129.0", "trial_number": "0", "skipped": "False", "complete": "True", "assignment": "3TPWUS5F8A9FFRZ2DVTYSXNJ6BWWC6", "start_time": "1.51794179021e+12", "human_length": "14", "nodes_expanded": "999", "instance": "prb38725", "end_time": "1.51794181234e+12", "optimal_length": "14", "subject": "A3GXC3VG37CQ3G"}
{"rt": "18669.0", "trial_number": "0", "skipped": "False", "complete": "True", "assignment": "34HJIJKLP64Z5YMIU6IKNXSH7PDV4I", "start_time": "1.51794332185e+12", "human_length": "15", "nodes_expanded": "999", "instance": "prb38725", "end_time": "1.51794334052e+12", "optimal_length": "14", "subject": "A3CTXNQ2GXIQSP"}
{"rt": "182981.0", "trial_number": "0", "skipped": "False", "complete": "True", "assignment": "3TXD01ZLD5PZSJXIPG8FRBQYTI9U4X", "start_time": "1.51794455021e+12", "human_length": "78", "nodes_expanded": "999", "instance": "prb38725", "end_time": "1.51794473319e+12", "optimal_length": "14", "subject": "A3BPRPN10HJD4B"}
{"rt": "56820.0", "trial_number": "0", "skipped": "False", "complete": "False", "assignment": "30IQTZXKALEAAZ9CBKW0ZFZP6O5X07", "start_time": "1.51794610433e+12", "human_length": "31", "nodes_expanded": "999", "instance": "prb38725", "end_time": "1.51794616115e+12", "optimal_length": "14", "subject": "A23XJ8I86R0O3B"}
{"rt": "0.0", "trial_number": "1", "skipped": "False", "complete": "False", "assignment": "30IQTZXKALEAAZ9CBKW0ZFZP6O5X07", "start_time": "1.51794616583e+12", "human_length": "1", "nodes_expanded": "999", "instance": "prb38725", "end_time": "1.51794616583e+12", "optimal_length": "14", "subject": "A23XJ8I86R0O3B"}
{"rt": "10116.0", "trial_number": "2", "skipped": "False", "complete": "False", "assignment": "30IQTZXKALEAAZ9CBKW0ZFZP6O5X07", "start_time": "1.51794616586e+12", "human_length": "4", "nodes_expanded": "999", "instance": "prb38725", "end_time": "1.51794617597e+12", "optimal_length": "14", "subject": "A23XJ8I86R0O3B"}
{"rt": "48681.0", "trial_number": "3", "skipped": "False", "complete": "False", "assignment": "30IQTZXKALEAAZ9CBKW0ZFZP6O5X07", "start_time": "1.51794617989e+12", "human_length": "22", "nodes_expanded": "999", "instance": "prb38725", "end_time": "1.51794622857e+12", "optimal_length": "14", "subject": "A23XJ8I86R0O3B"}
{"rt": "37834.0", "trial_number": "4", "skipped": "False", "complete": "True", "assignment": "30IQTZXKALEAAZ9CBKW0ZFZP6O5X07", "start_time": "1.51794623113e+12", "human_length": "21", "nodes_expanded": "999", "instance": "prb38725", "end_time": "1.51794626897e+12", "optimal_length": "14", "subject": "A23XJ8I86R0O3B"}
{"rt": "21548.0", "trial_number": "0", "skipped": "False", "complete": "True", "assignment": "3STRJBFXOXZ5687WA35LTWTS7QZKTT", "start_time": "1.51794503282e+12", "human_length": "16", "nodes_expanded": "999", "instance": "prb38725", "end_time": "1.51794505437e+12", "optimal_length": "14", "subject": "A3OB6REG5CGHK1"}
{"rt": "37413.0", "trial_number": "0", "skipped": "False", "complete": "True", "assignment": "3JCG6DTRV4YEPVDZ64VNKDUEMPGQQ1", "start_time": "1.51794732051e+12", "human_length": "21", "nodes_expanded": "999", "instance": "prb38725", "end_time": "1.51794735792e+12", "optimal_length": "14", "subject": "A2V7KYLBCBTI3B"}
{"rt": "19695.0", "trial_number": "0", "skipped": "True", "complete": "False", "assignment": "33PPO7FECWN7JOLBOAKUBCWTC0AIDL", "start_time": "1.51795066763e+12", "human_length": "9", "nodes_expanded": "999", "instance": "prb38725", "end_time": "1.51795068732e+12", "optimal_length": "14", "subject": "AXKM02NVXNGOM"}
{"rt": "20898.0", "trial_number": "0", "skipped": "False", "complete": "True", "assignment": "3R5F3LQFV3SKIB1AENMWM1BICT5OZB", "start_time": "1.51795881585e+12", "human_length": "20", "nodes_expanded": "999", "instance": "prb38725", "end_time": "1.51795883675e+12", "optimal_length": "14", "subject": "A1N1EF0MIRSEZZ"}
{"rt": "62581.0", "trial_number": "0", "skipped": "True", "complete": "False", "assignment": "33F859I567LE8WC74WB3GA7E94XBHW", "start_time": "1.51796743009e+12", "human_length": "32", "nodes_expanded": "999", "instance": "prb38725", "end_time": "1.51796749267e+12", "optimal_length": "14", "subject": "A1GQS6USF2JEYG"}
{"rt": "21803.0", "trial_number": "0", "skipped": "False", "complete": "True", "assignment": "3IJXV6UZ1YR1KY4G6BFEG1DXR47RIC", "start_time": "1.51797330865e+12", "human_length": "26", "nodes_expanded": "999", "instance": "prb38725", "end_time": "1.51797333045e+12", "optimal_length": "14", "subject": "A18T3WK7J16C1B"}
{"rt": "17145.0", "trial_number": "0", "skipped": "False", "complete": "True", "assignment": "3FTF2T8WLSQDHTSZ1BJ7Q7MB14SW9H", "start_time": "1.51813707293e+12", "human_length": "18", "nodes_expanded": "999", "instance": "prb38725", "end_time": "1.51813709007e+12", "optimal_length": "14", "subject": "A1IUH9D7N69VS"}
{"rt": "80047.0", "trial_number": "0", "skipped": "True", "complete": "False", "assignment": "3XC1O3LBOTUGQEPEV3HM8W67X4RTLL", "start_time": "1.51813897109e+12", "human_length": "50", "nodes_expanded": "999", "instance": "prb38725", "end_time": "1.51813905113e+12", "optimal_length": "14", "subject": "A1ZTSCPETU3UJW"}
{"rt": "67370.0", "trial_number": "0", "skipped": "True", "complete": "False", "assignment": "3TAYZSBPLMG9ASQRWXURJVBCPLN2SH", "start_time": "1.51813780351e+12", "human_length": "42", "nodes_expanded": "999", "instance": "prb38725", "end_time": "1.51813787088e+12", "optimal_length": "14", "subject": "A2RCYLKY072XXO"}
{"rt": "39513.0", "trial_number": "0", "skipped": "True", "complete": "False", "assignment": "3E1QT0TDFQHV2TPK729EPKIS2ND8IY", "start_time": "1.51813859485e+12", "human_length": "32", "nodes_expanded": "999", "instance": "prb38725", "end_time": "1.51813863437e+12", "optimal_length": "14", "subject": "A1MTRZDRKNB9GV"}
{"rt": "0.0", "trial_number": "0", "skipped": "False", "complete": "False", "assignment": "3SB5N7Y3O4CZODEMMAWWBTZU4C90GB", "start_time": "1.51813996396e+12", "human_length": "1", "nodes_expanded": "999", "instance": "prb38725", "end_time": "1.51813996396e+12", "optimal_length": "14", "subject": "A1RVMADIZE3BXK"}
{"rt": "0.0", "trial_number": "1", "skipped": "False", "complete": "False", "assignment": "3SB5N7Y3O4CZODEMMAWWBTZU4C90GB", "start_time": "1.51813996405e+12", "human_length": "1", "nodes_expanded": "999", "instance": "prb38725", "end_time": "1.51813996405e+12", "optimal_length": "14", "subject": "A1RVMADIZE3BXK"}
{"rt": "0.0", "trial_number": "2", "skipped": "False", "complete": "False", "assignment": "3SB5N7Y3O4CZODEMMAWWBTZU4C90GB", "start_time": "1.51813996411e+12", "human_length": "1", "nodes_expanded": "999", "instance": "prb38725", "end_time": "1.51813996411e+12", "optimal_length": "14", "subject": "A1RVMADIZE3BXK"}
{"rt": "9209.0", "trial_number": "3", "skipped": "False", "complete": "False", "assignment": "3SB5N7Y3O4CZODEMMAWWBTZU4C90GB", "start_time": "1.51813996417e+12", "human_length": "5", "nodes_expanded": "999", "instance": "prb38725", "end_time": "1.51813997338e+12", "optimal_length": "14", "subject": "A1RVMADIZE3BXK"}
{"rt": "72973.0", "trial_number": "4", "skipped": "True", "complete": "False", "assignment": "3SB5N7Y3O4CZODEMMAWWBTZU4C90GB", "start_time": "1.51814001271e+12", "human_length": "44", "nodes_expanded": "999", "instance": "prb38725", "end_time": "1.51814008568e+12", "optimal_length": "14", "subject": "A1RVMADIZE3BXK"}
{"rt": "37851.0", "trial_number": "0", "skipped": "True", "complete": "False", "assignment": "3EO896NRAX3AVO1ESI59SHTFTF3JTQ", "start_time": "1.51814228992e+12", "human_length": "14", "nodes_expanded": "999", "instance": "prb38725", "end_time": "1.51814232777e+12", "optimal_length": "14", "subject": "A2KBZ75HMJ7KVX"}
{"rt": "37683.0", "trial_number": "0", "skipped": "False", "complete": "False", "assignment": "3ZSANO2JCGFTBM23KS9Y3E51YP4FSQ", "start_time": "1.51814378321e+12", "human_length": "41", "nodes_expanded": "999", "instance": "prb38725", "end_time": "1.51814382089e+12", "optimal_length": "14", "subject": "A1F42D4L22K5ND"}
{"rt": "58139.0", "trial_number": "1", "skipped": "True", "complete": "False", "assignment": "3ZSANO2JCGFTBM23KS9Y3E51YP4FSQ", "start_time": "1.51814382547e+12", "human_length": "53", "nodes_expanded": "999", "instance": "prb38725", "end_time": "1.51814388360e+12", "optimal_length": "14", "subject": "A1F42D4L22K5ND"}
{"rt": "612130.0", "trial_number": "0", "skipped": "False", "complete": "True", "assignment": "3HWRJOOET6A15827PHPSLWK1MOYSEU", "start_time": "1.51814301257e+12", "human_length": "333", "nodes_expanded": "999", "instance": "prb38725", "end_time": "1.5181436247e+12", "optimal_length": "14", "subject": "AO1QGAUZ85T6L"}
{"rt": "31051.0", "trial_number": "0", "skipped": "False", "complete": "True", "assignment": "3XLBSAQ9Z5KDX59BX15UBFPNNHYZ7Q", "start_time": "1.51814616138e+12", "human_length": "34", "nodes_expanded": "999", "instance": "prb38725", "end_time": "1.51814619243e+12", "optimal_length": "14", "subject": "A1HFNOKU591WCY"}
{"rt": "0.0", "trial_number": "0", "skipped": "False", "complete": "False", "assignment": "3EWIJTFFVPF14ZIVGF68BQEIRXP0ER", "start_time": "1.51815018556e+12", "human_length": "1", "nodes_expanded": "999", "instance": "prb38725", "end_time": "1.51815018556e+12", "optimal_length": "14", "subject": "A30AGR5KF8IEL"}
{"rt": "23833.0", "trial_number": "1", "skipped": "False", "complete": "True", "assignment": "3EWIJTFFVPF14ZIVGF68BQEIRXP0ER", "start_time": "1.5181501856e+12", "human_length": "14", "nodes_expanded": "999", "instance": "prb38725", "end_time": "1.51815020944e+12", "optimal_length": "14", "subject": "A30AGR5KF8IEL"}
{"rt": "22950.0", "trial_number": "0", "skipped": "False", "complete": "True", "assignment": "3FUI0JHJPY6UBT1VAI7VUX8S3KH33W", "start_time": "1.51815193474e+12", "human_length": "21", "nodes_expanded": "999", "instance": "prb38725", "end_time": "1.51815195769e+12", "optimal_length": "14", "subject": "A2QIZ31TMHU0GD"}
{"rt": "0.0", "trial_number": "0", "skipped": "False", "complete": "False", "assignment": "3RUIQRXJBCWS71H9MUFVM5WQ3SCLLJ", "start_time": "1.51815838244e+12", "human_length": "1", "nodes_expanded": "999", "instance": "prb38725", "end_time": "1.51815838244e+12", "optimal_length": "14", "subject": "A1SJRFJWFXSDH4"}
{"rt": "32138.0", "trial_number": "1", "skipped": "False", "complete": "True", "assignment": "3RUIQRXJBCWS71H9MUFVM5WQ3SCLLJ", "start_time": "1.51815838508e+12", "human_length": "22", "nodes_expanded": "999", "instance": "prb38725", "end_time": "1.51815841722e+12", "optimal_length": "14", "subject": "A1SJRFJWFXSDH4"}
{"rt": "54150.0", "trial_number": "0", "skipped": "False", "complete": "True", "assignment": "3M0BCWMB8W4W5M7WZVX3HDH1P53WB1", "start_time": "1.51815811914e+12", "human_length": "34", "nodes_expanded": "999", "instance": "prb38725", "end_time": "1.51815817329e+12", "optimal_length": "14", "subject": "A53S7J4JGWG38"}
{"rt": "149823.0", "trial_number": "0", "skipped": "False", "complete": "False", "assignment": "3SITXWYCNWHBUMCM90TPJWV8Y7AXBW", "start_time": "1.51816506884e+12", "human_length": "60", "nodes_expanded": "999", "instance": "prb38725", "end_time": "1.51816521866e+12", "optimal_length": "14", "subject": "A28RX7L0QZ993M"}
{"rt": "118717.0", "trial_number": "1", "skipped": "True", "complete": "False", "assignment": "3SITXWYCNWHBUMCM90TPJWV8Y7AXBW", "start_time": "1.51816522293e+12", "human_length": "43", "nodes_expanded": "999", "instance": "prb38725", "end_time": "1.51816534165e+12", "optimal_length": "14", "subject": "A28RX7L0QZ993M"}
{"rt": "31180.0", "trial_number": "0", "skipped": "False", "complete": "True", "assignment": "3IXEICO793RY7TM78ZBKJDOA7ADT6Q", "start_time": "1.51816851101e+12", "human_length": "25", "nodes_expanded": "999", "instance": "prb38725", "end_time": "1.51816854219e+12", "optimal_length": "14", "subject": "ALH1K6ZAQQMN7"}
