{"rt": "21478.0", "trial_number": "0", "skipped": "False", "complete": "True", "assignment": "3TYCR1GOTDRCCQYD1V64UK7OHTBZLQ", "start_time": "1.51753641266e+12", "human_length": "20", "nodes_expanded": "999", "instance": "prb31907", "end_time": "1.51753643414e+12", "optimal_length": "11", "subject": "A13BZCNJ0WR1T7"}
{"rt": "0.0", "trial_number": "0", "skipped": "False", "complete": "False", "assignment": "3YW4XOSQKRTI0K0Z2YPDTDJVFABU1I", "start_time": "1.51682257625e+12", "human_length": "1", "nodes_expanded": "999", "instance": "prb31907", "end_time": "1.51682257625e+12", "optimal_length": "11", "subject": "A15781PHGW377Y"}
{"rt": "42970.0", "trial_number": "1", "skipped": "False", "complete": "True", "assignment": "3YW4XOSQKRTI0K0Z2YPDTDJVFABU1I", "start_time": "1.51682257625e+12", "human_length": "24", "nodes_expanded": "999", "instance": "prb31907", "end_time": "1.51682261922e+12", "optimal_length": "11", "subject": "A15781PHGW377Y"}
{"rt": "42970.0", "trial_number": "0", "skipped": "False", "complete": "True", "assignment": "3YW4XOSQKRTI0K0Z2YPDTDJVFABU1I", "start_time": "1.51682257625e+12", "human_length": "24", "nodes_expanded": "999", "instance": "prb31907", "end_time": "1.51682261922e+12", "optimal_length": "11", "subject": "A15781PHGW377Y"}
{"rt": "20276.0", "trial_number": "0", "skipped": "False", "complete": "False", "assignment": "3TS1AR6UQRM7SOIBWPBN8N9589Y7FV", "start_time": "1.5168416828e+12", "human_length": "15", "nodes_expanded": "999", "instance": "prb31907", "end_time": "1.51684170308e+12", "optimal_length": "11", "subject": "A15FXHC1CVNW31"}
{"rt": "108248.0", "trial_number": "1", "skipped": "False", "complete": "True", "assignment": "3TS1AR6UQRM7SOIBWPBN8N9589Y7FV", "start_time": "1.5168417146e+12", "human_length": "65", "nodes_expanded": "999", "instance": "prb31907", "end_time": "1.51684182285e+12", "optimal_length": "11", "subject": "A15FXHC1CVNW31"}
{"rt": "0.0", "trial_number": "0", "skipped": "False", "complete": "False", "assignment": "3VE8AYVF8N5BS2NU6U3TMN50JMNF8V", "start_time": "1.51673774469e+12", "human_length": "1", "nodes_expanded": "999", "instance": "prb31907", "end_time": "1.51673774469e+12", "optimal_length": "11", "subject": "A18QU0YQB6Q8DF"}
{"rt": "0.0", "trial_number": "1", "skipped": "False", "complete": "False", "assignment": "3VE8AYVF8N5BS2NU6U3TMN50JMNF8V", "start_time": "1.51673774469e+12", "human_length": "1", "nodes_expanded": "999", "instance": "prb31907", "end_time": "1.51673774469e+12", "optimal_length": "11", "subject": "A18QU0YQB6Q8DF"}
{"rt": "56060.0", "trial_number": "2", "skipped": "True", "complete": "False", "assignment": "3VE8AYVF8N5BS2NU6U3TMN50JMNF8V", "start_time": "1.51673774469e+12", "human_length": "32", "nodes_expanded": "999", "instance": "prb31907", "end_time": "1.51673780075e+12", "optimal_length": "11", "subject": "A18QU0YQB6Q8DF"}
{"rt": "60865.0", "trial_number": "0", "skipped": "True", "complete": "False", "assignment": "3VE8AYVF8N5BS2NU6U3TMN50JMNF8V", "start_time": "1.51673774469e+12", "human_length": "14", "nodes_expanded": "999", "instance": "prb31907", "end_time": "1.51673780556e+12", "optimal_length": "11", "subject": "A18QU0YQB6Q8DF"}
{"rt": "13937.0", "trial_number": "0", "skipped": "False", "complete": "True", "assignment": "3IJXV6UZ1YR1KY4G6BFEG1DXR47RIC", "start_time": "1.51797171753e+12", "human_length": "17", "nodes_expanded": "999", "instance": "prb31907", "end_time": "1.51797173146e+12", "optimal_length": "11", "subject": "A18T3WK7J16C1B"}
{"rt": "21662.0", "trial_number": "0", "skipped": "False", "complete": "True", "assignment": "3PMBY0YE28B43VMUKKJ6EDF85RV9C8", "start_time": "1.51638715477e+12", "human_length": "22", "nodes_expanded": "999", "instance": "prb31907", "end_time": "1.51638717643e+12", "optimal_length": "11", "subject": "A191V7PT3DQKDP"}
{"rt": "83574.0", "trial_number": "0", "skipped": "True", "complete": "False", "assignment": "34Q075JO1YL2KYOJ4RBT46VOZM710O", "start_time": "1.51683566126e+12", "human_length": "18", "nodes_expanded": "999", "instance": "prb31907", "end_time": "1.51683574483e+12", "optimal_length": "11", "subject": "A1A2XH9JVSN8Z0"}
{"rt": "18701.0", "trial_number": "0", "skipped": "False", "complete": "True", "assignment": "3ZSANO2JCGFTBM23KS9Y3E51YP4FSQ", "start_time": "1.51814201568e+12", "human_length": "17", "nodes_expanded": "999", "instance": "prb31907", "end_time": "1.51814203438e+12", "optimal_length": "11", "subject": "A1F42D4L22K5ND"}
{"rt": "48361.0", "trial_number": "0", "skipped": "False", "complete": "True", "assignment": "3TS1AR6UQRM7SOIBWPBN8N9589Y7FV", "start_time": "1.51683813634e+12", "human_length": "38", "nodes_expanded": "999", "instance": "prb31907", "end_time": "1.5168381847e+12", "optimal_length": "11", "subject": "A1F4N58CAX8IMK"}
{"rt": "68702.0", "trial_number": "1", "skipped": "False", "complete": "True", "assignment": "35DR22AR5ES6RR89U7EJ1DXW91AX3P", "start_time": "1.51795221459e+12", "human_length": "55", "nodes_expanded": "999", "instance": "prb31907", "end_time": "1.5179522833e+12", "optimal_length": "11", "subject": "A1F4N58CAX8IMK"}
{"rt": "20757.0", "trial_number": "0", "skipped": "False", "complete": "True", "assignment": "33F859I567LE8WC74WB3GA7E94XBHW", "start_time": "1.51796893837e+12", "human_length": "17", "nodes_expanded": "999", "instance": "prb31907", "end_time": "1.51796895913e+12", "optimal_length": "11", "subject": "A1GQS6USF2JEYG"}
{"rt": "34569.0", "trial_number": "0", "skipped": "False", "complete": "True", "assignment": "3XLBSAQ9Z5KDX59BX15UBFPNNHYZ7Q", "start_time": "1.51814563589e+12", "human_length": "26", "nodes_expanded": "999", "instance": "prb31907", "end_time": "1.51814567046e+12", "optimal_length": "11", "subject": "A1HFNOKU591WCY"}
{"rt": "33594.0", "trial_number": "0", "skipped": "False", "complete": "True", "assignment": "3FTF2T8WLSQDHTSZ1BJ7Q7MB14SW9H", "start_time": "1.51813638156e+12", "human_length": "22", "nodes_expanded": "999", "instance": "prb31907", "end_time": "1.51813641516e+12", "optimal_length": "11", "subject": "A1IUH9D7N69VS"}
{"rt": "0.0", "trial_number": "0", "skipped": "False", "complete": "False", "assignment": "3YW4XOSQKRTI0K0Z2YPDTDJVFABU1I", "start_time": "1.5168308547e+12", "human_length": "1", "nodes_expanded": "999", "instance": "prb31907", "end_time": "1.5168308547e+12", "optimal_length": "11", "subject": "A1LR0VQIHQUJAM"}
{"rt": "22662.0", "trial_number": "1", "skipped": "False", "complete": "True", "assignment": "3YW4XOSQKRTI0K0Z2YPDTDJVFABU1I", "start_time": "1.5168308547e+12", "human_length": "21", "nodes_expanded": "999", "instance": "prb31907", "end_time": "1.51683087737e+12", "optimal_length": "11", "subject": "A1LR0VQIHQUJAM"}
{"rt": "19193.0", "trial_number": "0", "skipped": "False", "complete": "True", "assignment": "3R5F3LQFV3SKIB1AENMWM1BICT5OZB", "start_time": "1.51795873769e+12", "human_length": "19", "nodes_expanded": "999", "instance": "prb31907", "end_time": "1.51795875689e+12", "optimal_length": "11", "subject": "A1N1EF0MIRSEZZ"}
{"rt": "14630.0", "trial_number": "0", "skipped": "True", "complete": "False", "assignment": "31LM9EDVOM0C0BWUVMJXJINN3QPJNI", "start_time": "1.51752501847e+12", "human_length": "12", "nodes_expanded": "999", "instance": "prb31907", "end_time": "1.5175250331e+12", "optimal_length": "11", "subject": "A1NT8BT94ME6F5"}
{"rt": "58336.0", "trial_number": "0", "skipped": "False", "complete": "True", "assignment": "3RUIQRXJBCWS71H9MUFVM5WQ3SCLLJ", "start_time": "1.5181576539e+12", "human_length": "31", "nodes_expanded": "999", "instance": "prb31907", "end_time": "1.51815771224e+12", "optimal_length": "11", "subject": "A1SJRFJWFXSDH4"}
{"rt": "50337.0", "trial_number": "0", "skipped": "False", "complete": "True", "assignment": "3PB5A5BD0WED6OE679H5Q89HBDGG71", "start_time": "1.51795326678e+12", "human_length": "26", "nodes_expanded": "999", "instance": "prb31907", "end_time": "1.51795331712e+12", "optimal_length": "11", "subject": "A1USR9JCAMDGM3"}
{"rt": "21285.0", "trial_number": "0", "skipped": "False", "complete": "True", "assignment": "3M0BCWMB8W4W5M7WZVX3HDH1M3FBWL", "start_time": "1.51684065558e+12", "human_length": "14", "nodes_expanded": "999", "instance": "prb31907", "end_time": "1.51684067687e+12", "optimal_length": "11", "subject": "A1XDMS0KFSF5JW"}
{"rt": "38083.0", "trial_number": "0", "skipped": "False", "complete": "True", "assignment": "3XC1O3LBOTUGQEPEV3HM8W67X4RTLL", "start_time": "1.51813926382e+12", "human_length": "26", "nodes_expanded": "999", "instance": "prb31907", "end_time": "1.5181393019e+12", "optimal_length": "11", "subject": "A1ZTSCPETU3UJW"}
{"rt": "25702.0", "trial_number": "0", "skipped": "False", "complete": "True", "assignment": "34BBWHLWHBJ6SUL255PK30LEGY5IWG", "start_time": "1.51639300805e+12", "human_length": "23", "nodes_expanded": "999", "instance": "prb31907", "end_time": "1.51639303375e+12", "optimal_length": "11", "subject": "A214HWAW1PYWO8"}
{"rt": "0.0", "trial_number": "0", "skipped": "False", "complete": "False", "assignment": "3X87C8JFV7JQ2BSCY8KSFD9F2ILSQK", "start_time": "1.51674726273e+12", "human_length": "1", "nodes_expanded": "999", "instance": "prb31907", "end_time": "1.51674726273e+12", "optimal_length": "11", "subject": "A21S7MA9DCW95E"}
{"rt": "0.0", "trial_number": "1", "skipped": "False", "complete": "False", "assignment": "3X87C8JFV7JQ2BSCY8KSFD9F2ILSQK", "start_time": "1.51674726273e+12", "human_length": "1", "nodes_expanded": "999", "instance": "prb31907", "end_time": "1.51674726273e+12", "optimal_length": "11", "subject": "A21S7MA9DCW95E"}
{"rt": "29189.0", "trial_number": "2", "skipped": "False", "complete": "True", "assignment": "3X87C8JFV7JQ2BSCY8KSFD9F2ILSQK", "start_time": "1.51674726273e+12", "human_length": "21", "nodes_expanded": "999", "instance": "prb31907", "end_time": "1.51674729192e+12", "optimal_length": "11", "subject": "A21S7MA9DCW95E"}
{"rt": "29189.0", "trial_number": "0", "skipped": "False", "complete": "True", "assignment": "3X87C8JFV7JQ2BSCY8KSFD9F2ILSQK", "start_time": "1.51674726273e+12", "human_length": "21", "nodes_expanded": "999", "instance": "prb31907", "end_time": "1.51674729192e+12", "optimal_length": "11", "subject": "A21S7MA9DCW95E"}
{"rt": "0.0", "trial_number": "0", "skipped": "False", "complete": "False", "assignment": "3IHR8NYAM89M0EPM8U9LH53ZJDTP4U", "start_time": "1.51682531405e+12", "human_length": "1", "nodes_expanded": "999", "instance": "prb31907", "end_time": "1.51682531405e+12", "optimal_length": "11", "subject": "A23437BMZ5T1FH"}
{"rt": "21999.0", "trial_number": "1", "skipped": "False", "complete": "True", "assignment": "3IHR8NYAM89M0EPM8U9LH53ZJDTP4U", "start_time": "1.51682531405e+12", "human_length": "22", "nodes_expanded": "999", "instance": "prb31907", "end_time": "1.51682533605e+12", "optimal_length": "11", "subject": "A23437BMZ5T1FH"}
{"rt": "21494.0", "trial_number": "0", "skipped": "False", "complete": "True", "assignment": "30IQTZXKALEAAZ9CBKW0ZFZP6O5X07", "start_time": "1.51794518662e+12", "human_length": "16", "nodes_expanded": "999", "instance": "prb31907", "end_time": "1.51794520811e+12", "optimal_length": "11", "subject": "A23XJ8I86R0O3B"}
{"rt": "66669.0", "trial_number": "0", "skipped": "True", "complete": "False", "assignment": "3SITXWYCNWHBUMCM90TPJWV8Y7AXBW", "start_time": "1.51816347836e+12", "human_length": "30", "nodes_expanded": "999", "instance": "prb31907", "end_time": "1.51816354503e+12", "optimal_length": "11", "subject": "A28RX7L0QZ993M"}
{"rt": "0.0", "trial_number": "0", "skipped": "False", "complete": "False", "assignment": "37WLF8U1WQYZ4AWKEQXSIM1ELVEK6W", "start_time": "1.51682932291e+12", "human_length": "1", "nodes_expanded": "999", "instance": "prb31907", "end_time": "1.51682932291e+12", "optimal_length": "11", "subject": "A2EPBSY0VPI38S"}
{"rt": "209361.0", "trial_number": "1", "skipped": "False", "complete": "True", "assignment": "37WLF8U1WQYZ4AWKEQXSIM1ELVEK6W", "start_time": "1.51682932291e+12", "human_length": "56", "nodes_expanded": "999", "instance": "prb31907", "end_time": "1.51682953227e+12", "optimal_length": "11", "subject": "A2EPBSY0VPI38S"}
{"rt": "16345.0", "trial_number": "0", "skipped": "False", "complete": "False", "assignment": "3X4MXAO0BHWJLTOLVSJTHSM54OHWRG", "start_time": "1.51682208763e+12", "human_length": "12", "nodes_expanded": "999", "instance": "prb31907", "end_time": "1.51682210398e+12", "optimal_length": "11", "subject": "A2IBQA01NR5N76"}
{"rt": "62948.0", "trial_number": "1", "skipped": "False", "complete": "False", "assignment": "3X4MXAO0BHWJLTOLVSJTHSM54OHWRG", "start_time": "1.51682210937e+12", "human_length": "31", "nodes_expanded": "999", "instance": "prb31907", "end_time": "1.51682217232e+12", "optimal_length": "11", "subject": "A2IBQA01NR5N76"}
{"rt": "0.0", "trial_number": "2", "skipped": "False", "complete": "False", "assignment": "3X4MXAO0BHWJLTOLVSJTHSM54OHWRG", "start_time": "1.51682217588e+12", "human_length": "1", "nodes_expanded": "999", "instance": "prb31907", "end_time": "1.51682217588e+12", "optimal_length": "11", "subject": "A2IBQA01NR5N76"}
{"rt": "0.0", "trial_number": "3", "skipped": "False", "complete": "False", "assignment": "3X4MXAO0BHWJLTOLVSJTHSM54OHWRG", "start_time": "1.51682208763e+12", "human_length": "1", "nodes_expanded": "999", "instance": "prb31907", "end_time": "1.51682208763e+12", "optimal_length": "11", "subject": "A2IBQA01NR5N76"}
{"rt": "0.0", "trial_number": "4", "skipped": "False", "complete": "False", "assignment": "3X4MXAO0BHWJLTOLVSJTHSM54OHWRG", "start_time": "1.51682210937e+12", "human_length": "1", "nodes_expanded": "999", "instance": "prb31907", "end_time": "1.51682210937e+12", "optimal_length": "11", "subject": "A2IBQA01NR5N76"}
{"rt": "57661.0", "trial_number": "5", "skipped": "False", "complete": "True", "assignment": "3X4MXAO0BHWJLTOLVSJTHSM54OHWRG", "start_time": "1.51682217588e+12", "human_length": "23", "nodes_expanded": "999", "instance": "prb31907", "end_time": "1.51682223354e+12", "optimal_length": "11", "subject": "A2IBQA01NR5N76"}
{"rt": "16345.0", "trial_number": "0", "skipped": "False", "complete": "False", "assignment": "3X4MXAO0BHWJLTOLVSJTHSM54OHWRG", "start_time": "1.51682208763e+12", "human_length": "12", "nodes_expanded": "999", "instance": "prb31907", "end_time": "1.51682210398e+12", "optimal_length": "11", "subject": "A2IBQA01NR5N76"}
{"rt": "62948.0", "trial_number": "1", "skipped": "False", "complete": "False", "assignment": "3X4MXAO0BHWJLTOLVSJTHSM54OHWRG", "start_time": "1.51682210937e+12", "human_length": "31", "nodes_expanded": "999", "instance": "prb31907", "end_time": "1.51682217232e+12", "optimal_length": "11", "subject": "A2IBQA01NR5N76"}
{"rt": "57661.0", "trial_number": "2", "skipped": "False", "complete": "True", "assignment": "3X4MXAO0BHWJLTOLVSJTHSM54OHWRG", "start_time": "1.51682217588e+12", "human_length": "23", "nodes_expanded": "999", "instance": "prb31907", "end_time": "1.51682223354e+12", "optimal_length": "11", "subject": "A2IBQA01NR5N76"}
{"rt": "37142.0", "trial_number": "0", "skipped": "False", "complete": "True", "assignment": "3TAYZSBPLMG9ASQRWXURJVBCPLN2SH", "start_time": "1.51813590557e+12", "human_length": "22", "nodes_expanded": "999", "instance": "prb31907", "end_time": "1.51813594272e+12", "optimal_length": "11", "subject": "A2RCYLKY072XXO"}
{"rt": "54594.0", "trial_number": "0", "skipped": "False", "complete": "True", "assignment": "3WJEQKOXA9AYLBM1WT8MTC71B9AA1K", "start_time": "1.51814383684e+12", "human_length": "36", "nodes_expanded": "999", "instance": "prb31907", "end_time": "1.51814389144e+12", "optimal_length": "11", "subject": "A2RRC5B4M80XXO"}
{"rt": "0.0", "trial_number": "0", "skipped": "False", "complete": "False", "assignment": "3WSELTNVR4AZUVYAYCSWZIQW0J4ATB", "start_time": "1.51673958579e+12", "human_length": "1", "nodes_expanded": "999", "instance": "prb31907", "end_time": "1.51673958579e+12", "optimal_length": "11", "subject": "A2TQNX64349OZ9"}
{"rt": "0.0", "trial_number": "1", "skipped": "False", "complete": "False", "assignment": "3WSELTNVR4AZUVYAYCSWZIQW0J4ATB", "start_time": "1.51673958579e+12", "human_length": "1", "nodes_expanded": "999", "instance": "prb31907", "end_time": "1.51673958579e+12", "optimal_length": "11", "subject": "A2TQNX64349OZ9"}
{"rt": "41362.0", "trial_number": "2", "skipped": "False", "complete": "True", "assignment": "3WSELTNVR4AZUVYAYCSWZIQW0J4ATB", "start_time": "1.51673958579e+12", "human_length": "38", "nodes_expanded": "999", "instance": "prb31907", "end_time": "1.51673962715e+12", "optimal_length": "11", "subject": "A2TQNX64349OZ9"}
{"rt": "41362.0", "trial_number": "0", "skipped": "False", "complete": "True", "assignment": "3WSELTNVR4AZUVYAYCSWZIQW0J4ATB", "start_time": "1.51673958579e+12", "human_length": "38", "nodes_expanded": "999", "instance": "prb31907", "end_time": "1.51673962715e+12", "optimal_length": "11", "subject": "A2TQNX64349OZ9"}
{"rt": "13867.0", "trial_number": "0", "skipped": "False", "complete": "False", "assignment": "3JCG6DTRV4YEPVDZ64VNKDUEMPGQQ1", "start_time": "1.51794766004e+12", "human_length": "4", "nodes_expanded": "999", "instance": "prb31907", "end_time": "1.5179476739e+12", "optimal_length": "11", "subject": "A2V7KYLBCBTI3B"}
{"rt": "19471.0", "trial_number": "1", "skipped": "False", "complete": "True", "assignment": "3JCG6DTRV4YEPVDZ64VNKDUEMPGQQ1", "start_time": "1.51794768034e+12", "human_length": "12", "nodes_expanded": "999", "instance": "prb31907", "end_time": "1.51794769981e+12", "optimal_length": "11", "subject": "A2V7KYLBCBTI3B"}
{"rt": "0.0", "trial_number": "0", "skipped": "False", "complete": "False", "assignment": "3EWIJTFFVPF14ZIVGF68BQEIRXP0ER", "start_time": "1.51814822184e+12", "human_length": "1", "nodes_expanded": "999", "instance": "prb31907", "end_time": "1.51814822184e+12", "optimal_length": "11", "subject": "A30AGR5KF8IEL"}
{"rt": "0.0", "trial_number": "1", "skipped": "False", "complete": "False", "assignment": "3EWIJTFFVPF14ZIVGF68BQEIRXP0ER", "start_time": "1.51814822185e+12", "human_length": "1", "nodes_expanded": "999", "instance": "prb31907", "end_time": "1.51814822185e+12", "optimal_length": "11", "subject": "A30AGR5KF8IEL"}
{"rt": "70060.0", "trial_number": "2", "skipped": "False", "complete": "True", "assignment": "3EWIJTFFVPF14ZIVGF68BQEIRXP0ER", "start_time": "1.51814822222e+12", "human_length": "37", "nodes_expanded": "999", "instance": "prb31907", "end_time": "1.51814829228e+12", "optimal_length": "11", "subject": "A30AGR5KF8IEL"}
{"rt": "23388.0", "trial_number": "0", "skipped": "False", "complete": "True", "assignment": "3E1QT0TDFQHV2TPK729EPKIS2ND8IY", "start_time": "1.51813790323e+12", "human_length": "20", "nodes_expanded": "999", "instance": "prb31907", "end_time": "1.51813792662e+12", "optimal_length": "11", "subject": "A3BXT78QXFC6F3"}
{"rt": "37193.0", "trial_number": "0", "skipped": "False", "complete": "False", "assignment": "34HJIJKLP64Z5YMIU6IKNXSH7PDV4I", "start_time": "1.51794253110e+12", "human_length": "13", "nodes_expanded": "999", "instance": "prb31907", "end_time": "1.5179425683e+12", "optimal_length": "11", "subject": "A3CTXNQ2GXIQSP"}
{"rt": "26086.0", "trial_number": "1", "skipped": "False", "complete": "True", "assignment": "34HJIJKLP64Z5YMIU6IKNXSH7PDV4I", "start_time": "1.51794257111e+12", "human_length": "17", "nodes_expanded": "999", "instance": "prb31907", "end_time": "1.51794259719e+12", "optimal_length": "11", "subject": "A3CTXNQ2GXIQSP"}
{"rt": "30257.0", "trial_number": "0", "skipped": "False", "complete": "True", "assignment": "3TPWUS5F8A9FFRZ2DVTYSXNJ6BWWC6", "start_time": "1.51794030185e+12", "human_length": "19", "nodes_expanded": "999", "instance": "prb31907", "end_time": "1.51794033211e+12", "optimal_length": "11", "subject": "A3GXC3VG37CQ3G"}
{"rt": "49624.0", "trial_number": "0", "skipped": "False", "complete": "True", "assignment": "3V5Q80FXIYZ5QB5C6ITQBN30WY823U", "start_time": "1.51753348101e+12", "human_length": "30", "nodes_expanded": "999", "instance": "prb31907", "end_time": "1.51753353063e+12", "optimal_length": "11", "subject": "A3NMQ3019X6YE0"}
{"rt": "49624.0", "trial_number": "0", "skipped": "False", "complete": "True", "assignment": "3V5Q80FXIYZ5QB5C6ITQBN30WY823U", "start_time": "1.51753348101e+12", "human_length": "30", "nodes_expanded": "999", "instance": "prb31907", "end_time": "1.51753353063e+12", "optimal_length": "11", "subject": "A3NMQ3019X6YE0"}
{"rt": "39375.0", "trial_number": "0", "skipped": "False", "complete": "False", "assignment": "3STRJBFXOXZ5687WA35LTWTS7QZKTT", "start_time": "1.51794439662e+12", "human_length": "11", "nodes_expanded": "999", "instance": "prb31907", "end_time": "1.517944436e+12", "optimal_length": "11", "subject": "A3OB6REG5CGHK1"}
{"rt": "13826.0", "trial_number": "1", "skipped": "False", "complete": "True", "assignment": "3STRJBFXOXZ5687WA35LTWTS7QZKTT", "start_time": "1.51794443999e+12", "human_length": "11", "nodes_expanded": "999", "instance": "prb31907", "end_time": "1.51794445382e+12", "optimal_length": "11", "subject": "A3OB6REG5CGHK1"}
{"rt": "0.0", "trial_number": "0", "skipped": "False", "complete": "False", "assignment": "3X87C8JFV7JQ2BSCY8KSFD9F2ILSQK", "start_time": "1.51674088428e+12", "human_length": "1", "nodes_expanded": "999", "instance": "prb31907", "end_time": "1.51674088428e+12", "optimal_length": "11", "subject": "A3Q0XAGQ7TD7MP"}
{"rt": "0.0", "trial_number": "1", "skipped": "False", "complete": "False", "assignment": "3X87C8JFV7JQ2BSCY8KSFD9F2ILSQK", "start_time": "1.51674088428e+12", "human_length": "1", "nodes_expanded": "999", "instance": "prb31907", "end_time": "1.51674088428e+12", "optimal_length": "11", "subject": "A3Q0XAGQ7TD7MP"}
{"rt": "23149.0", "trial_number": "2", "skipped": "False", "complete": "False", "assignment": "3X87C8JFV7JQ2BSCY8KSFD9F2ILSQK", "start_time": "1.51674088428e+12", "human_length": "21", "nodes_expanded": "999", "instance": "prb31907", "end_time": "1.51674090743e+12", "optimal_length": "11", "subject": "A3Q0XAGQ7TD7MP"}
{"rt": "23799.0", "trial_number": "3", "skipped": "False", "complete": "True", "assignment": "3GLB5JMZFY3TNXFGYMKRQ0JDXNTDGZ", "start_time": "1.51794634854e+12", "human_length": "14", "nodes_expanded": "999", "instance": "prb31907", "end_time": "1.51794637234e+12", "optimal_length": "11", "subject": "A3Q0XAGQ7TD7MP"}
{"rt": "27439.0", "trial_number": "0", "skipped": "False", "complete": "False", "assignment": "3X87C8JFV7JQ2BSCY8KSFD9F2ILSQK", "start_time": "1.51674088428e+12", "human_length": "9", "nodes_expanded": "999", "instance": "prb31907", "end_time": "1.51674091172e+12", "optimal_length": "11", "subject": "A3Q0XAGQ7TD7MP"}
{"rt": "23799.0", "trial_number": "1", "skipped": "False", "complete": "True", "assignment": "3GLB5JMZFY3TNXFGYMKRQ0JDXNTDGZ", "start_time": "1.51794634854e+12", "human_length": "14", "nodes_expanded": "999", "instance": "prb31907", "end_time": "1.51794637234e+12", "optimal_length": "11", "subject": "A3Q0XAGQ7TD7MP"}
{"rt": "45605.0", "trial_number": "0", "skipped": "False", "complete": "True", "assignment": "3M0BCWMB8W4W5M7WZVX3HDH1P53WB1", "start_time": "1.51815754481e+12", "human_length": "27", "nodes_expanded": "999", "instance": "prb31907", "end_time": "1.51815759041e+12", "optimal_length": "11", "subject": "A53S7J4JGWG38"}
{"rt": "22028.0", "trial_number": "0", "skipped": "False", "complete": "True", "assignment": "3IXEICO793RY7TM78ZBKJDOA7ADT6Q", "start_time": "1.51816784937e+12", "human_length": "21", "nodes_expanded": "999", "instance": "prb31907", "end_time": "1.5181678714e+12", "optimal_length": "11", "subject": "ALH1K6ZAQQMN7"}
{"rt": "16798.0", "trial_number": "0", "skipped": "False", "complete": "False", "assignment": "37QW5D2ZRHUKW7SGCE3STMOFBMK8SX", "start_time": "1.51815681424e+12", "human_length": "10", "nodes_expanded": "999", "instance": "prb31907", "end_time": "1.51815683104e+12", "optimal_length": "11", "subject": "AMW2XLD9443OH"}
{"rt": "21879.0", "trial_number": "1", "skipped": "False", "complete": "True", "assignment": "37QW5D2ZRHUKW7SGCE3STMOFBMK8SX", "start_time": "1.5181568355e+12", "human_length": "15", "nodes_expanded": "999", "instance": "prb31907", "end_time": "1.51815685738e+12", "optimal_length": "11", "subject": "AMW2XLD9443OH"}
{"rt": "21691.0", "trial_number": "0", "skipped": "True", "complete": "False", "assignment": "36H9ULYP6320CJJDXY0KBDEE1Z3JFB", "start_time": "1.51753357610e+12", "human_length": "8", "nodes_expanded": "999", "instance": "prb31907", "end_time": "1.5175335978e+12", "optimal_length": "11", "subject": "AN098C29EGJ6"}
{"rt": "36483.0", "trial_number": "0", "skipped": "False", "complete": "True", "assignment": "3HWRJOOET6A15827PHPSLWK1MOYSEU", "start_time": "1.51814603723e+12", "human_length": "27", "nodes_expanded": "999", "instance": "prb31907", "end_time": "1.51814607371e+12", "optimal_length": "11", "subject": "AO1QGAUZ85T6L"}
{"rt": "18027.0", "trial_number": "0", "skipped": "False", "complete": "True", "assignment": "3AZHRG4CU5SYU12YRVPCSZALW5003R", "start_time": "1.51630739177e+12", "human_length": "24", "nodes_expanded": "999", "instance": "prb31907", "end_time": "1.5163074098e+12", "optimal_length": "11", "subject": "ARWF605I7RWM7"}
{"rt": "26192.0", "trial_number": "0", "skipped": "False", "complete": "True", "assignment": "3ZSY5X72NYJBGKFJ46SJ0Y9J0RLROB", "start_time": "1.5163876592e+12", "human_length": "18", "nodes_expanded": "999", "instance": "prb31907", "end_time": "1.5163876854e+12", "optimal_length": "11", "subject": "AU4KK3OYS2UZF"}
{"rt": "31133.0", "trial_number": "0", "skipped": "False", "complete": "True", "assignment": "33PPO7FECWN7JOLBOAKUBCWTC0AIDL", "start_time": "1.51795041669e+12", "human_length": "16", "nodes_expanded": "999", "instance": "prb31907", "end_time": "1.51795044782e+12", "optimal_length": "11", "subject": "AXKM02NVXNGOM"}
{"rt": "36883.0", "trial_number": "0", "skipped": "False", "complete": "True", "assignment": "3ON104KXQL4CKNMNKGNG9ZBVBAB4WI", "start_time": "1.5163134835e+12", "human_length": "28", "nodes_expanded": "999", "instance": "prb31907", "end_time": "1.51631352038e+12", "optimal_length": "11", "subject": "AYPOAY43REHC8"}
