{"rt": "15679.0", "trial_number": "0", "skipped": "True", "complete": "False", "assignment": "3TYCR1GOTDRCCQYD1V64UK7OHTBZLQ", "start_time": "1.51753717848e+12", "human_length": "16", "nodes_expanded": "999", "instance": "prb33117", "end_time": "1.51753719415e+12", "optimal_length": "14", "subject": "A13BZCNJ0WR1T7"}
{"rt": "0.0", "trial_number": "0", "skipped": "False", "complete": "False", "assignment": "3YW4XOSQKRTI0K0Z2YPDTDJVFABU1I", "start_time": "1.51682200559e+12", "human_length": "1", "nodes_expanded": "999", "instance": "prb33117", "end_time": "1.51682200559e+12", "optimal_length": "14", "subject": "A15781PHGW377Y"}
{"rt": "31480.0", "trial_number": "1", "skipped": "False", "complete": "True", "assignment": "3YW4XOSQKRTI0K0Z2YPDTDJVFABU1I", "start_time": "1.51682200559e+12", "human_length": "19", "nodes_expanded": "999", "instance": "prb33117", "end_time": "1.51682203707e+12", "optimal_length": "14", "subject": "A15781PHGW377Y"}
{"rt": "31480.0", "trial_number": "0", "skipped": "False", "complete": "True", "assignment": "3YW4XOSQKRTI0K0Z2YPDTDJVFABU1I", "start_time": "1.51682200559e+12", "human_length": "19", "nodes_expanded": "999", "instance": "prb33117", "end_time": "1.51682203707e+12", "optimal_length": "14", "subject": "A15781PHGW377Y"}
{"rt": "43621.0", "trial_number": "0", "skipped": "False", "complete": "True", "assignment": "3TS1AR6UQRM7SOIBWPBN8N9589Y7FV", "start_time": "1.51684163846e+12", "human_length": "34", "nodes_expanded": "999", "instance": "prb33117", "end_time": "1.51684168208e+12", "optimal_length": "14", "subject": "A15FXHC1CVNW31"}
{"rt": "0.0", "trial_number": "0", "skipped": "False", "complete": "False", "assignment": "3VE8AYVF8N5BS2NU6U3TMN50JMNF8V", "start_time": "1.51673634584e+12", "human_length": "1", "nodes_expanded": "999", "instance": "prb33117", "end_time": "1.51673634584e+12", "optimal_length": "14", "subject": "A18QU0YQB6Q8DF"}
{"rt": "0.0", "trial_number": "1", "skipped": "False", "complete": "False", "assignment": "3VE8AYVF8N5BS2NU6U3TMN50JMNF8V", "start_time": "1.51673634584e+12", "human_length": "1", "nodes_expanded": "999", "instance": "prb33117", "end_time": "1.51673634584e+12", "optimal_length": "14", "subject": "A18QU0YQB6Q8DF"}
{"rt": "121777.0", "trial_number": "2", "skipped": "True", "complete": "False", "assignment": "3VE8AYVF8N5BS2NU6U3TMN50JMNF8V", "start_time": "1.51673634584e+12", "human_length": "148", "nodes_expanded": "999", "instance": "prb33117", "end_time": "1.51673646762e+12", "optimal_length": "14", "subject": "A18QU0YQB6Q8DF"}
{"rt": "121777.0", "trial_number": "0", "skipped": "True", "complete": "False", "assignment": "3VE8AYVF8N5BS2NU6U3TMN50JMNF8V", "start_time": "1.51673634584e+12", "human_length": "50", "nodes_expanded": "999", "instance": "prb33117", "end_time": "1.51673646762e+12", "optimal_length": "14", "subject": "A18QU0YQB6Q8DF"}
{"rt": "45747.0", "trial_number": "0", "skipped": "False", "complete": "True", "assignment": "3IJXV6UZ1YR1KY4G6BFEG1DXR47RIC", "start_time": "1.51797436401e+12", "human_length": "45", "nodes_expanded": "999", "instance": "prb33117", "end_time": "1.51797440976e+12", "optimal_length": "14", "subject": "A18T3WK7J16C1B"}
{"rt": "38660.0", "trial_number": "0", "skipped": "False", "complete": "True", "assignment": "3PMBY0YE28B43VMUKKJ6EDF85RV9C8", "start_time": "1.51638633125e+12", "human_length": "28", "nodes_expanded": "999", "instance": "prb33117", "end_time": "1.51638636991e+12", "optimal_length": "14", "subject": "A191V7PT3DQKDP"}
{"rt": "51432.0", "trial_number": "0", "skipped": "False", "complete": "True", "assignment": "3ZSANO2JCGFTBM23KS9Y3E51YP4FSQ", "start_time": "1.51814358099e+12", "human_length": "57", "nodes_expanded": "999", "instance": "prb33117", "end_time": "1.51814363242e+12", "optimal_length": "14", "subject": "A1F42D4L22K5ND"}
{"rt": "63707.0", "trial_number": "0", "skipped": "False", "complete": "True", "assignment": "3TS1AR6UQRM7SOIBWPBN8N9589Y7FV", "start_time": "1.51683942039e+12", "human_length": "52", "nodes_expanded": "999", "instance": "prb33117", "end_time": "1.51683948409e+12", "optimal_length": "14", "subject": "A1F4N58CAX8IMK"}
{"rt": "165154.0", "trial_number": "1", "skipped": "False", "complete": "True", "assignment": "35DR22AR5ES6RR89U7EJ1DXW91AX3P", "start_time": "1.51795353994e+12", "human_length": "137", "nodes_expanded": "999", "instance": "prb33117", "end_time": "1.51795370509e+12", "optimal_length": "14", "subject": "A1F4N58CAX8IMK"}
{"rt": "42625.0", "trial_number": "0", "skipped": "False", "complete": "True", "assignment": "33F859I567LE8WC74WB3GA7E94XBHW", "start_time": "1.5179696714e+12", "human_length": "38", "nodes_expanded": "999", "instance": "prb33117", "end_time": "1.51796971403e+12", "optimal_length": "14", "subject": "A1GQS6USF2JEYG"}
{"rt": "26967.0", "trial_number": "0", "skipped": "False", "complete": "True", "assignment": "3XLBSAQ9Z5KDX59BX15UBFPNNHYZ7Q", "start_time": "1.51814709104e+12", "human_length": "21", "nodes_expanded": "999", "instance": "prb33117", "end_time": "1.51814711801e+12", "optimal_length": "14", "subject": "A1HFNOKU591WCY"}
{"rt": "13684.0", "trial_number": "0", "skipped": "False", "complete": "True", "assignment": "3FTF2T8WLSQDHTSZ1BJ7Q7MB14SW9H", "start_time": "1.51813618874e+12", "human_length": "14", "nodes_expanded": "999", "instance": "prb33117", "end_time": "1.51813620242e+12", "optimal_length": "14", "subject": "A1IUH9D7N69VS"}
{"rt": "38481.0", "trial_number": "0", "skipped": "False", "complete": "False", "assignment": "3VE8AYVF8N5BS2NU6U3TMN50MV38FP", "start_time": "1.51814275874e+12", "human_length": "13", "nodes_expanded": "999", "instance": "prb33117", "end_time": "1.51814279722e+12", "optimal_length": "14", "subject": "A1JN13098RIE78"}
{"rt": "37554.0", "trial_number": "1", "skipped": "True", "complete": "False", "assignment": "3VE8AYVF8N5BS2NU6U3TMN50MV38FP", "start_time": "1.51814280303e+12", "human_length": "13", "nodes_expanded": "999", "instance": "prb33117", "end_time": "1.51814284058e+12", "optimal_length": "14", "subject": "A1JN13098RIE78"}
{"rt": "37759.0", "trial_number": "0", "skipped": "False", "complete": "True", "assignment": "3YW4XOSQKRTI0K0Z2YPDTDJVFABU1I", "start_time": "1.51683200078e+12", "human_length": "17", "nodes_expanded": "999", "instance": "prb33117", "end_time": "1.51683203854e+12", "optimal_length": "14", "subject": "A1LR0VQIHQUJAM"}
{"rt": "23569.0", "trial_number": "0", "skipped": "False", "complete": "True", "assignment": "3R5F3LQFV3SKIB1AENMWM1BICT5OZB", "start_time": "1.51796002898e+12", "human_length": "23", "nodes_expanded": "999", "instance": "prb33117", "end_time": "1.51796005255e+12", "optimal_length": "14", "subject": "A1N1EF0MIRSEZZ"}
{"rt": "40967.0", "trial_number": "0", "skipped": "True", "complete": "False", "assignment": "31LM9EDVOM0C0BWUVMJXJINN3QPJNI", "start_time": "1.51752566883e+12", "human_length": "8", "nodes_expanded": "999", "instance": "prb33117", "end_time": "1.5175257098e+12", "optimal_length": "14", "subject": "A1NT8BT94ME6F5"}
{"rt": "33922.0", "trial_number": "0", "skipped": "False", "complete": "True", "assignment": "3PB5A5BD0WED6OE679H5Q89HBDGG71", "start_time": "1.51795022443e+12", "human_length": "20", "nodes_expanded": "999", "instance": "prb33117", "end_time": "1.51795025835e+12", "optimal_length": "14", "subject": "A1USR9JCAMDGM3"}
{"rt": "49504.0", "trial_number": "0", "skipped": "False", "complete": "False", "assignment": "3M0BCWMB8W4W5M7WZVX3HDH1M3FBWL", "start_time": "1.51683854603e+12", "human_length": "12", "nodes_expanded": "999", "instance": "prb33117", "end_time": "1.51683859553e+12", "optimal_length": "14", "subject": "A1XDMS0KFSF5JW"}
{"rt": "37945.0", "trial_number": "1", "skipped": "False", "complete": "False", "assignment": "3M0BCWMB8W4W5M7WZVX3HDH1M3FBWL", "start_time": "1.51683859939e+12", "human_length": "6", "nodes_expanded": "999", "instance": "prb33117", "end_time": "1.51683863733e+12", "optimal_length": "14", "subject": "A1XDMS0KFSF5JW"}
{"rt": "44730.0", "trial_number": "2", "skipped": "False", "complete": "False", "assignment": "3M0BCWMB8W4W5M7WZVX3HDH1M3FBWL", "start_time": "1.51683864057e+12", "human_length": "24", "nodes_expanded": "999", "instance": "prb33117", "end_time": "1.5168386853e+12", "optimal_length": "14", "subject": "A1XDMS0KFSF5JW"}
{"rt": "43495.0", "trial_number": "3", "skipped": "False", "complete": "True", "assignment": "3M0BCWMB8W4W5M7WZVX3HDH1M3FBWL", "start_time": "1.51683868728e+12", "human_length": "25", "nodes_expanded": "999", "instance": "prb33117", "end_time": "1.51683873078e+12", "optimal_length": "14", "subject": "A1XDMS0KFSF5JW"}
{"rt": "82251.0", "trial_number": "0", "skipped": "False", "complete": "True", "assignment": "3XC1O3LBOTUGQEPEV3HM8W67X4RTLL", "start_time": "1.51813757769e+12", "human_length": "50", "nodes_expanded": "999", "instance": "prb33117", "end_time": "1.51813765994e+12", "optimal_length": "14", "subject": "A1ZTSCPETU3UJW"}
{"rt": "46946.0", "trial_number": "0", "skipped": "False", "complete": "False", "assignment": "34BBWHLWHBJ6SUL255PK30LEGY5IWG", "start_time": "1.51639404703e+12", "human_length": "15", "nodes_expanded": "999", "instance": "prb33117", "end_time": "1.51639409398e+12", "optimal_length": "14", "subject": "A214HWAW1PYWO8"}
{"rt": "59317.0", "trial_number": "1", "skipped": "False", "complete": "True", "assignment": "34BBWHLWHBJ6SUL255PK30LEGY5IWG", "start_time": "1.51639409598e+12", "human_length": "16", "nodes_expanded": "999", "instance": "prb33117", "end_time": "1.5163941553e+12", "optimal_length": "14", "subject": "A214HWAW1PYWO8"}
{"rt": "41147.0", "trial_number": "0", "skipped": "False", "complete": "False", "assignment": "3X87C8JFV7JQ2BSCY8KSFD9F2ILSQK", "start_time": "1.51674542396e+12", "human_length": "22", "nodes_expanded": "999", "instance": "prb33117", "end_time": "1.51674546511e+12", "optimal_length": "14", "subject": "A21S7MA9DCW95E"}
{"rt": "47396.0", "trial_number": "1", "skipped": "False", "complete": "False", "assignment": "3X87C8JFV7JQ2BSCY8KSFD9F2ILSQK", "start_time": "1.51674546783e+12", "human_length": "25", "nodes_expanded": "999", "instance": "prb33117", "end_time": "1.51674551523e+12", "optimal_length": "14", "subject": "A21S7MA9DCW95E"}
{"rt": "0.0", "trial_number": "2", "skipped": "False", "complete": "False", "assignment": "3X87C8JFV7JQ2BSCY8KSFD9F2ILSQK", "start_time": "1.51674552215e+12", "human_length": "1", "nodes_expanded": "999", "instance": "prb33117", "end_time": "1.51674552215e+12", "optimal_length": "14", "subject": "A21S7MA9DCW95E"}
{"rt": "0.0", "trial_number": "3", "skipped": "False", "complete": "False", "assignment": "3X87C8JFV7JQ2BSCY8KSFD9F2ILSQK", "start_time": "1.51674542396e+12", "human_length": "1", "nodes_expanded": "999", "instance": "prb33117", "end_time": "1.51674542396e+12", "optimal_length": "14", "subject": "A21S7MA9DCW95E"}
{"rt": "0.0", "trial_number": "4", "skipped": "False", "complete": "False", "assignment": "3X87C8JFV7JQ2BSCY8KSFD9F2ILSQK", "start_time": "1.51674546783e+12", "human_length": "1", "nodes_expanded": "999", "instance": "prb33117", "end_time": "1.51674546783e+12", "optimal_length": "14", "subject": "A21S7MA9DCW95E"}
{"rt": "0.0", "trial_number": "5", "skipped": "False", "complete": "False", "assignment": "3X87C8JFV7JQ2BSCY8KSFD9F2ILSQK", "start_time": "1.51674552215e+12", "human_length": "1", "nodes_expanded": "999", "instance": "prb33117", "end_time": "1.51674552215e+12", "optimal_length": "14", "subject": "A21S7MA9DCW95E"}
{"rt": "0.0", "trial_number": "6", "skipped": "False", "complete": "False", "assignment": "3X87C8JFV7JQ2BSCY8KSFD9F2ILSQK", "start_time": "1.51674542396e+12", "human_length": "1", "nodes_expanded": "999", "instance": "prb33117", "end_time": "1.51674542396e+12", "optimal_length": "14", "subject": "A21S7MA9DCW95E"}
{"rt": "0.0", "trial_number": "7", "skipped": "False", "complete": "False", "assignment": "3X87C8JFV7JQ2BSCY8KSFD9F2ILSQK", "start_time": "1.51674546783e+12", "human_length": "1", "nodes_expanded": "999", "instance": "prb33117", "end_time": "1.51674546783e+12", "optimal_length": "14", "subject": "A21S7MA9DCW95E"}
{"rt": "56386.0", "trial_number": "8", "skipped": "False", "complete": "True", "assignment": "3X87C8JFV7JQ2BSCY8KSFD9F2ILSQK", "start_time": "1.51674552215e+12", "human_length": "29", "nodes_expanded": "999", "instance": "prb33117", "end_time": "1.51674557854e+12", "optimal_length": "14", "subject": "A21S7MA9DCW95E"}
{"rt": "41147.0", "trial_number": "0", "skipped": "False", "complete": "False", "assignment": "3X87C8JFV7JQ2BSCY8KSFD9F2ILSQK", "start_time": "1.51674542396e+12", "human_length": "22", "nodes_expanded": "999", "instance": "prb33117", "end_time": "1.51674546511e+12", "optimal_length": "14", "subject": "A21S7MA9DCW95E"}
{"rt": "47396.0", "trial_number": "1", "skipped": "False", "complete": "False", "assignment": "3X87C8JFV7JQ2BSCY8KSFD9F2ILSQK", "start_time": "1.51674546783e+12", "human_length": "25", "nodes_expanded": "999", "instance": "prb33117", "end_time": "1.51674551523e+12", "optimal_length": "14", "subject": "A21S7MA9DCW95E"}
{"rt": "56386.0", "trial_number": "2", "skipped": "False", "complete": "True", "assignment": "3X87C8JFV7JQ2BSCY8KSFD9F2ILSQK", "start_time": "1.51674552215e+12", "human_length": "29", "nodes_expanded": "999", "instance": "prb33117", "end_time": "1.51674557854e+12", "optimal_length": "14", "subject": "A21S7MA9DCW95E"}
{"rt": "0.0", "trial_number": "0", "skipped": "False", "complete": "False", "assignment": "3IHR8NYAM89M0EPM8U9LH53ZJDTP4U", "start_time": "1.51682703856e+12", "human_length": "1", "nodes_expanded": "999", "instance": "prb33117", "end_time": "1.51682703856e+12", "optimal_length": "14", "subject": "A23437BMZ5T1FH"}
{"rt": "39312.0", "trial_number": "1", "skipped": "False", "complete": "True", "assignment": "3IHR8NYAM89M0EPM8U9LH53ZJDTP4U", "start_time": "1.51682703856e+12", "human_length": "31", "nodes_expanded": "999", "instance": "prb33117", "end_time": "1.51682707787e+12", "optimal_length": "14", "subject": "A23437BMZ5T1FH"}
{"rt": "227498.0", "trial_number": "0", "skipped": "True", "complete": "False", "assignment": "3SITXWYCNWHBUMCM90TPJWV8Y7AXBW", "start_time": "1.51816301526e+12", "human_length": "54", "nodes_expanded": "999", "instance": "prb33117", "end_time": "1.51816324275e+12", "optimal_length": "14", "subject": "A28RX7L0QZ993M"}
{"rt": "0.0", "trial_number": "0", "skipped": "False", "complete": "False", "assignment": "37WLF8U1WQYZ4AWKEQXSIM1ELVEK6W", "start_time": "1.51683182969e+12", "human_length": "1", "nodes_expanded": "999", "instance": "prb33117", "end_time": "1.51683182969e+12", "optimal_length": "14", "subject": "A2EPBSY0VPI38S"}
{"rt": "133695.0", "trial_number": "1", "skipped": "True", "complete": "False", "assignment": "37WLF8U1WQYZ4AWKEQXSIM1ELVEK6W", "start_time": "1.51683182969e+12", "human_length": "58", "nodes_expanded": "999", "instance": "prb33117", "end_time": "1.51683196339e+12", "optimal_length": "14", "subject": "A2EPBSY0VPI38S"}
{"rt": "0.0", "trial_number": "0", "skipped": "False", "complete": "False", "assignment": "3X4MXAO0BHWJLTOLVSJTHSM54OHWRG", "start_time": "1.51682383077e+12", "human_length": "1", "nodes_expanded": "999", "instance": "prb33117", "end_time": "1.51682383077e+12", "optimal_length": "14", "subject": "A2IBQA01NR5N76"}
{"rt": "77789.0", "trial_number": "1", "skipped": "False", "complete": "True", "assignment": "3X4MXAO0BHWJLTOLVSJTHSM54OHWRG", "start_time": "1.51682383077e+12", "human_length": "60", "nodes_expanded": "999", "instance": "prb33117", "end_time": "1.51682390856e+12", "optimal_length": "14", "subject": "A2IBQA01NR5N76"}
{"rt": "77789.0", "trial_number": "0", "skipped": "False", "complete": "True", "assignment": "3X4MXAO0BHWJLTOLVSJTHSM54OHWRG", "start_time": "1.51682383077e+12", "human_length": "60", "nodes_expanded": "999", "instance": "prb33117", "end_time": "1.51682390856e+12", "optimal_length": "14", "subject": "A2IBQA01NR5N76"}
{"rt": "189797.0", "trial_number": "0", "skipped": "False", "complete": "False", "assignment": "3TYCR1GOTDRCCQYD1V64UK7OE48LZS", "start_time": "1.51638881092e+12", "human_length": "54", "nodes_expanded": "999", "instance": "prb33117", "end_time": "1.51638900072e+12", "optimal_length": "14", "subject": "A2MYB6MLQW0IGN"}
{"rt": "40793.0", "trial_number": "1", "skipped": "False", "complete": "True", "assignment": "3TYCR1GOTDRCCQYD1V64UK7OE48LZS", "start_time": "1.51638900319e+12", "human_length": "22", "nodes_expanded": "999", "instance": "prb33117", "end_time": "1.51638904399e+12", "optimal_length": "14", "subject": "A2MYB6MLQW0IGN"}
{"rt": "54910.0", "trial_number": "0", "skipped": "False", "complete": "True", "assignment": "3FUI0JHJPY6UBT1VAI7VUX8S3KH33W", "start_time": "1.51815177732e+12", "human_length": "39", "nodes_expanded": "999", "instance": "prb33117", "end_time": "1.51815183223e+12", "optimal_length": "14", "subject": "A2QIZ31TMHU0GD"}
{"rt": "103620.0", "trial_number": "0", "skipped": "True", "complete": "False", "assignment": "3TAYZSBPLMG9ASQRWXURJVBCPLN2SH", "start_time": "1.51813617362e+12", "human_length": "48", "nodes_expanded": "999", "instance": "prb33117", "end_time": "1.51813627724e+12", "optimal_length": "14", "subject": "A2RCYLKY072XXO"}
{"rt": "41384.0", "trial_number": "0", "skipped": "False", "complete": "False", "assignment": "3IJXV6UZ1YR1KY4G6BFEG1DXP7SRI1", "start_time": "1.51675213597e+12", "human_length": "25", "nodes_expanded": "999", "instance": "prb33117", "end_time": "1.51675217736e+12", "optimal_length": "14", "subject": "A2RTJ6BDY0DZVZ"}
{"rt": "83112.0", "trial_number": "1", "skipped": "False", "complete": "False", "assignment": "3IJXV6UZ1YR1KY4G6BFEG1DXP7SRI1", "start_time": "1.51675217885e+12", "human_length": "48", "nodes_expanded": "999", "instance": "prb33117", "end_time": "1.51675226196e+12", "optimal_length": "14", "subject": "A2RTJ6BDY0DZVZ"}
{"rt": "0.0", "trial_number": "2", "skipped": "False", "complete": "False", "assignment": "3IJXV6UZ1YR1KY4G6BFEG1DXP7SRI1", "start_time": "1.51675226518e+12", "human_length": "1", "nodes_expanded": "999", "instance": "prb33117", "end_time": "1.51675226518e+12", "optimal_length": "14", "subject": "A2RTJ6BDY0DZVZ"}
{"rt": "0.0", "trial_number": "3", "skipped": "False", "complete": "False", "assignment": "3IJXV6UZ1YR1KY4G6BFEG1DXP7SRI1", "start_time": "1.51675213597e+12", "human_length": "1", "nodes_expanded": "999", "instance": "prb33117", "end_time": "1.51675213597e+12", "optimal_length": "14", "subject": "A2RTJ6BDY0DZVZ"}
{"rt": "0.0", "trial_number": "4", "skipped": "False", "complete": "False", "assignment": "3IJXV6UZ1YR1KY4G6BFEG1DXP7SRI1", "start_time": "1.51675217885e+12", "human_length": "1", "nodes_expanded": "999", "instance": "prb33117", "end_time": "1.51675217885e+12", "optimal_length": "14", "subject": "A2RTJ6BDY0DZVZ"}
{"rt": "0.0", "trial_number": "5", "skipped": "False", "complete": "False", "assignment": "3IJXV6UZ1YR1KY4G6BFEG1DXP7SRI1", "start_time": "1.51675226518e+12", "human_length": "1", "nodes_expanded": "999", "instance": "prb33117", "end_time": "1.51675226518e+12", "optimal_length": "14", "subject": "A2RTJ6BDY0DZVZ"}
{"rt": "0.0", "trial_number": "6", "skipped": "False", "complete": "False", "assignment": "3IJXV6UZ1YR1KY4G6BFEG1DXP7SRI1", "start_time": "1.51675213597e+12", "human_length": "1", "nodes_expanded": "999", "instance": "prb33117", "end_time": "1.51675213597e+12", "optimal_length": "14", "subject": "A2RTJ6BDY0DZVZ"}
{"rt": "0.0", "trial_number": "7", "skipped": "False", "complete": "False", "assignment": "3IJXV6UZ1YR1KY4G6BFEG1DXP7SRI1", "start_time": "1.51675217885e+12", "human_length": "1", "nodes_expanded": "999", "instance": "prb33117", "end_time": "1.51675217885e+12", "optimal_length": "14", "subject": "A2RTJ6BDY0DZVZ"}
{"rt": "54355.0", "trial_number": "8", "skipped": "False", "complete": "True", "assignment": "3IJXV6UZ1YR1KY4G6BFEG1DXP7SRI1", "start_time": "1.51675226518e+12", "human_length": "35", "nodes_expanded": "999", "instance": "prb33117", "end_time": "1.51675231954e+12", "optimal_length": "14", "subject": "A2RTJ6BDY0DZVZ"}
{"rt": "41384.0", "trial_number": "0", "skipped": "False", "complete": "False", "assignment": "3IJXV6UZ1YR1KY4G6BFEG1DXP7SRI1", "start_time": "1.51675213597e+12", "human_length": "25", "nodes_expanded": "999", "instance": "prb33117", "end_time": "1.51675217736e+12", "optimal_length": "14", "subject": "A2RTJ6BDY0DZVZ"}
{"rt": "83112.0", "trial_number": "1", "skipped": "False", "complete": "False", "assignment": "3IJXV6UZ1YR1KY4G6BFEG1DXP7SRI1", "start_time": "1.51675217885e+12", "human_length": "48", "nodes_expanded": "999", "instance": "prb33117", "end_time": "1.51675226196e+12", "optimal_length": "14", "subject": "A2RTJ6BDY0DZVZ"}
{"rt": "54355.0", "trial_number": "2", "skipped": "False", "complete": "True", "assignment": "3IJXV6UZ1YR1KY4G6BFEG1DXP7SRI1", "start_time": "1.51675226518e+12", "human_length": "35", "nodes_expanded": "999", "instance": "prb33117", "end_time": "1.51675231954e+12", "optimal_length": "14", "subject": "A2RTJ6BDY0DZVZ"}
{"rt": "9885.0", "trial_number": "0", "skipped": "False", "complete": "False", "assignment": "3WSELTNVR4AZUVYAYCSWZIQW0J4ATB", "start_time": "1.51673967987e+12", "human_length": "8", "nodes_expanded": "999", "instance": "prb33117", "end_time": "1.51673968976e+12", "optimal_length": "14", "subject": "A2TQNX64349OZ9"}
{"rt": "0.0", "trial_number": "1", "skipped": "False", "complete": "False", "assignment": "3WSELTNVR4AZUVYAYCSWZIQW0J4ATB", "start_time": "1.5167396943e+12", "human_length": "1", "nodes_expanded": "999", "instance": "prb33117", "end_time": "1.5167396943e+12", "optimal_length": "14", "subject": "A2TQNX64349OZ9"}
{"rt": "0.0", "trial_number": "2", "skipped": "False", "complete": "False", "assignment": "3WSELTNVR4AZUVYAYCSWZIQW0J4ATB", "start_time": "1.51673967987e+12", "human_length": "1", "nodes_expanded": "999", "instance": "prb33117", "end_time": "1.51673967987e+12", "optimal_length": "14", "subject": "A2TQNX64349OZ9"}
{"rt": "0.0", "trial_number": "3", "skipped": "False", "complete": "False", "assignment": "3WSELTNVR4AZUVYAYCSWZIQW0J4ATB", "start_time": "1.5167396943e+12", "human_length": "1", "nodes_expanded": "999", "instance": "prb33117", "end_time": "1.5167396943e+12", "optimal_length": "14", "subject": "A2TQNX64349OZ9"}
{"rt": "0.0", "trial_number": "4", "skipped": "False", "complete": "False", "assignment": "3WSELTNVR4AZUVYAYCSWZIQW0J4ATB", "start_time": "1.51673967987e+12", "human_length": "1", "nodes_expanded": "999", "instance": "prb33117", "end_time": "1.51673967987e+12", "optimal_length": "14", "subject": "A2TQNX64349OZ9"}
{"rt": "104722.0", "trial_number": "5", "skipped": "False", "complete": "True", "assignment": "3WSELTNVR4AZUVYAYCSWZIQW0J4ATB", "start_time": "1.5167396943e+12", "human_length": "81", "nodes_expanded": "999", "instance": "prb33117", "end_time": "1.51673979902e+12", "optimal_length": "14", "subject": "A2TQNX64349OZ9"}
{"rt": "9885.0", "trial_number": "0", "skipped": "False", "complete": "False", "assignment": "3WSELTNVR4AZUVYAYCSWZIQW0J4ATB", "start_time": "1.51673967987e+12", "human_length": "8", "nodes_expanded": "999", "instance": "prb33117", "end_time": "1.51673968976e+12", "optimal_length": "14", "subject": "A2TQNX64349OZ9"}
{"rt": "104722.0", "trial_number": "1", "skipped": "False", "complete": "True", "assignment": "3WSELTNVR4AZUVYAYCSWZIQW0J4ATB", "start_time": "1.5167396943e+12", "human_length": "81", "nodes_expanded": "999", "instance": "prb33117", "end_time": "1.51673979902e+12", "optimal_length": "14", "subject": "A2TQNX64349OZ9"}
{"rt": "88333.0", "trial_number": "0", "skipped": "False", "complete": "True", "assignment": "37TD41K0AIHM8AITTQJXV8KY05QCSB", "start_time": "1.51752425467e+12", "human_length": "34", "nodes_expanded": "999", "instance": "prb33117", "end_time": "1.517524343e+12", "optimal_length": "14", "subject": "A30KYQGABO7JER"}
{"rt": "46615.0", "trial_number": "0", "skipped": "False", "complete": "False", "assignment": "34HJIJKLP64Z5YMIU6IKNXSH7PDV4I", "start_time": "1.51794260405e+12", "human_length": "28", "nodes_expanded": "999", "instance": "prb33117", "end_time": "1.51794265066e+12", "optimal_length": "14", "subject": "A3CTXNQ2GXIQSP"}
{"rt": "72272.0", "trial_number": "1", "skipped": "True", "complete": "False", "assignment": "34HJIJKLP64Z5YMIU6IKNXSH7PDV4I", "start_time": "1.51794265822e+12", "human_length": "36", "nodes_expanded": "999", "instance": "prb33117", "end_time": "1.5179427305e+12", "optimal_length": "14", "subject": "A3CTXNQ2GXIQSP"}
{"rt": "25963.0", "trial_number": "0", "skipped": "False", "complete": "False", "assignment": "3TPWUS5F8A9FFRZ2DVTYSXNJ6BWWC6", "start_time": "1.51793916186e+12", "human_length": "11", "nodes_expanded": "999", "instance": "prb33117", "end_time": "1.51793918782e+12", "optimal_length": "14", "subject": "A3GXC3VG37CQ3G"}
{"rt": "14814.0", "trial_number": "1", "skipped": "False", "complete": "False", "assignment": "3TPWUS5F8A9FFRZ2DVTYSXNJ6BWWC6", "start_time": "1.51793918872e+12", "human_length": "6", "nodes_expanded": "999", "instance": "prb33117", "end_time": "1.51793920353e+12", "optimal_length": "14", "subject": "A3GXC3VG37CQ3G"}
{"rt": "33723.0", "trial_number": "2", "skipped": "False", "complete": "False", "assignment": "3TPWUS5F8A9FFRZ2DVTYSXNJ6BWWC6", "start_time": "1.51793920567e+12", "human_length": "12", "nodes_expanded": "999", "instance": "prb33117", "end_time": "1.51793923939e+12", "optimal_length": "14", "subject": "A3GXC3VG37CQ3G"}
{"rt": "13814.0", "trial_number": "3", "skipped": "False", "complete": "False", "assignment": "3TPWUS5F8A9FFRZ2DVTYSXNJ6BWWC6", "start_time": "1.51793924172e+12", "human_length": "9", "nodes_expanded": "999", "instance": "prb33117", "end_time": "1.51793925554e+12", "optimal_length": "14", "subject": "A3GXC3VG37CQ3G"}
{"rt": "59817.0", "trial_number": "4", "skipped": "True", "complete": "False", "assignment": "3TPWUS5F8A9FFRZ2DVTYSXNJ6BWWC6", "start_time": "1.51793925774e+12", "human_length": "7", "nodes_expanded": "999", "instance": "prb33117", "end_time": "1.51793931755e+12", "optimal_length": "14", "subject": "A3GXC3VG37CQ3G"}
{"rt": "44663.0", "trial_number": "0", "skipped": "False", "complete": "True", "assignment": "3V5Q80FXIYZ5QB5C6ITQBN30WY823U", "start_time": "1.5175331443e+12", "human_length": "23", "nodes_expanded": "999", "instance": "prb33117", "end_time": "1.51753318896e+12", "optimal_length": "14", "subject": "A3NMQ3019X6YE0"}
{"rt": "44663.0", "trial_number": "0", "skipped": "False", "complete": "True", "assignment": "3V5Q80FXIYZ5QB5C6ITQBN30WY823U", "start_time": "1.5175331443e+12", "human_length": "23", "nodes_expanded": "999", "instance": "prb33117", "end_time": "1.51753318896e+12", "optimal_length": "14", "subject": "A3NMQ3019X6YE0"}
{"rt": "18580.0", "trial_number": "0", "skipped": "False", "complete": "True", "assignment": "3STRJBFXOXZ5687WA35LTWTS7QZKTT", "start_time": "1.51794552884e+12", "human_length": "17", "nodes_expanded": "999", "instance": "prb33117", "end_time": "1.51794554742e+12", "optimal_length": "14", "subject": "A3OB6REG5CGHK1"}
{"rt": "0.0", "trial_number": "0", "skipped": "False", "complete": "False", "assignment": "3X87C8JFV7JQ2BSCY8KSFD9F2ILSQK", "start_time": "1.5167404816e+12", "human_length": "1", "nodes_expanded": "999", "instance": "prb33117", "end_time": "1.5167404816e+12", "optimal_length": "14", "subject": "A3Q0XAGQ7TD7MP"}
{"rt": "0.0", "trial_number": "1", "skipped": "False", "complete": "False", "assignment": "3X87C8JFV7JQ2BSCY8KSFD9F2ILSQK", "start_time": "1.5167404816e+12", "human_length": "1", "nodes_expanded": "999", "instance": "prb33117", "end_time": "1.5167404816e+12", "optimal_length": "14", "subject": "A3Q0XAGQ7TD7MP"}
{"rt": "56800.0", "trial_number": "2", "skipped": "False", "complete": "False", "assignment": "3X87C8JFV7JQ2BSCY8KSFD9F2ILSQK", "start_time": "1.5167404816e+12", "human_length": "61", "nodes_expanded": "999", "instance": "prb33117", "end_time": "1.5167405384e+12", "optimal_length": "14", "subject": "A3Q0XAGQ7TD7MP"}
{"rt": "31046.0", "trial_number": "3", "skipped": "False", "complete": "True", "assignment": "3GLB5JMZFY3TNXFGYMKRQ0JDXNTDGZ", "start_time": "1.51794749742e+12", "human_length": "14", "nodes_expanded": "999", "instance": "prb33117", "end_time": "1.51794752847e+12", "optimal_length": "14", "subject": "A3Q0XAGQ7TD7MP"}
{"rt": "56800.0", "trial_number": "0", "skipped": "False", "complete": "False", "assignment": "3X87C8JFV7JQ2BSCY8KSFD9F2ILSQK", "start_time": "1.5167404816e+12", "human_length": "21", "nodes_expanded": "999", "instance": "prb33117", "end_time": "1.5167405384e+12", "optimal_length": "14", "subject": "A3Q0XAGQ7TD7MP"}
{"rt": "31046.0", "trial_number": "1", "skipped": "False", "complete": "True", "assignment": "3GLB5JMZFY3TNXFGYMKRQ0JDXNTDGZ", "start_time": "1.51794749742e+12", "human_length": "14", "nodes_expanded": "999", "instance": "prb33117", "end_time": "1.51794752847e+12", "optimal_length": "14", "subject": "A3Q0XAGQ7TD7MP"}
{"rt": "33989.0", "trial_number": "0", "skipped": "False", "complete": "True", "assignment": "3M0BCWMB8W4W5M7WZVX3HDH1P53WB1", "start_time": "1.51816077768e+12", "human_length": "17", "nodes_expanded": "999", "instance": "prb33117", "end_time": "1.51816081167e+12", "optimal_length": "14", "subject": "A53S7J4JGWG38"}
{"rt": "52363.0", "trial_number": "0", "skipped": "False", "complete": "False", "assignment": "3U84XHCDIDLGEIRSV37N835DV0K4ZS", "start_time": "1.51794075885e+12", "human_length": "11", "nodes_expanded": "999", "instance": "prb33117", "end_time": "1.51794081122e+12", "optimal_length": "14", "subject": "A8KX1HFH8NE2Q"}
{"rt": "56627.0", "trial_number": "1", "skipped": "False", "complete": "True", "assignment": "3U84XHCDIDLGEIRSV37N835DV0K4ZS", "start_time": "1.51794081477e+12", "human_length": "29", "nodes_expanded": "999", "instance": "prb33117", "end_time": "1.5179408714e+12", "optimal_length": "14", "subject": "A8KX1HFH8NE2Q"}
{"rt": "23277.0", "trial_number": "0", "skipped": "False", "complete": "True", "assignment": "3IXEICO793RY7TM78ZBKJDOA7ADT6Q", "start_time": "1.51816844125e+12", "human_length": "16", "nodes_expanded": "999", "instance": "prb33117", "end_time": "1.51816846452e+12", "optimal_length": "14", "subject": "ALH1K6ZAQQMN7"}
{"rt": "402343.0", "trial_number": "0", "skipped": "False", "complete": "True", "assignment": "3AZHRG4CU5SYU12YRVPCSZALW5003R", "start_time": "1.51630474776e+12", "human_length": "113", "nodes_expanded": "999", "instance": "prb33117", "end_time": "1.5163051501e+12", "optimal_length": "14", "subject": "ARWF605I7RWM7"}
{"rt": "26209.0", "trial_number": "0", "skipped": "False", "complete": "False", "assignment": "33PPO7FECWN7JOLBOAKUBCWTC0AIDL", "start_time": "1.51794966433e+12", "human_length": "6", "nodes_expanded": "999", "instance": "prb33117", "end_time": "1.51794969054e+12", "optimal_length": "14", "subject": "AXKM02NVXNGOM"}
{"rt": "46795.0", "trial_number": "1", "skipped": "False", "complete": "True", "assignment": "33PPO7FECWN7JOLBOAKUBCWTC0AIDL", "start_time": "1.51794969395e+12", "human_length": "20", "nodes_expanded": "999", "instance": "prb33117", "end_time": "1.51794974074e+12", "optimal_length": "14", "subject": "AXKM02NVXNGOM"}
{"rt": "60086.0", "trial_number": "0", "skipped": "False", "complete": "True", "assignment": "3ON104KXQL4CKNMNKGNG9ZBVBAB4WI", "start_time": "1.5163121546e+12", "human_length": "41", "nodes_expanded": "999", "instance": "prb33117", "end_time": "1.51631221468e+12", "optimal_length": "14", "subject": "AYPOAY43REHC8"}
