{"rt": "11160.0", "trial_number": "0", "skipped": "False", "complete": "True", "assignment": "3AZHRG4CU5SYU12YRVPCSZALW5003R", "start_time": "1.51630785352e+12", "human_length": "15", "nodes_expanded": "999", "instance": "prb32795", "end_time": "1.51630786468e+12", "optimal_length": "7", "subject": "ARWF605I7RWM7"}
{"rt": "22618.0", "trial_number": "0", "skipped": "False", "complete": "True", "assignment": "3ZV9H2YQQEFR2R3JK2IXZUJPXAF3WW", "start_time": "1.51630577054e+12", "human_length": "13", "nodes_expanded": "999", "instance": "prb32795", "end_time": "1.51630579316e+12", "optimal_length": "7", "subject": "A289D98Z4GAZ28"}
{"rt": "11370.0", "trial_number": "0", "skipped": "False", "complete": "True", "assignment": "3PMBY0YE28B43VMUKKJ6EDF85RV9C8", "start_time": "1.51638748663e+12", "human_length": "12", "nodes_expanded": "999", "instance": "prb32795", "end_time": "1.516387498e+12", "optimal_length": "7", "subject": "A191V7PT3DQKDP"}
{"rt": "16367.0", "trial_number": "0", "skipped": "False", "complete": "True", "assignment": "3ZSY5X72NYJBGKFJ46SJ0Y9J0RLROB", "start_time": "1.51638776031e+12", "human_length": "12", "nodes_expanded": "999", "instance": "prb32795", "end_time": "1.51638777667e+12", "optimal_length": "7", "subject": "AU4KK3OYS2UZF"}
{"rt": "31389.0", "trial_number": "0", "skipped": "False", "complete": "True", "assignment": "3TYCR1GOTDRCCQYD1V64UK7OE48LZS", "start_time": "1.51638955254e+12", "human_length": "17", "nodes_expanded": "999", "instance": "prb32795", "end_time": "1.51638958393e+12", "optimal_length": "7", "subject": "A2MYB6MLQW0IGN"}
{"rt": "7912.0", "trial_number": "0", "skipped": "False", "complete": "True", "assignment": "34BBWHLWHBJ6SUL255PK30LEGY5IWG", "start_time": "1.51639236115e+12", "human_length": "10", "nodes_expanded": "999", "instance": "prb32795", "end_time": "1.51639236906e+12", "optimal_length": "7", "subject": "A214HWAW1PYWO8"}
{"rt": "0.0", "trial_number": "0", "skipped": "False", "complete": "False", "assignment": "3VE8AYVF8N5BS2NU6U3TMN50JMNF8V", "start_time": "1.51673688667e+12", "human_length": "1", "nodes_expanded": "999", "instance": "prb32795", "end_time": "1.51673688667e+12", "optimal_length": "7", "subject": "A18QU0YQB6Q8DF"}
{"rt": "0.0", "trial_number": "1", "skipped": "False", "complete": "False", "assignment": "3VE8AYVF8N5BS2NU6U3TMN50JMNF8V", "start_time": "1.51673688667e+12", "human_length": "1", "nodes_expanded": "999", "instance": "prb32795", "end_time": "1.51673688667e+12", "optimal_length": "7", "subject": "A18QU0YQB6Q8DF"}
{"rt": "22245.0", "trial_number": "2", "skipped": "False", "complete": "True", "assignment": "3VE8AYVF8N5BS2NU6U3TMN50JMNF8V", "start_time": "1.51673688667e+12", "human_length": "11", "nodes_expanded": "999", "instance": "prb32795", "end_time": "1.51673690892e+12", "optimal_length": "7", "subject": "A18QU0YQB6Q8DF"}
{"rt": "0.0", "trial_number": "0", "skipped": "False", "complete": "False", "assignment": "3X87C8JFV7JQ2BSCY8KSFD9F2ILSQK", "start_time": "1.51674116316e+12", "human_length": "1", "nodes_expanded": "999", "instance": "prb32795", "end_time": "1.51674116316e+12", "optimal_length": "7", "subject": "A3Q0XAGQ7TD7MP"}
{"rt": "0.0", "trial_number": "1", "skipped": "False", "complete": "False", "assignment": "3X87C8JFV7JQ2BSCY8KSFD9F2ILSQK", "start_time": "1.51674116316e+12", "human_length": "1", "nodes_expanded": "999", "instance": "prb32795", "end_time": "1.51674116316e+12", "optimal_length": "7", "subject": "A3Q0XAGQ7TD7MP"}
{"rt": "14643.0", "trial_number": "2", "skipped": "False", "complete": "True", "assignment": "3X87C8JFV7JQ2BSCY8KSFD9F2ILSQK", "start_time": "1.51674116316e+12", "human_length": "9", "nodes_expanded": "999", "instance": "prb32795", "end_time": "1.5167411778e+12", "optimal_length": "7", "subject": "A3Q0XAGQ7TD7MP"}
{"rt": "12309.0", "trial_number": "3", "skipped": "False", "complete": "True", "assignment": "3GLB5JMZFY3TNXFGYMKRQ0JDXNTDGZ", "start_time": "1.51794841424e+12", "human_length": "8", "nodes_expanded": "999", "instance": "prb32795", "end_time": "1.51794842655e+12", "optimal_length": "7", "subject": "A3Q0XAGQ7TD7MP"}
{"rt": "0.0", "trial_number": "0", "skipped": "False", "complete": "False", "assignment": "3WSELTNVR4AZUVYAYCSWZIQW0J4ATB", "start_time": "1.51673907127e+12", "human_length": "1", "nodes_expanded": "999", "instance": "prb32795", "end_time": "1.51673907127e+12", "optimal_length": "7", "subject": "A2TQNX64349OZ9"}
{"rt": "0.0", "trial_number": "1", "skipped": "False", "complete": "False", "assignment": "3WSELTNVR4AZUVYAYCSWZIQW0J4ATB", "start_time": "1.51673907127e+12", "human_length": "1", "nodes_expanded": "999", "instance": "prb32795", "end_time": "1.51673907127e+12", "optimal_length": "7", "subject": "A2TQNX64349OZ9"}
{"rt": "35927.0", "trial_number": "2", "skipped": "False", "complete": "True", "assignment": "3WSELTNVR4AZUVYAYCSWZIQW0J4ATB", "start_time": "1.51673907127e+12", "human_length": "32", "nodes_expanded": "999", "instance": "prb32795", "end_time": "1.5167391072e+12", "optimal_length": "7", "subject": "A2TQNX64349OZ9"}
{"rt": "0.0", "trial_number": "0", "skipped": "False", "complete": "False", "assignment": "3IJXV6UZ1YR1KY4G6BFEG1DXP7SRI1", "start_time": "1.51674910913e+12", "human_length": "1", "nodes_expanded": "999", "instance": "prb32795", "end_time": "1.51674910913e+12", "optimal_length": "7", "subject": "A2RTJ6BDY0DZVZ"}
{"rt": "0.0", "trial_number": "1", "skipped": "False", "complete": "False", "assignment": "3IJXV6UZ1YR1KY4G6BFEG1DXP7SRI1", "start_time": "1.51674910913e+12", "human_length": "1", "nodes_expanded": "999", "instance": "prb32795", "end_time": "1.51674910913e+12", "optimal_length": "7", "subject": "A2RTJ6BDY0DZVZ"}
{"rt": "18446.0", "trial_number": "2", "skipped": "False", "complete": "True", "assignment": "3IJXV6UZ1YR1KY4G6BFEG1DXP7SRI1", "start_time": "1.51674910913e+12", "human_length": "8", "nodes_expanded": "999", "instance": "prb32795", "end_time": "1.51674912758e+12", "optimal_length": "7", "subject": "A2RTJ6BDY0DZVZ"}
{"rt": "19220.0", "trial_number": "0", "skipped": "False", "complete": "True", "assignment": "3V5Q80FXIYZ5QB5C6ITQBN30WY823U", "start_time": "1.51753280229e+12", "human_length": "10", "nodes_expanded": "999", "instance": "prb32795", "end_time": "1.51753282151e+12", "optimal_length": "7", "subject": "A3NMQ3019X6YE0"}
{"rt": "0.0", "trial_number": "0", "skipped": "False", "complete": "False", "assignment": "3IHR8NYAM89M0EPM8U9LH53ZJDTP4U", "start_time": "1.51682670827e+12", "human_length": "1", "nodes_expanded": "999", "instance": "prb32795", "end_time": "1.51682670827e+12", "optimal_length": "7", "subject": "A23437BMZ5T1FH"}
{"rt": "12403.0", "trial_number": "1", "skipped": "False", "complete": "True", "assignment": "3IHR8NYAM89M0EPM8U9LH53ZJDTP4U", "start_time": "1.51682670827e+12", "human_length": "12", "nodes_expanded": "999", "instance": "prb32795", "end_time": "1.51682672067e+12", "optimal_length": "7", "subject": "A23437BMZ5T1FH"}
{"rt": "15801.0", "trial_number": "0", "skipped": "False", "complete": "True", "assignment": "37WLF8U1WQYZ4AWKEQXSIM1ELVEK6W", "start_time": "1.51683205695e+12", "human_length": "12", "nodes_expanded": "999", "instance": "prb32795", "end_time": "1.51683207275e+12", "optimal_length": "7", "subject": "A2EPBSY0VPI38S"}
{"rt": "0.0", "trial_number": "0", "skipped": "False", "complete": "False", "assignment": "3YW4XOSQKRTI0K0Z2YPDTDJVFABU1I", "start_time": "1.51683143811e+12", "human_length": "1", "nodes_expanded": "999", "instance": "prb32795", "end_time": "1.51683143811e+12", "optimal_length": "7", "subject": "A1LR0VQIHQUJAM"}
{"rt": "9568.0", "trial_number": "1", "skipped": "False", "complete": "True", "assignment": "3YW4XOSQKRTI0K0Z2YPDTDJVFABU1I", "start_time": "1.51683143811e+12", "human_length": "10", "nodes_expanded": "999", "instance": "prb32795", "end_time": "1.51683144768e+12", "optimal_length": "7", "subject": "A1LR0VQIHQUJAM"}
{"rt": "22245.0", "trial_number": "0", "skipped": "False", "complete": "True", "assignment": "3VE8AYVF8N5BS2NU6U3TMN50JMNF8V", "start_time": "1.51673688667e+12", "human_length": "11", "nodes_expanded": "999", "instance": "prb32795", "end_time": "1.51673690892e+12", "optimal_length": "7", "subject": "A18QU0YQB6Q8DF"}
{"rt": "14643.0", "trial_number": "0", "skipped": "False", "complete": "True", "assignment": "3X87C8JFV7JQ2BSCY8KSFD9F2ILSQK", "start_time": "1.51674116316e+12", "human_length": "9", "nodes_expanded": "999", "instance": "prb32795", "end_time": "1.5167411778e+12", "optimal_length": "7", "subject": "A3Q0XAGQ7TD7MP"}
{"rt": "12309.0", "trial_number": "1", "skipped": "False", "complete": "True", "assignment": "3GLB5JMZFY3TNXFGYMKRQ0JDXNTDGZ", "start_time": "1.51794841424e+12", "human_length": "8", "nodes_expanded": "999", "instance": "prb32795", "end_time": "1.51794842655e+12", "optimal_length": "7", "subject": "A3Q0XAGQ7TD7MP"}
{"rt": "35927.0", "trial_number": "0", "skipped": "False", "complete": "True", "assignment": "3WSELTNVR4AZUVYAYCSWZIQW0J4ATB", "start_time": "1.51673907127e+12", "human_length": "32", "nodes_expanded": "999", "instance": "prb32795", "end_time": "1.5167391072e+12", "optimal_length": "7", "subject": "A2TQNX64349OZ9"}
{"rt": "18446.0", "trial_number": "0", "skipped": "False", "complete": "True", "assignment": "3IJXV6UZ1YR1KY4G6BFEG1DXP7SRI1", "start_time": "1.51674910913e+12", "human_length": "8", "nodes_expanded": "999", "instance": "prb32795", "end_time": "1.51674912758e+12", "optimal_length": "7", "subject": "A2RTJ6BDY0DZVZ"}
{"rt": "19220.0", "trial_number": "0", "skipped": "False", "complete": "True", "assignment": "3V5Q80FXIYZ5QB5C6ITQBN30WY823U", "start_time": "1.51753280229e+12", "human_length": "10", "nodes_expanded": "999", "instance": "prb32795", "end_time": "1.51753282151e+12", "optimal_length": "7", "subject": "A3NMQ3019X6YE0"}
{"rt": "14063.0", "trial_number": "0", "skipped": "False", "complete": "True", "assignment": "3TS1AR6UQRM7SOIBWPBN8N9589Y7FV", "start_time": "1.51684002478e+12", "human_length": "14", "nodes_expanded": "999", "instance": "prb32795", "end_time": "1.51684003885e+12", "optimal_length": "7", "subject": "A1F4N58CAX8IMK"}
{"rt": "12205.0", "trial_number": "1", "skipped": "False", "complete": "True", "assignment": "35DR22AR5ES6RR89U7EJ1DXW91AX3P", "start_time": "1.51795490919e+12", "human_length": "14", "nodes_expanded": "999", "instance": "prb32795", "end_time": "1.5179549214e+12", "optimal_length": "7", "subject": "A1F4N58CAX8IMK"}
{"rt": "26914.0", "trial_number": "0", "skipped": "False", "complete": "True", "assignment": "3TS1AR6UQRM7SOIBWPBN8N9589Y7FV", "start_time": "1.51684346003e+12", "human_length": "22", "nodes_expanded": "999", "instance": "prb32795", "end_time": "1.51684348694e+12", "optimal_length": "7", "subject": "A15FXHC1CVNW31"}
{"rt": "45490.0", "trial_number": "0", "skipped": "False", "complete": "True", "assignment": "31LM9EDVOM0C0BWUVMJXJINN3QPJNI", "start_time": "1.51752220695e+12", "human_length": "23", "nodes_expanded": "999", "instance": "prb32795", "end_time": "1.51752225244e+12", "optimal_length": "7", "subject": "A1NT8BT94ME6F5"}
{"rt": "13050.0", "trial_number": "0", "skipped": "False", "complete": "True", "assignment": "36H9ULYP6320CJJDXY0KBDEE1Z3JFB", "start_time": "1.51753386502e+12", "human_length": "8", "nodes_expanded": "999", "instance": "prb32795", "end_time": "1.51753387808e+12", "optimal_length": "7", "subject": "AN098C29EGJ6"}
{"rt": "18423.0", "trial_number": "0", "skipped": "False", "complete": "True", "assignment": "3TYCR1GOTDRCCQYD1V64UK7OHTBZLQ", "start_time": "1.51753678891e+12", "human_length": "17", "nodes_expanded": "999", "instance": "prb32795", "end_time": "1.51753680733e+12", "optimal_length": "7", "subject": "A13BZCNJ0WR1T7"}
{"rt": "0.0", "trial_number": "0", "skipped": "False", "complete": "False", "assignment": "3H0W84IWBLAP4T2UASPNVMF5ZH7ER9", "start_time": "1.51755398813e+12", "human_length": "1", "nodes_expanded": "999", "instance": "prb32795", "end_time": "1.51755398813e+12", "optimal_length": "7", "subject": "A1AKX1C8GCVCTP"}
{"rt": "10498.0", "trial_number": "1", "skipped": "False", "complete": "False", "assignment": "3H0W84IWBLAP4T2UASPNVMF5ZH7ER9", "start_time": "1.51755398815e+12", "human_length": "3", "nodes_expanded": "999", "instance": "prb32795", "end_time": "1.51755399865e+12", "optimal_length": "7", "subject": "A1AKX1C8GCVCTP"}
{"rt": "7806.0", "trial_number": "2", "skipped": "False", "complete": "True", "assignment": "3H0W84IWBLAP4T2UASPNVMF5ZH7ER9", "start_time": "1.51755400145e+12", "human_length": "9", "nodes_expanded": "999", "instance": "prb32795", "end_time": "1.51755400926e+12", "optimal_length": "7", "subject": "A1AKX1C8GCVCTP"}
{"rt": "11773.0", "trial_number": "0", "skipped": "False", "complete": "True", "assignment": "30IQTZXKALEAAZ9CBKW0ZFZP6O5X07", "start_time": "1.51793960947e+12", "human_length": "7", "nodes_expanded": "999", "instance": "prb32795", "end_time": "1.51793962125e+12", "optimal_length": "7", "subject": "A10YS8AVLQWUZZ"}
{"rt": "9589.0", "trial_number": "0", "skipped": "False", "complete": "True", "assignment": "3TPWUS5F8A9FFRZ2DVTYSXNJ6BWWC6", "start_time": "1.51794036882e+12", "human_length": "9", "nodes_expanded": "999", "instance": "prb32795", "end_time": "1.51794037841e+12", "optimal_length": "7", "subject": "A3GXC3VG37CQ3G"}
{"rt": "13520.0", "trial_number": "0", "skipped": "False", "complete": "True", "assignment": "34HJIJKLP64Z5YMIU6IKNXSH7PDV4I", "start_time": "1.51794144896e+12", "human_length": "9", "nodes_expanded": "999", "instance": "prb32795", "end_time": "1.51794146248e+12", "optimal_length": "7", "subject": "A3CTXNQ2GXIQSP"}
{"rt": "49228.0", "trial_number": "0", "skipped": "False", "complete": "True", "assignment": "3TXD01ZLD5PZSJXIPG8FRBQYTI9U4X", "start_time": "1.51794271746e+12", "human_length": "17", "nodes_expanded": "999", "instance": "prb32795", "end_time": "1.51794276669e+12", "optimal_length": "7", "subject": "A3BPRPN10HJD4B"}
{"rt": "17765.0", "trial_number": "0", "skipped": "False", "complete": "True", "assignment": "30IQTZXKALEAAZ9CBKW0ZFZP6O5X07", "start_time": "1.51794494998e+12", "human_length": "12", "nodes_expanded": "999", "instance": "prb32795", "end_time": "1.51794496774e+12", "optimal_length": "7", "subject": "A23XJ8I86R0O3B"}
{"rt": "13400.0", "trial_number": "0", "skipped": "False", "complete": "True", "assignment": "3STRJBFXOXZ5687WA35LTWTS7QZKTT", "start_time": "1.51794608379e+12", "human_length": "9", "nodes_expanded": "999", "instance": "prb32795", "end_time": "1.51794609719e+12", "optimal_length": "7", "subject": "A3OB6REG5CGHK1"}
{"rt": "35404.0", "trial_number": "0", "skipped": "False", "complete": "True", "assignment": "33PPO7FECWN7JOLBOAKUBCWTC0AIDL", "start_time": "1.51795152744e+12", "human_length": "10", "nodes_expanded": "999", "instance": "prb32795", "end_time": "1.51795156284e+12", "optimal_length": "7", "subject": "AXKM02NVXNGOM"}
{"rt": "14245.0", "trial_number": "0", "skipped": "False", "complete": "True", "assignment": "3PB5A5BD0WED6OE679H5Q89HBDGG71", "start_time": "1.51795278632e+12", "human_length": "10", "nodes_expanded": "999", "instance": "prb32795", "end_time": "1.51795280057e+12", "optimal_length": "7", "subject": "A1USR9JCAMDGM3"}
{"rt": "21471.0", "trial_number": "0", "skipped": "False", "complete": "True", "assignment": "33F859I567LE8WC74WB3GA7E94XBHW", "start_time": "1.51796850763e+12", "human_length": "18", "nodes_expanded": "999", "instance": "prb32795", "end_time": "1.5179685291e+12", "optimal_length": "7", "subject": "A1GQS6USF2JEYG"}
{"rt": "14043.0", "trial_number": "0", "skipped": "False", "complete": "True", "assignment": "3IJXV6UZ1YR1KY4G6BFEG1DXR47RIC", "start_time": "1.51797312958e+12", "human_length": "10", "nodes_expanded": "999", "instance": "prb32795", "end_time": "1.51797314363e+12", "optimal_length": "7", "subject": "A18T3WK7J16C1B"}
{"rt": "7900.0", "trial_number": "0", "skipped": "False", "complete": "True", "assignment": "3FTF2T8WLSQDHTSZ1BJ7Q7MB14SW9H", "start_time": "1.51813670163e+12", "human_length": "8", "nodes_expanded": "999", "instance": "prb32795", "end_time": "1.51813670953e+12", "optimal_length": "7", "subject": "A1IUH9D7N69VS"}
{"rt": "14967.0", "trial_number": "0", "skipped": "False", "complete": "True", "assignment": "3XC1O3LBOTUGQEPEV3HM8W67X4RTLL", "start_time": "1.51813879545e+12", "human_length": "9", "nodes_expanded": "999", "instance": "prb32795", "end_time": "1.51813881042e+12", "optimal_length": "7", "subject": "A1ZTSCPETU3UJW"}
{"rt": "14521.0", "trial_number": "0", "skipped": "False", "complete": "True", "assignment": "3TAYZSBPLMG9ASQRWXURJVBCPLN2SH", "start_time": "1.51813627921e+12", "human_length": "11", "nodes_expanded": "999", "instance": "prb32795", "end_time": "1.51813629373e+12", "optimal_length": "7", "subject": "A2RCYLKY072XXO"}
{"rt": "19669.0", "trial_number": "0", "skipped": "False", "complete": "True", "assignment": "3ZSANO2JCGFTBM23KS9Y3E51YP4FSQ", "start_time": "1.51814400432e+12", "human_length": "19", "nodes_expanded": "999", "instance": "prb32795", "end_time": "1.51814402399e+12", "optimal_length": "7", "subject": "A1F42D4L22K5ND"}
{"rt": "25111.0", "trial_number": "0", "skipped": "False", "complete": "True", "assignment": "3TMFV4NEP9MD3O9PWJDTQBR0HZYW8I", "start_time": "1.51814443081e+12", "human_length": "8", "nodes_expanded": "999", "instance": "prb32795", "end_time": "1.51814445592e+12", "optimal_length": "7", "subject": "A3GOOI75XOF24V"}
{"rt": "6531.0", "trial_number": "0", "skipped": "False", "complete": "True", "assignment": "3XLBSAQ9Z5KDX59BX15UBFPNNHYZ7Q", "start_time": "1.51814667599e+12", "human_length": "7", "nodes_expanded": "999", "instance": "prb32795", "end_time": "1.51814668252e+12", "optimal_length": "7", "subject": "A1HFNOKU591WCY"}
{"rt": "9672.0", "trial_number": "0", "skipped": "False", "complete": "True", "assignment": "3FUI0JHJPY6UBT1VAI7VUX8S3KH33W", "start_time": "1.5181520845e+12", "human_length": "10", "nodes_expanded": "999", "instance": "prb32795", "end_time": "1.51815209418e+12", "optimal_length": "7", "subject": "A2QIZ31TMHU0GD"}
{"rt": "23418.0", "trial_number": "0", "skipped": "False", "complete": "True", "assignment": "37QW5D2ZRHUKW7SGCE3STMOFBMK8SX", "start_time": "1.51815871346e+12", "human_length": "16", "nodes_expanded": "999", "instance": "prb32795", "end_time": "1.51815873688e+12", "optimal_length": "7", "subject": "AMW2XLD9443OH"}
{"rt": "21055.0", "trial_number": "0", "skipped": "False", "complete": "True", "assignment": "3SITXWYCNWHBUMCM90TPJWV8Y7AXBW", "start_time": "1.51816661935e+12", "human_length": "16", "nodes_expanded": "999", "instance": "prb32795", "end_time": "1.5181666404e+12", "optimal_length": "7", "subject": "A28RX7L0QZ993M"}
{"rt": "13450.0", "trial_number": "0", "skipped": "False", "complete": "True", "assignment": "3IXEICO793RY7TM78ZBKJDOA7ADT6Q", "start_time": "1.51816867807e+12", "human_length": "9", "nodes_expanded": "999", "instance": "prb32795", "end_time": "1.51816869152e+12", "optimal_length": "7", "subject": "ALH1K6ZAQQMN7"}
