{"rt": "8674.0", "trial_number": "0", "skipped": "False", "complete": "True", "assignment": "3TYCR1GOTDRCCQYD1V64UK7OHTBZLQ", "start_time": "1.51753626181e+12", "human_length": "9", "nodes_expanded": "999", "instance": "prb32695", "end_time": "1.51753627049e+12", "optimal_length": "7", "subject": "A13BZCNJ0WR1T7"}
{"rt": "10595.0", "trial_number": "0", "skipped": "False", "complete": "True", "assignment": "3TS1AR6UQRM7SOIBWPBN8N9589Y7FV", "start_time": "1.51684265014e+12", "human_length": "14", "nodes_expanded": "999", "instance": "prb32695", "end_time": "1.51684266073e+12", "optimal_length": "7", "subject": "A15FXHC1CVNW31"}
{"rt": "0.0", "trial_number": "0", "skipped": "False", "complete": "False", "assignment": "3VE8AYVF8N5BS2NU6U3TMN50JMNF8V", "start_time": "1.51673729838e+12", "human_length": "1", "nodes_expanded": "999", "instance": "prb32695", "end_time": "1.51673729838e+12", "optimal_length": "7", "subject": "A18QU0YQB6Q8DF"}
{"rt": "0.0", "trial_number": "1", "skipped": "False", "complete": "False", "assignment": "3VE8AYVF8N5BS2NU6U3TMN50JMNF8V", "start_time": "1.51673729838e+12", "human_length": "1", "nodes_expanded": "999", "instance": "prb32695", "end_time": "1.51673729838e+12", "optimal_length": "7", "subject": "A18QU0YQB6Q8DF"}
{"rt": "16523.0", "trial_number": "2", "skipped": "False", "complete": "True", "assignment": "3VE8AYVF8N5BS2NU6U3TMN50JMNF8V", "start_time": "1.51673729838e+12", "human_length": "10", "nodes_expanded": "999", "instance": "prb32695", "end_time": "1.5167373149e+12", "optimal_length": "7", "subject": "A18QU0YQB6Q8DF"}
{"rt": "16523.0", "trial_number": "0", "skipped": "False", "complete": "True", "assignment": "3VE8AYVF8N5BS2NU6U3TMN50JMNF8V", "start_time": "1.51673729838e+12", "human_length": "10", "nodes_expanded": "999", "instance": "prb32695", "end_time": "1.5167373149e+12", "optimal_length": "7", "subject": "A18QU0YQB6Q8DF"}
{"rt": "9308.0", "trial_number": "0", "skipped": "False", "complete": "True", "assignment": "3IJXV6UZ1YR1KY4G6BFEG1DXR47RIC", "start_time": "1.51797189951e+12", "human_length": "10", "nodes_expanded": "999", "instance": "prb32695", "end_time": "1.51797190882e+12", "optimal_length": "7", "subject": "A18T3WK7J16C1B"}
{"rt": "7249.0", "trial_number": "0", "skipped": "False", "complete": "True", "assignment": "3PMBY0YE28B43VMUKKJ6EDF85RV9C8", "start_time": "1.51638693182e+12", "human_length": "10", "nodes_expanded": "999", "instance": "prb32695", "end_time": "1.51638693906e+12", "optimal_length": "7", "subject": "A191V7PT3DQKDP"}
{"rt": "10582.0", "trial_number": "0", "skipped": "False", "complete": "True", "assignment": "3H0W84IWBLAP4T2UASPNVMF5ZH7ER9", "start_time": "1.51755383146e+12", "human_length": "8", "nodes_expanded": "999", "instance": "prb32695", "end_time": "1.51755384205e+12", "optimal_length": "7", "subject": "A1AKX1C8GCVCTP"}
{"rt": "11677.0", "trial_number": "0", "skipped": "False", "complete": "True", "assignment": "3ZSANO2JCGFTBM23KS9Y3E51YP4FSQ", "start_time": "1.5181422908e+12", "human_length": "7", "nodes_expanded": "999", "instance": "prb32695", "end_time": "1.51814230247e+12", "optimal_length": "7", "subject": "A1F42D4L22K5ND"}
{"rt": "12127.0", "trial_number": "0", "skipped": "False", "complete": "True", "assignment": "3TS1AR6UQRM7SOIBWPBN8N9589Y7FV", "start_time": "1.51683846079e+12", "human_length": "8", "nodes_expanded": "999", "instance": "prb32695", "end_time": "1.51683847292e+12", "optimal_length": "7", "subject": "A1F4N58CAX8IMK"}
{"rt": "10078.0", "trial_number": "1", "skipped": "False", "complete": "True", "assignment": "35DR22AR5ES6RR89U7EJ1DXW91AX3P", "start_time": "1.5179524464e+12", "human_length": "8", "nodes_expanded": "999", "instance": "prb32695", "end_time": "1.51795245648e+12", "optimal_length": "7", "subject": "A1F4N58CAX8IMK"}
{"rt": "10456.0", "trial_number": "0", "skipped": "False", "complete": "True", "assignment": "33F859I567LE8WC74WB3GA7E94XBHW", "start_time": "1.51796903797e+12", "human_length": "11", "nodes_expanded": "999", "instance": "prb32695", "end_time": "1.51796904843e+12", "optimal_length": "7", "subject": "A1GQS6USF2JEYG"}
{"rt": "18207.0", "trial_number": "0", "skipped": "False", "complete": "True", "assignment": "3XLBSAQ9Z5KDX59BX15UBFPNNHYZ7Q", "start_time": "1.51814589192e+12", "human_length": "11", "nodes_expanded": "999", "instance": "prb32695", "end_time": "1.51814591013e+12", "optimal_length": "7", "subject": "A1HFNOKU591WCY"}
{"rt": "6944.0", "trial_number": "0", "skipped": "False", "complete": "True", "assignment": "3FTF2T8WLSQDHTSZ1BJ7Q7MB14SW9H", "start_time": "1.51813628826e+12", "human_length": "7", "nodes_expanded": "999", "instance": "prb32695", "end_time": "1.51813629521e+12", "optimal_length": "7", "subject": "A1IUH9D7N69VS"}
{"rt": "16845.0", "trial_number": "0", "skipped": "False", "complete": "True", "assignment": "3YW4XOSQKRTI0K0Z2YPDTDJVFABU1I", "start_time": "1.51683345123e+12", "human_length": "11", "nodes_expanded": "999", "instance": "prb32695", "end_time": "1.51683346808e+12", "optimal_length": "7", "subject": "A1LR0VQIHQUJAM"}
{"rt": "5813.0", "trial_number": "0", "skipped": "False", "complete": "True", "assignment": "3R5F3LQFV3SKIB1AENMWM1BICT5OZB", "start_time": "1.51795766968e+12", "human_length": "7", "nodes_expanded": "999", "instance": "prb32695", "end_time": "1.51795767549e+12", "optimal_length": "7", "subject": "A1N1EF0MIRSEZZ"}
{"rt": "22215.0", "trial_number": "0", "skipped": "False", "complete": "True", "assignment": "31LM9EDVOM0C0BWUVMJXJINN3QPJNI", "start_time": "1.51752350617e+12", "human_length": "14", "nodes_expanded": "999", "instance": "prb32695", "end_time": "1.51752352839e+12", "optimal_length": "7", "subject": "A1NT8BT94ME6F5"}
{"rt": "14758.0", "trial_number": "0", "skipped": "False", "complete": "True", "assignment": "3PB5A5BD0WED6OE679H5Q89HBDGG71", "start_time": "1.51795052874e+12", "human_length": "11", "nodes_expanded": "999", "instance": "prb32695", "end_time": "1.5179505435e+12", "optimal_length": "7", "subject": "A1USR9JCAMDGM3"}
{"rt": "14580.0", "trial_number": "0", "skipped": "False", "complete": "True", "assignment": "3XC1O3LBOTUGQEPEV3HM8W67X4RTLL", "start_time": "1.51813650021e+12", "human_length": "9", "nodes_expanded": "999", "instance": "prb32695", "end_time": "1.51813651479e+12", "optimal_length": "7", "subject": "A1ZTSCPETU3UJW"}
{"rt": "8341.0", "trial_number": "0", "skipped": "False", "complete": "True", "assignment": "34BBWHLWHBJ6SUL255PK30LEGY5IWG", "start_time": "1.51639142963e+12", "human_length": "8", "nodes_expanded": "999", "instance": "prb32695", "end_time": "1.51639143798e+12", "optimal_length": "7", "subject": "A214HWAW1PYWO8"}
{"rt": "0.0", "trial_number": "0", "skipped": "False", "complete": "False", "assignment": "3X87C8JFV7JQ2BSCY8KSFD9F2ILSQK", "start_time": "1.51674579371e+12", "human_length": "1", "nodes_expanded": "999", "instance": "prb32695", "end_time": "1.51674579371e+12", "optimal_length": "7", "subject": "A21S7MA9DCW95E"}
{"rt": "0.0", "trial_number": "1", "skipped": "False", "complete": "False", "assignment": "3X87C8JFV7JQ2BSCY8KSFD9F2ILSQK", "start_time": "1.51674579371e+12", "human_length": "1", "nodes_expanded": "999", "instance": "prb32695", "end_time": "1.51674579371e+12", "optimal_length": "7", "subject": "A21S7MA9DCW95E"}
{"rt": "14912.0", "trial_number": "2", "skipped": "False", "complete": "True", "assignment": "3X87C8JFV7JQ2BSCY8KSFD9F2ILSQK", "start_time": "1.51674579371e+12", "human_length": "11", "nodes_expanded": "999", "instance": "prb32695", "end_time": "1.51674580862e+12", "optimal_length": "7", "subject": "A21S7MA9DCW95E"}
{"rt": "14912.0", "trial_number": "0", "skipped": "False", "complete": "True", "assignment": "3X87C8JFV7JQ2BSCY8KSFD9F2ILSQK", "start_time": "1.51674579371e+12", "human_length": "11", "nodes_expanded": "999", "instance": "prb32695", "end_time": "1.51674580862e+12", "optimal_length": "7", "subject": "A21S7MA9DCW95E"}
{"rt": "0.0", "trial_number": "0", "skipped": "False", "complete": "False", "assignment": "3IHR8NYAM89M0EPM8U9LH53ZJDTP4U", "start_time": "1.51682653159e+12", "human_length": "1", "nodes_expanded": "999", "instance": "prb32695", "end_time": "1.51682653159e+12", "optimal_length": "7", "subject": "A23437BMZ5T1FH"}
{"rt": "10979.0", "trial_number": "1", "skipped": "False", "complete": "True", "assignment": "3IHR8NYAM89M0EPM8U9LH53ZJDTP4U", "start_time": "1.51682653159e+12", "human_length": "11", "nodes_expanded": "999", "instance": "prb32695", "end_time": "1.51682654257e+12", "optimal_length": "7", "subject": "A23437BMZ5T1FH"}
{"rt": "26973.0", "trial_number": "0", "skipped": "False", "complete": "True", "assignment": "3ZV9H2YQQEFR2R3JK2IXZUJPXAF3WW", "start_time": "1.51630674613e+12", "human_length": "13", "nodes_expanded": "999", "instance": "prb32695", "end_time": "1.5163067731e+12", "optimal_length": "7", "subject": "A289D98Z4GAZ28"}
{"rt": "14483.0", "trial_number": "0", "skipped": "False", "complete": "True", "assignment": "37WLF8U1WQYZ4AWKEQXSIM1ELVEK6W", "start_time": "1.51683261591e+12", "human_length": "8", "nodes_expanded": "999", "instance": "prb32695", "end_time": "1.51683263039e+12", "optimal_length": "7", "subject": "A2EPBSY0VPI38S"}
{"rt": "0.0", "trial_number": "0", "skipped": "False", "complete": "False", "assignment": "3X4MXAO0BHWJLTOLVSJTHSM54OHWRG", "start_time": "1.51682275933e+12", "human_length": "1", "nodes_expanded": "999", "instance": "prb32695", "end_time": "1.51682275933e+12", "optimal_length": "7", "subject": "A2IBQA01NR5N76"}
{"rt": "30738.0", "trial_number": "1", "skipped": "False", "complete": "True", "assignment": "3X4MXAO0BHWJLTOLVSJTHSM54OHWRG", "start_time": "1.51682275933e+12", "human_length": "22", "nodes_expanded": "999", "instance": "prb32695", "end_time": "1.51682279006e+12", "optimal_length": "7", "subject": "A2IBQA01NR5N76"}
{"rt": "30738.0", "trial_number": "0", "skipped": "False", "complete": "True", "assignment": "3X4MXAO0BHWJLTOLVSJTHSM54OHWRG", "start_time": "1.51682275933e+12", "human_length": "22", "nodes_expanded": "999", "instance": "prb32695", "end_time": "1.51682279006e+12", "optimal_length": "7", "subject": "A2IBQA01NR5N76"}
{"rt": "9974.0", "trial_number": "0", "skipped": "False", "complete": "True", "assignment": "3HYA4D452SR06NL5QDUSCWSXZI12FF", "start_time": "1.51795068806e+12", "human_length": "8", "nodes_expanded": "999", "instance": "prb32695", "end_time": "1.51795069803e+12", "optimal_length": "7", "subject": "A2OFWHV8IP7HK"}
{"rt": "13508.0", "trial_number": "0", "skipped": "False", "complete": "True", "assignment": "3FUI0JHJPY6UBT1VAI7VUX8S3KH33W", "start_time": "1.51815174918e+12", "human_length": "13", "nodes_expanded": "999", "instance": "prb32695", "end_time": "1.51815176268e+12", "optimal_length": "7", "subject": "A2QIZ31TMHU0GD"}
{"rt": "8974.0", "trial_number": "0", "skipped": "False", "complete": "True", "assignment": "3TAYZSBPLMG9ASQRWXURJVBCPLN2SH", "start_time": "1.51813727808e+12", "human_length": "8", "nodes_expanded": "999", "instance": "prb32695", "end_time": "1.51813728706e+12", "optimal_length": "7", "subject": "A2RCYLKY072XXO"}
{"rt": "0.0", "trial_number": "0", "skipped": "False", "complete": "False", "assignment": "3IJXV6UZ1YR1KY4G6BFEG1DXP7SRI1", "start_time": "1.51675006862e+12", "human_length": "1", "nodes_expanded": "999", "instance": "prb32695", "end_time": "1.51675006862e+12", "optimal_length": "7", "subject": "A2RTJ6BDY0DZVZ"}
{"rt": "0.0", "trial_number": "1", "skipped": "False", "complete": "False", "assignment": "3IJXV6UZ1YR1KY4G6BFEG1DXP7SRI1", "start_time": "1.51675006862e+12", "human_length": "1", "nodes_expanded": "999", "instance": "prb32695", "end_time": "1.51675006862e+12", "optimal_length": "7", "subject": "A2RTJ6BDY0DZVZ"}
{"rt": "14182.0", "trial_number": "2", "skipped": "False", "complete": "True", "assignment": "3IJXV6UZ1YR1KY4G6BFEG1DXP7SRI1", "start_time": "1.51675006862e+12", "human_length": "8", "nodes_expanded": "999", "instance": "prb32695", "end_time": "1.5167500828e+12", "optimal_length": "7", "subject": "A2RTJ6BDY0DZVZ"}
{"rt": "14182.0", "trial_number": "0", "skipped": "False", "complete": "True", "assignment": "3IJXV6UZ1YR1KY4G6BFEG1DXP7SRI1", "start_time": "1.51675006862e+12", "human_length": "8", "nodes_expanded": "999", "instance": "prb32695", "end_time": "1.5167500828e+12", "optimal_length": "7", "subject": "A2RTJ6BDY0DZVZ"}
{"rt": "0.0", "trial_number": "0", "skipped": "False", "complete": "False", "assignment": "3WSELTNVR4AZUVYAYCSWZIQW0J4ATB", "start_time": "1.51673979965e+12", "human_length": "1", "nodes_expanded": "999", "instance": "prb32695", "end_time": "1.51673979965e+12", "optimal_length": "7", "subject": "A2TQNX64349OZ9"}
{"rt": "0.0", "trial_number": "1", "skipped": "False", "complete": "False", "assignment": "3WSELTNVR4AZUVYAYCSWZIQW0J4ATB", "start_time": "1.51673979965e+12", "human_length": "1", "nodes_expanded": "999", "instance": "prb32695", "end_time": "1.51673979965e+12", "optimal_length": "7", "subject": "A2TQNX64349OZ9"}
{"rt": "26945.0", "trial_number": "2", "skipped": "False", "complete": "True", "assignment": "3WSELTNVR4AZUVYAYCSWZIQW0J4ATB", "start_time": "1.51673979965e+12", "human_length": "26", "nodes_expanded": "999", "instance": "prb32695", "end_time": "1.5167398266e+12", "optimal_length": "7", "subject": "A2TQNX64349OZ9"}
{"rt": "26945.0", "trial_number": "0", "skipped": "False", "complete": "True", "assignment": "3WSELTNVR4AZUVYAYCSWZIQW0J4ATB", "start_time": "1.51673979965e+12", "human_length": "26", "nodes_expanded": "999", "instance": "prb32695", "end_time": "1.5167398266e+12", "optimal_length": "7", "subject": "A2TQNX64349OZ9"}
{"rt": "20534.0", "trial_number": "0", "skipped": "False", "complete": "True", "assignment": "37TD41K0AIHM8AITTQJXV8KY05QCSB", "start_time": "1.51752597053e+12", "human_length": "10", "nodes_expanded": "999", "instance": "prb32695", "end_time": "1.51752599107e+12", "optimal_length": "7", "subject": "A30KYQGABO7JER"}
{"rt": "10502.0", "trial_number": "0", "skipped": "False", "complete": "True", "assignment": "34HJIJKLP64Z5YMIU6IKNXSH7PDV4I", "start_time": "1.5179405215e+12", "human_length": "7", "nodes_expanded": "999", "instance": "prb32695", "end_time": "1.517940532e+12", "optimal_length": "7", "subject": "A3CTXNQ2GXIQSP"}
{"rt": "17699.0", "trial_number": "0", "skipped": "False", "complete": "True", "assignment": "3TPWUS5F8A9FFRZ2DVTYSXNJ6BWWC6", "start_time": "1.51794059001e+12", "human_length": "11", "nodes_expanded": "999", "instance": "prb32695", "end_time": "1.51794060771e+12", "optimal_length": "7", "subject": "A3GXC3VG37CQ3G"}
{"rt": "0.0", "trial_number": "0", "skipped": "False", "complete": "False", "assignment": "3I2PTA7R3U2SESF4TZBQORI5LSJQKK", "start_time": "1.51676082142e+12", "human_length": "1", "nodes_expanded": "999", "instance": "prb32695", "end_time": "1.51676082142e+12", "optimal_length": "7", "subject": "A3NMQ3019X6YE0"}
{"rt": "0.0", "trial_number": "1", "skipped": "False", "complete": "False", "assignment": "3I2PTA7R3U2SESF4TZBQORI5LSJQKK", "start_time": "1.51676082142e+12", "human_length": "1", "nodes_expanded": "999", "instance": "prb32695", "end_time": "1.51676082142e+12", "optimal_length": "7", "subject": "A3NMQ3019X6YE0"}
{"rt": "19397.0", "trial_number": "2", "skipped": "False", "complete": "True", "assignment": "3I2PTA7R3U2SESF4TZBQORI5LSJQKK", "start_time": "1.51676082142e+12", "human_length": "11", "nodes_expanded": "999", "instance": "prb32695", "end_time": "1.51676084082e+12", "optimal_length": "7", "subject": "A3NMQ3019X6YE0"}
{"rt": "19397.0", "trial_number": "0", "skipped": "False", "complete": "True", "assignment": "3I2PTA7R3U2SESF4TZBQORI5LSJQKK", "start_time": "1.51676082142e+12", "human_length": "11", "nodes_expanded": "999", "instance": "prb32695", "end_time": "1.51676084082e+12", "optimal_length": "7", "subject": "A3NMQ3019X6YE0"}
{"rt": "0.0", "trial_number": "0", "skipped": "False", "complete": "False", "assignment": "3X87C8JFV7JQ2BSCY8KSFD9F2ILSQK", "start_time": "1.51673970601e+12", "human_length": "1", "nodes_expanded": "999", "instance": "prb32695", "end_time": "1.51673970601e+12", "optimal_length": "7", "subject": "A3Q0XAGQ7TD7MP"}
{"rt": "0.0", "trial_number": "1", "skipped": "False", "complete": "False", "assignment": "3X87C8JFV7JQ2BSCY8KSFD9F2ILSQK", "start_time": "1.51673970601e+12", "human_length": "1", "nodes_expanded": "999", "instance": "prb32695", "end_time": "1.51673970601e+12", "optimal_length": "7", "subject": "A3Q0XAGQ7TD7MP"}
{"rt": "22489.0", "trial_number": "2", "skipped": "False", "complete": "True", "assignment": "3X87C8JFV7JQ2BSCY8KSFD9F2ILSQK", "start_time": "1.51673970601e+12", "human_length": "10", "nodes_expanded": "999", "instance": "prb32695", "end_time": "1.5167397285e+12", "optimal_length": "7", "subject": "A3Q0XAGQ7TD7MP"}
{"rt": "20672.0", "trial_number": "3", "skipped": "False", "complete": "True", "assignment": "3GLB5JMZFY3TNXFGYMKRQ0JDXNTDGZ", "start_time": "1.51794537288e+12", "human_length": "11", "nodes_expanded": "999", "instance": "prb32695", "end_time": "1.51794539355e+12", "optimal_length": "7", "subject": "A3Q0XAGQ7TD7MP"}
{"rt": "22489.0", "trial_number": "0", "skipped": "False", "complete": "True", "assignment": "3X87C8JFV7JQ2BSCY8KSFD9F2ILSQK", "start_time": "1.51673970601e+12", "human_length": "10", "nodes_expanded": "999", "instance": "prb32695", "end_time": "1.5167397285e+12", "optimal_length": "7", "subject": "A3Q0XAGQ7TD7MP"}
{"rt": "20672.0", "trial_number": "1", "skipped": "False", "complete": "True", "assignment": "3GLB5JMZFY3TNXFGYMKRQ0JDXNTDGZ", "start_time": "1.51794537288e+12", "human_length": "11", "nodes_expanded": "999", "instance": "prb32695", "end_time": "1.51794539355e+12", "optimal_length": "7", "subject": "A3Q0XAGQ7TD7MP"}
{"rt": "26569.0", "trial_number": "0", "skipped": "False", "complete": "True", "assignment": "3VBEN272ML7ZPMYYVCFGLZ5DV7CGS0", "start_time": "1.51638778108e+12", "human_length": "11", "nodes_expanded": "999", "instance": "prb32695", "end_time": "1.51638780765e+12", "optimal_length": "7", "subject": "A3VZJ2T28HAQ2A"}
{"rt": "26638.0", "trial_number": "0", "skipped": "False", "complete": "True", "assignment": "3M0BCWMB8W4W5M7WZVX3HDH1P53WB1", "start_time": "1.51815846732e+12", "human_length": "15", "nodes_expanded": "999", "instance": "prb32695", "end_time": "1.51815849396e+12", "optimal_length": "7", "subject": "A53S7J4JGWG38"}
{"rt": "28087.0", "trial_number": "0", "skipped": "False", "complete": "True", "assignment": "3U84XHCDIDLGEIRSV37N835DV0K4ZS", "start_time": "1.51794059279e+12", "human_length": "17", "nodes_expanded": "999", "instance": "prb32695", "end_time": "1.51794062087e+12", "optimal_length": "7", "subject": "A8KX1HFH8NE2Q"}
{"rt": "15402.0", "trial_number": "0", "skipped": "False", "complete": "True", "assignment": "33PPO7FECWN7JOLBOAKUBCWTC0AIDL", "start_time": "1.51794085366e+12", "human_length": "7", "nodes_expanded": "999", "instance": "prb32695", "end_time": "1.51794086906e+12", "optimal_length": "7", "subject": "AB5IVPS4OP9M8"}
{"rt": "0.0", "trial_number": "0", "skipped": "False", "complete": "False", "assignment": "3IJXV6UZ1YR1KY4G6BFEG1DXP7SRI1", "start_time": "1.51673954747e+12", "human_length": "1", "nodes_expanded": "999", "instance": "prb32695", "end_time": "1.51673954747e+12", "optimal_length": "7", "subject": "AEXF5EUX32U0M"}
{"rt": "0.0", "trial_number": "1", "skipped": "False", "complete": "False", "assignment": "3IJXV6UZ1YR1KY4G6BFEG1DXP7SRI1", "start_time": "1.51673954747e+12", "human_length": "1", "nodes_expanded": "999", "instance": "prb32695", "end_time": "1.51673954747e+12", "optimal_length": "7", "subject": "AEXF5EUX32U0M"}
{"rt": "17438.0", "trial_number": "2", "skipped": "False", "complete": "True", "assignment": "3IJXV6UZ1YR1KY4G6BFEG1DXP7SRI1", "start_time": "1.51673954747e+12", "human_length": "13", "nodes_expanded": "999", "instance": "prb32695", "end_time": "1.51673956491e+12", "optimal_length": "7", "subject": "AEXF5EUX32U0M"}
{"rt": "17438.0", "trial_number": "0", "skipped": "False", "complete": "True", "assignment": "3IJXV6UZ1YR1KY4G6BFEG1DXP7SRI1", "start_time": "1.51673954747e+12", "human_length": "13", "nodes_expanded": "999", "instance": "prb32695", "end_time": "1.51673956491e+12", "optimal_length": "7", "subject": "AEXF5EUX32U0M"}
{"rt": "10204.0", "trial_number": "0", "skipped": "False", "complete": "True", "assignment": "3IXEICO793RY7TM78ZBKJDOA7ADT6Q", "start_time": "1.51816722891e+12", "human_length": "7", "nodes_expanded": "999", "instance": "prb32695", "end_time": "1.51816723912e+12", "optimal_length": "7", "subject": "ALH1K6ZAQQMN7"}
{"rt": "13122.0", "trial_number": "0", "skipped": "False", "complete": "True", "assignment": "37QW5D2ZRHUKW7SGCE3STMOFBMK8SX", "start_time": "1.51815989622e+12", "human_length": "10", "nodes_expanded": "999", "instance": "prb32695", "end_time": "1.51815990934e+12", "optimal_length": "7", "subject": "AMW2XLD9443OH"}
{"rt": "33261.0", "trial_number": "0", "skipped": "False", "complete": "True", "assignment": "36H9ULYP6320CJJDXY0KBDEE1Z3JFB", "start_time": "1.51753161614e+12", "human_length": "12", "nodes_expanded": "999", "instance": "prb32695", "end_time": "1.5175316494e+12", "optimal_length": "7", "subject": "AN098C29EGJ6"}
{"rt": "10660.0", "trial_number": "0", "skipped": "False", "complete": "True", "assignment": "33PPO7FECWN7JOLBOAKUBCWTC0AIDL", "start_time": "1.51794837487e+12", "human_length": "7", "nodes_expanded": "999", "instance": "prb32695", "end_time": "1.51794838553e+12", "optimal_length": "7", "subject": "AXKM02NVXNGOM"}
{"rt": "10300.0", "trial_number": "0", "skipped": "False", "complete": "True", "assignment": "3ON104KXQL4CKNMNKGNG9ZBVBAB4WI", "start_time": "1.51631287328e+12", "human_length": "7", "nodes_expanded": "999", "instance": "prb32695", "end_time": "1.51631288358e+12", "optimal_length": "7", "subject": "AYPOAY43REHC8"}
