{"rt": "27011.0", "trial_number": "0", "skipped": "False", "complete": "True", "assignment": "3AZHRG4CU5SYU12YRVPCSZALW5003R", "start_time": "1.51630654137e+12", "human_length": "32", "nodes_expanded": "999", "instance": "prb48146", "end_time": "1.51630656838e+12", "optimal_length": "16", "subject": "ARWF605I7RWM7"}
{"rt": "56072.0", "trial_number": "0", "skipped": "False", "complete": "True", "assignment": "3ZV9H2YQQEFR2R3JK2IXZUJPXAF3WW", "start_time": "1.51630644553e+12", "human_length": "33", "nodes_expanded": "999", "instance": "prb48146", "end_time": "1.5163065016e+12", "optimal_length": "16", "subject": "A289D98Z4GAZ28"}
{"rt": "45412.0", "trial_number": "0", "skipped": "False", "complete": "True", "assignment": "3PMBY0YE28B43VMUKKJ6EDF85RV9C8", "start_time": "1.51638682109e+12", "human_length": "32", "nodes_expanded": "999", "instance": "prb48146", "end_time": "1.5163868665e+12", "optimal_length": "16", "subject": "A191V7PT3DQKDP"}
{"rt": "104325.0", "trial_number": "0", "skipped": "False", "complete": "True", "assignment": "3TYCR1GOTDRCCQYD1V64UK7OE48LZS", "start_time": "1.51638978143e+12", "human_length": "46", "nodes_expanded": "999", "instance": "prb48146", "end_time": "1.51638988576e+12", "optimal_length": "16", "subject": "A2MYB6MLQW0IGN"}
{"rt": "49562.0", "trial_number": "0", "skipped": "False", "complete": "True", "assignment": "34BBWHLWHBJ6SUL255PK30LEGY5IWG", "start_time": "1.51639307528e+12", "human_length": "45", "nodes_expanded": "999", "instance": "prb48146", "end_time": "1.51639312484e+12", "optimal_length": "16", "subject": "A214HWAW1PYWO8"}
{"rt": "40650.0", "trial_number": "0", "skipped": "False", "complete": "False", "assignment": "3VE8AYVF8N5BS2NU6U3TMN50JMNF8V", "start_time": "1.51673553847e+12", "human_length": "14", "nodes_expanded": "999", "instance": "prb48146", "end_time": "1.51673557912e+12", "optimal_length": "16", "subject": "A18QU0YQB6Q8DF"}
{"rt": "0.0", "trial_number": "1", "skipped": "False", "complete": "False", "assignment": "3VE8AYVF8N5BS2NU6U3TMN50JMNF8V", "start_time": "1.51673558370e+12", "human_length": "1", "nodes_expanded": "999", "instance": "prb48146", "end_time": "1.51673558370e+12", "optimal_length": "16", "subject": "A18QU0YQB6Q8DF"}
{"rt": "0.0", "trial_number": "2", "skipped": "False", "complete": "False", "assignment": "3VE8AYVF8N5BS2NU6U3TMN50JMNF8V", "start_time": "1.51673553847e+12", "human_length": "1", "nodes_expanded": "999", "instance": "prb48146", "end_time": "1.51673553847e+12", "optimal_length": "16", "subject": "A18QU0YQB6Q8DF"}
{"rt": "0.0", "trial_number": "3", "skipped": "False", "complete": "False", "assignment": "3VE8AYVF8N5BS2NU6U3TMN50JMNF8V", "start_time": "1.51673558370e+12", "human_length": "1", "nodes_expanded": "999", "instance": "prb48146", "end_time": "1.51673558370e+12", "optimal_length": "16", "subject": "A18QU0YQB6Q8DF"}
{"rt": "0.0", "trial_number": "4", "skipped": "False", "complete": "False", "assignment": "3VE8AYVF8N5BS2NU6U3TMN50JMNF8V", "start_time": "1.51673553847e+12", "human_length": "1", "nodes_expanded": "999", "instance": "prb48146", "end_time": "1.51673553847e+12", "optimal_length": "16", "subject": "A18QU0YQB6Q8DF"}
{"rt": "63649.0", "trial_number": "5", "skipped": "False", "complete": "True", "assignment": "3VE8AYVF8N5BS2NU6U3TMN50JMNF8V", "start_time": "1.51673558370e+12", "human_length": "27", "nodes_expanded": "999", "instance": "prb48146", "end_time": "1.51673564735e+12", "optimal_length": "16", "subject": "A18QU0YQB6Q8DF"}
{"rt": "0.0", "trial_number": "0", "skipped": "False", "complete": "False", "assignment": "3X87C8JFV7JQ2BSCY8KSFD9F2ILSQK", "start_time": "1.5167380716e+12", "human_length": "1", "nodes_expanded": "999", "instance": "prb48146", "end_time": "1.5167380716e+12", "optimal_length": "16", "subject": "A3Q0XAGQ7TD7MP"}
{"rt": "0.0", "trial_number": "1", "skipped": "False", "complete": "False", "assignment": "3X87C8JFV7JQ2BSCY8KSFD9F2ILSQK", "start_time": "1.5167380716e+12", "human_length": "1", "nodes_expanded": "999", "instance": "prb48146", "end_time": "1.5167380716e+12", "optimal_length": "16", "subject": "A3Q0XAGQ7TD7MP"}
{"rt": "37055.0", "trial_number": "2", "skipped": "False", "complete": "True", "assignment": "3X87C8JFV7JQ2BSCY8KSFD9F2ILSQK", "start_time": "1.5167380716e+12", "human_length": "17", "nodes_expanded": "999", "instance": "prb48146", "end_time": "1.51673810865e+12", "optimal_length": "16", "subject": "A3Q0XAGQ7TD7MP"}
{"rt": "44148.0", "trial_number": "3", "skipped": "False", "complete": "True", "assignment": "3GLB5JMZFY3TNXFGYMKRQ0JDXNTDGZ", "start_time": "1.51794600902e+12", "human_length": "25", "nodes_expanded": "999", "instance": "prb48146", "end_time": "1.51794605316e+12", "optimal_length": "16", "subject": "A3Q0XAGQ7TD7MP"}
{"rt": "81201.0", "trial_number": "0", "skipped": "False", "complete": "False", "assignment": "3WSELTNVR4AZUVYAYCSWZIQW0J4ATB", "start_time": "1.51673709254e+12", "human_length": "49", "nodes_expanded": "999", "instance": "prb48146", "end_time": "1.51673717374e+12", "optimal_length": "16", "subject": "A2TQNX64349OZ9"}
{"rt": "49268.0", "trial_number": "1", "skipped": "False", "complete": "False", "assignment": "3WSELTNVR4AZUVYAYCSWZIQW0J4ATB", "start_time": "1.51673717633e+12", "human_length": "26", "nodes_expanded": "999", "instance": "prb48146", "end_time": "1.5167372256e+12", "optimal_length": "16", "subject": "A2TQNX64349OZ9"}
{"rt": "37607.0", "trial_number": "2", "skipped": "False", "complete": "False", "assignment": "3WSELTNVR4AZUVYAYCSWZIQW0J4ATB", "start_time": "1.51673722706e+12", "human_length": "22", "nodes_expanded": "999", "instance": "prb48146", "end_time": "1.51673726467e+12", "optimal_length": "16", "subject": "A2TQNX64349OZ9"}
{"rt": "0.0", "trial_number": "3", "skipped": "False", "complete": "False", "assignment": "3WSELTNVR4AZUVYAYCSWZIQW0J4ATB", "start_time": "1.51673727172e+12", "human_length": "1", "nodes_expanded": "999", "instance": "prb48146", "end_time": "1.51673727172e+12", "optimal_length": "16", "subject": "A2TQNX64349OZ9"}
{"rt": "0.0", "trial_number": "4", "skipped": "False", "complete": "False", "assignment": "3WSELTNVR4AZUVYAYCSWZIQW0J4ATB", "start_time": "1.51673709254e+12", "human_length": "1", "nodes_expanded": "999", "instance": "prb48146", "end_time": "1.51673709254e+12", "optimal_length": "16", "subject": "A2TQNX64349OZ9"}
{"rt": "0.0", "trial_number": "5", "skipped": "False", "complete": "False", "assignment": "3WSELTNVR4AZUVYAYCSWZIQW0J4ATB", "start_time": "1.51673717633e+12", "human_length": "1", "nodes_expanded": "999", "instance": "prb48146", "end_time": "1.51673717633e+12", "optimal_length": "16", "subject": "A2TQNX64349OZ9"}
{"rt": "0.0", "trial_number": "6", "skipped": "False", "complete": "False", "assignment": "3WSELTNVR4AZUVYAYCSWZIQW0J4ATB", "start_time": "1.51673722706e+12", "human_length": "1", "nodes_expanded": "999", "instance": "prb48146", "end_time": "1.51673722706e+12", "optimal_length": "16", "subject": "A2TQNX64349OZ9"}
{"rt": "0.0", "trial_number": "7", "skipped": "False", "complete": "False", "assignment": "3WSELTNVR4AZUVYAYCSWZIQW0J4ATB", "start_time": "1.51673727172e+12", "human_length": "1", "nodes_expanded": "999", "instance": "prb48146", "end_time": "1.51673727172e+12", "optimal_length": "16", "subject": "A2TQNX64349OZ9"}
{"rt": "0.0", "trial_number": "8", "skipped": "False", "complete": "False", "assignment": "3WSELTNVR4AZUVYAYCSWZIQW0J4ATB", "start_time": "1.51673709254e+12", "human_length": "1", "nodes_expanded": "999", "instance": "prb48146", "end_time": "1.51673709254e+12", "optimal_length": "16", "subject": "A2TQNX64349OZ9"}
{"rt": "0.0", "trial_number": "9", "skipped": "False", "complete": "False", "assignment": "3WSELTNVR4AZUVYAYCSWZIQW0J4ATB", "start_time": "1.51673717633e+12", "human_length": "1", "nodes_expanded": "999", "instance": "prb48146", "end_time": "1.51673717633e+12", "optimal_length": "16", "subject": "A2TQNX64349OZ9"}
{"rt": "0.0", "trial_number": "10", "skipped": "False", "complete": "False", "assignment": "3WSELTNVR4AZUVYAYCSWZIQW0J4ATB", "start_time": "1.51673722706e+12", "human_length": "1", "nodes_expanded": "999", "instance": "prb48146", "end_time": "1.51673722706e+12", "optimal_length": "16", "subject": "A2TQNX64349OZ9"}
{"rt": "17965.0", "trial_number": "11", "skipped": "True", "complete": "False", "assignment": "3WSELTNVR4AZUVYAYCSWZIQW0J4ATB", "start_time": "1.51673727172e+12", "human_length": "203", "nodes_expanded": "999", "instance": "prb48146", "end_time": "1.51673728969e+12", "optimal_length": "16", "subject": "A2TQNX64349OZ9"}
{"rt": "0.0", "trial_number": "0", "skipped": "False", "complete": "False", "assignment": "3IJXV6UZ1YR1KY4G6BFEG1DXP7SRI1", "start_time": "1.51675086974e+12", "human_length": "1", "nodes_expanded": "999", "instance": "prb48146", "end_time": "1.51675086974e+12", "optimal_length": "16", "subject": "A2RTJ6BDY0DZVZ"}
{"rt": "0.0", "trial_number": "1", "skipped": "False", "complete": "False", "assignment": "3IJXV6UZ1YR1KY4G6BFEG1DXP7SRI1", "start_time": "1.51675086974e+12", "human_length": "1", "nodes_expanded": "999", "instance": "prb48146", "end_time": "1.51675086974e+12", "optimal_length": "16", "subject": "A2RTJ6BDY0DZVZ"}
{"rt": "23669.0", "trial_number": "2", "skipped": "False", "complete": "True", "assignment": "3IJXV6UZ1YR1KY4G6BFEG1DXP7SRI1", "start_time": "1.51675086974e+12", "human_length": "18", "nodes_expanded": "999", "instance": "prb48146", "end_time": "1.51675089341e+12", "optimal_length": "16", "subject": "A2RTJ6BDY0DZVZ"}
{"rt": "0.0", "trial_number": "0", "skipped": "False", "complete": "False", "assignment": "3I2PTA7R3U2SESF4TZBQORI5LSJQKK", "start_time": "1.51675828e+12", "human_length": "1", "nodes_expanded": "999", "instance": "prb48146", "end_time": "1.51675828e+12", "optimal_length": "16", "subject": "A3NMQ3019X6YE0"}
{"rt": "0.0", "trial_number": "1", "skipped": "False", "complete": "False", "assignment": "3I2PTA7R3U2SESF4TZBQORI5LSJQKK", "start_time": "1.51675828e+12", "human_length": "1", "nodes_expanded": "999", "instance": "prb48146", "end_time": "1.51675828e+12", "optimal_length": "16", "subject": "A3NMQ3019X6YE0"}
{"rt": "124941.0", "trial_number": "2", "skipped": "False", "complete": "True", "assignment": "3I2PTA7R3U2SESF4TZBQORI5LSJQKK", "start_time": "1.51675828e+12", "human_length": "47", "nodes_expanded": "999", "instance": "prb48146", "end_time": "1.51675840494e+12", "optimal_length": "16", "subject": "A3NMQ3019X6YE0"}
{"rt": "58812.0", "trial_number": "3", "skipped": "False", "complete": "True", "assignment": "3V5Q80FXIYZ5QB5C6ITQBN30WY823U", "start_time": "1.51753468367e+12", "human_length": "31", "nodes_expanded": "999", "instance": "prb48146", "end_time": "1.51753474248e+12", "optimal_length": "16", "subject": "A3NMQ3019X6YE0"}
{"rt": "0.0", "trial_number": "0", "skipped": "False", "complete": "False", "assignment": "3YW4XOSQKRTI0K0Z2YPDTDJVFABU1I", "start_time": "1.51682221712e+12", "human_length": "1", "nodes_expanded": "999", "instance": "prb48146", "end_time": "1.51682221712e+12", "optimal_length": "16", "subject": "A15781PHGW377Y"}
{"rt": "74238.0", "trial_number": "1", "skipped": "False", "complete": "True", "assignment": "3YW4XOSQKRTI0K0Z2YPDTDJVFABU1I", "start_time": "1.51682221712e+12", "human_length": "36", "nodes_expanded": "999", "instance": "prb48146", "end_time": "1.51682229136e+12", "optimal_length": "16", "subject": "A15781PHGW377Y"}
{"rt": "98653.0", "trial_number": "0", "skipped": "False", "complete": "False", "assignment": "3X4MXAO0BHWJLTOLVSJTHSM54OHWRG", "start_time": "1.51682323968e+12", "human_length": "64", "nodes_expanded": "999", "instance": "prb48146", "end_time": "1.51682333833e+12", "optimal_length": "16", "subject": "A2IBQA01NR5N76"}
{"rt": "0.0", "trial_number": "1", "skipped": "False", "complete": "False", "assignment": "3X4MXAO0BHWJLTOLVSJTHSM54OHWRG", "start_time": "1.5168233417e+12", "human_length": "1", "nodes_expanded": "999", "instance": "prb48146", "end_time": "1.5168233417e+12", "optimal_length": "16", "subject": "A2IBQA01NR5N76"}
{"rt": "0.0", "trial_number": "2", "skipped": "False", "complete": "False", "assignment": "3X4MXAO0BHWJLTOLVSJTHSM54OHWRG", "start_time": "1.51682323968e+12", "human_length": "1", "nodes_expanded": "999", "instance": "prb48146", "end_time": "1.51682323968e+12", "optimal_length": "16", "subject": "A2IBQA01NR5N76"}
{"rt": "41786.0", "trial_number": "3", "skipped": "False", "complete": "True", "assignment": "3X4MXAO0BHWJLTOLVSJTHSM54OHWRG", "start_time": "1.5168233417e+12", "human_length": "26", "nodes_expanded": "999", "instance": "prb48146", "end_time": "1.51682338349e+12", "optimal_length": "16", "subject": "A2IBQA01NR5N76"}
{"rt": "98653.0", "trial_number": "0", "skipped": "False", "complete": "False", "assignment": "3X4MXAO0BHWJLTOLVSJTHSM54OHWRG", "start_time": "1.51682323968e+12", "human_length": "64", "nodes_expanded": "999", "instance": "prb48146", "end_time": "1.51682333833e+12", "optimal_length": "16", "subject": "A2IBQA01NR5N76"}
{"rt": "41786.0", "trial_number": "1", "skipped": "False", "complete": "True", "assignment": "3X4MXAO0BHWJLTOLVSJTHSM54OHWRG", "start_time": "1.5168233417e+12", "human_length": "26", "nodes_expanded": "999", "instance": "prb48146", "end_time": "1.51682338349e+12", "optimal_length": "16", "subject": "A2IBQA01NR5N76"}
{"rt": "0.0", "trial_number": "0", "skipped": "False", "complete": "False", "assignment": "3IHR8NYAM89M0EPM8U9LH53ZJDTP4U", "start_time": "1.51682637002e+12", "human_length": "1", "nodes_expanded": "999", "instance": "prb48146", "end_time": "1.51682637002e+12", "optimal_length": "16", "subject": "A23437BMZ5T1FH"}
{"rt": "43558.0", "trial_number": "1", "skipped": "True", "complete": "False", "assignment": "3IHR8NYAM89M0EPM8U9LH53ZJDTP4U", "start_time": "1.51682637002e+12", "human_length": "74", "nodes_expanded": "999", "instance": "prb48146", "end_time": "1.51682641358e+12", "optimal_length": "16", "subject": "A23437BMZ5T1FH"}
{"rt": "0.0", "trial_number": "0", "skipped": "False", "complete": "False", "assignment": "37WLF8U1WQYZ4AWKEQXSIM1ELVEK6W", "start_time": "1.51683160595e+12", "human_length": "1", "nodes_expanded": "999", "instance": "prb48146", "end_time": "1.51683160595e+12", "optimal_length": "16", "subject": "A2EPBSY0VPI38S"}
{"rt": "221747.0", "trial_number": "1", "skipped": "False", "complete": "True", "assignment": "37WLF8U1WQYZ4AWKEQXSIM1ELVEK6W", "start_time": "1.51683160595e+12", "human_length": "102", "nodes_expanded": "999", "instance": "prb48146", "end_time": "1.5168318277e+12", "optimal_length": "16", "subject": "A2EPBSY0VPI38S"}
{"rt": "0.0", "trial_number": "0", "skipped": "False", "complete": "False", "assignment": "3YW4XOSQKRTI0K0Z2YPDTDJVFABU1I", "start_time": "1.51683071588e+12", "human_length": "1", "nodes_expanded": "999", "instance": "prb48146", "end_time": "1.51683071588e+12", "optimal_length": "16", "subject": "A1LR0VQIHQUJAM"}
{"rt": "43209.0", "trial_number": "1", "skipped": "False", "complete": "True", "assignment": "3YW4XOSQKRTI0K0Z2YPDTDJVFABU1I", "start_time": "1.51683071588e+12", "human_length": "33", "nodes_expanded": "999", "instance": "prb48146", "end_time": "1.51683075909e+12", "optimal_length": "16", "subject": "A1LR0VQIHQUJAM"}
{"rt": "40650.0", "trial_number": "0", "skipped": "False", "complete": "False", "assignment": "3VE8AYVF8N5BS2NU6U3TMN50JMNF8V", "start_time": "1.51673553847e+12", "human_length": "14", "nodes_expanded": "999", "instance": "prb48146", "end_time": "1.51673557912e+12", "optimal_length": "16", "subject": "A18QU0YQB6Q8DF"}
{"rt": "63649.0", "trial_number": "1", "skipped": "False", "complete": "True", "assignment": "3VE8AYVF8N5BS2NU6U3TMN50JMNF8V", "start_time": "1.51673558370e+12", "human_length": "27", "nodes_expanded": "999", "instance": "prb48146", "end_time": "1.51673564735e+12", "optimal_length": "16", "subject": "A18QU0YQB6Q8DF"}
{"rt": "37055.0", "trial_number": "0", "skipped": "False", "complete": "True", "assignment": "3X87C8JFV7JQ2BSCY8KSFD9F2ILSQK", "start_time": "1.5167380716e+12", "human_length": "17", "nodes_expanded": "999", "instance": "prb48146", "end_time": "1.51673810865e+12", "optimal_length": "16", "subject": "A3Q0XAGQ7TD7MP"}
{"rt": "44148.0", "trial_number": "1", "skipped": "False", "complete": "True", "assignment": "3GLB5JMZFY3TNXFGYMKRQ0JDXNTDGZ", "start_time": "1.51794600902e+12", "human_length": "25", "nodes_expanded": "999", "instance": "prb48146", "end_time": "1.51794605316e+12", "optimal_length": "16", "subject": "A3Q0XAGQ7TD7MP"}
{"rt": "81201.0", "trial_number": "0", "skipped": "False", "complete": "False", "assignment": "3WSELTNVR4AZUVYAYCSWZIQW0J4ATB", "start_time": "1.51673709254e+12", "human_length": "49", "nodes_expanded": "999", "instance": "prb48146", "end_time": "1.51673717374e+12", "optimal_length": "16", "subject": "A2TQNX64349OZ9"}
{"rt": "49268.0", "trial_number": "1", "skipped": "False", "complete": "False", "assignment": "3WSELTNVR4AZUVYAYCSWZIQW0J4ATB", "start_time": "1.51673717633e+12", "human_length": "26", "nodes_expanded": "999", "instance": "prb48146", "end_time": "1.5167372256e+12", "optimal_length": "16", "subject": "A2TQNX64349OZ9"}
{"rt": "37607.0", "trial_number": "2", "skipped": "False", "complete": "False", "assignment": "3WSELTNVR4AZUVYAYCSWZIQW0J4ATB", "start_time": "1.51673722706e+12", "human_length": "22", "nodes_expanded": "999", "instance": "prb48146", "end_time": "1.51673726467e+12", "optimal_length": "16", "subject": "A2TQNX64349OZ9"}
{"rt": "17965.0", "trial_number": "3", "skipped": "True", "complete": "False", "assignment": "3WSELTNVR4AZUVYAYCSWZIQW0J4ATB", "start_time": "1.51673727172e+12", "human_length": "10", "nodes_expanded": "999", "instance": "prb48146", "end_time": "1.51673728969e+12", "optimal_length": "16", "subject": "A2TQNX64349OZ9"}
{"rt": "23669.0", "trial_number": "0", "skipped": "False", "complete": "True", "assignment": "3IJXV6UZ1YR1KY4G6BFEG1DXP7SRI1", "start_time": "1.51675086974e+12", "human_length": "18", "nodes_expanded": "999", "instance": "prb48146", "end_time": "1.51675089341e+12", "optimal_length": "16", "subject": "A2RTJ6BDY0DZVZ"}
{"rt": "124941.0", "trial_number": "0", "skipped": "False", "complete": "True", "assignment": "3I2PTA7R3U2SESF4TZBQORI5LSJQKK", "start_time": "1.51675828e+12", "human_length": "47", "nodes_expanded": "999", "instance": "prb48146", "end_time": "1.51675840494e+12", "optimal_length": "16", "subject": "A3NMQ3019X6YE0"}
{"rt": "58812.0", "trial_number": "1", "skipped": "False", "complete": "True", "assignment": "3V5Q80FXIYZ5QB5C6ITQBN30WY823U", "start_time": "1.51753468367e+12", "human_length": "31", "nodes_expanded": "999", "instance": "prb48146", "end_time": "1.51753474248e+12", "optimal_length": "16", "subject": "A3NMQ3019X6YE0"}
{"rt": "74238.0", "trial_number": "0", "skipped": "False", "complete": "True", "assignment": "3YW4XOSQKRTI0K0Z2YPDTDJVFABU1I", "start_time": "1.51682221712e+12", "human_length": "36", "nodes_expanded": "999", "instance": "prb48146", "end_time": "1.51682229136e+12", "optimal_length": "16", "subject": "A15781PHGW377Y"}
{"rt": "77064.0", "trial_number": "0", "skipped": "False", "complete": "False", "assignment": "3TS1AR6UQRM7SOIBWPBN8N9589Y7FV", "start_time": "1.51683875956e+12", "human_length": "62", "nodes_expanded": "999", "instance": "prb48146", "end_time": "1.51683883663e+12", "optimal_length": "16", "subject": "A1F4N58CAX8IMK"}
{"rt": "27477.0", "trial_number": "1", "skipped": "False", "complete": "True", "assignment": "35DR22AR5ES6RR89U7EJ1DXW91AX3P", "start_time": "1.51795503616e+12", "human_length": "32", "nodes_expanded": "999", "instance": "prb48146", "end_time": "1.51795506363e+12", "optimal_length": "16", "subject": "A1F4N58CAX8IMK"}
{"rt": "19384.0", "trial_number": "0", "skipped": "False", "complete": "False", "assignment": "3M0BCWMB8W4W5M7WZVX3HDH1M3FBWL", "start_time": "1.51683881928e+12", "human_length": "7", "nodes_expanded": "999", "instance": "prb48146", "end_time": "1.51683883866e+12", "optimal_length": "16", "subject": "A1XDMS0KFSF5JW"}
{"rt": "40489.0", "trial_number": "1", "skipped": "False", "complete": "False", "assignment": "3M0BCWMB8W4W5M7WZVX3HDH1M3FBWL", "start_time": "1.51683884486e+12", "human_length": "16", "nodes_expanded": "999", "instance": "prb48146", "end_time": "1.51683888535e+12", "optimal_length": "16", "subject": "A1XDMS0KFSF5JW"}
{"rt": "53952.0", "trial_number": "2", "skipped": "False", "complete": "True", "assignment": "3M0BCWMB8W4W5M7WZVX3HDH1M3FBWL", "start_time": "1.51683889092e+12", "human_length": "19", "nodes_expanded": "999", "instance": "prb48146", "end_time": "1.51683894487e+12", "optimal_length": "16", "subject": "A1XDMS0KFSF5JW"}
{"rt": "45034.0", "trial_number": "0", "skipped": "False", "complete": "False", "assignment": "31LM9EDVOM0C0BWUVMJXJINN3QPJNI", "start_time": "1.51752270724e+12", "human_length": "29", "nodes_expanded": "999", "instance": "prb48146", "end_time": "1.51752275228e+12", "optimal_length": "16", "subject": "A1NT8BT94ME6F5"}
{"rt": "45428.0", "trial_number": "1", "skipped": "True", "complete": "False", "assignment": "31LM9EDVOM0C0BWUVMJXJINN3QPJNI", "start_time": "1.5175227535e+12", "human_length": "17", "nodes_expanded": "999", "instance": "prb48146", "end_time": "1.51752279892e+12", "optimal_length": "16", "subject": "A1NT8BT94ME6F5"}
{"rt": "46160.0", "trial_number": "0", "skipped": "False", "complete": "True", "assignment": "37TD41K0AIHM8AITTQJXV8KY05QCSB", "start_time": "1.51752307833e+12", "human_length": "24", "nodes_expanded": "999", "instance": "prb48146", "end_time": "1.51752312449e+12", "optimal_length": "16", "subject": "A30KYQGABO7JER"}
{"rt": "10965.0", "trial_number": "0", "skipped": "True", "complete": "False", "assignment": "36H9ULYP6320CJJDXY0KBDEE1Z3JFB", "start_time": "1.51753427629e+12", "human_length": "9", "nodes_expanded": "999", "instance": "prb48146", "end_time": "1.51753428725e+12", "optimal_length": "16", "subject": "AN098C29EGJ6"}
{"rt": "146014.0", "trial_number": "0", "skipped": "False", "complete": "False", "assignment": "3TYCR1GOTDRCCQYD1V64UK7OHTBZLQ", "start_time": "1.51753556393e+12", "human_length": "101", "nodes_expanded": "999", "instance": "prb48146", "end_time": "1.51753570995e+12", "optimal_length": "16", "subject": "A13BZCNJ0WR1T7"}
{"rt": "4413.0", "trial_number": "1", "skipped": "False", "complete": "False", "assignment": "3TYCR1GOTDRCCQYD1V64UK7OHTBZLQ", "start_time": "1.51753571193e+12", "human_length": "3", "nodes_expanded": "999", "instance": "prb48146", "end_time": "1.51753571634e+12", "optimal_length": "16", "subject": "A13BZCNJ0WR1T7"}
{"rt": "44681.0", "trial_number": "2", "skipped": "False", "complete": "True", "assignment": "3TYCR1GOTDRCCQYD1V64UK7OHTBZLQ", "start_time": "1.51753571812e+12", "human_length": "34", "nodes_expanded": "999", "instance": "prb48146", "end_time": "1.5175357628e+12", "optimal_length": "16", "subject": "A13BZCNJ0WR1T7"}
{"rt": "8843.0", "trial_number": "0", "skipped": "False", "complete": "False", "assignment": "30IQTZXKALEAAZ9CBKW0ZFZP6O5X07", "start_time": "1.51793949143e+12", "human_length": "5", "nodes_expanded": "999", "instance": "prb48146", "end_time": "1.51793950028e+12", "optimal_length": "16", "subject": "A10YS8AVLQWUZZ"}
{"rt": "8171.0", "trial_number": "1", "skipped": "False", "complete": "False", "assignment": "30IQTZXKALEAAZ9CBKW0ZFZP6O5X07", "start_time": "1.51793950903e+12", "human_length": "4", "nodes_expanded": "999", "instance": "prb48146", "end_time": "1.5179395172e+12", "optimal_length": "16", "subject": "A10YS8AVLQWUZZ"}
{"rt": "81060.0", "trial_number": "2", "skipped": "False", "complete": "True", "assignment": "30IQTZXKALEAAZ9CBKW0ZFZP6O5X07", "start_time": "1.51793952604e+12", "human_length": "20", "nodes_expanded": "999", "instance": "prb48146", "end_time": "1.5179396071e+12", "optimal_length": "16", "subject": "A10YS8AVLQWUZZ"}
{"rt": "58541.0", "trial_number": "0", "skipped": "False", "complete": "True", "assignment": "34HJIJKLP64Z5YMIU6IKNXSH7PDV4I", "start_time": "1.5179418484e+12", "human_length": "34", "nodes_expanded": "999", "instance": "prb48146", "end_time": "1.51794190694e+12", "optimal_length": "16", "subject": "A3CTXNQ2GXIQSP"}
{"rt": "33784.0", "trial_number": "0", "skipped": "False", "complete": "False", "assignment": "30IQTZXKALEAAZ9CBKW0ZFZP6O5X07", "start_time": "1.51794334486e+12", "human_length": "16", "nodes_expanded": "999", "instance": "prb48146", "end_time": "1.51794337864e+12", "optimal_length": "16", "subject": "A23XJ8I86R0O3B"}
{"rt": "37716.0", "trial_number": "1", "skipped": "False", "complete": "False", "assignment": "30IQTZXKALEAAZ9CBKW0ZFZP6O5X07", "start_time": "1.51794338175e+12", "human_length": "13", "nodes_expanded": "999", "instance": "prb48146", "end_time": "1.51794341946e+12", "optimal_length": "16", "subject": "A23XJ8I86R0O3B"}
{"rt": "19673.0", "trial_number": "2", "skipped": "False", "complete": "False", "assignment": "30IQTZXKALEAAZ9CBKW0ZFZP6O5X07", "start_time": "1.51794342703e+12", "human_length": "6", "nodes_expanded": "999", "instance": "prb48146", "end_time": "1.51794344671e+12", "optimal_length": "16", "subject": "A23XJ8I86R0O3B"}
{"rt": "76280.0", "trial_number": "3", "skipped": "False", "complete": "True", "assignment": "30IQTZXKALEAAZ9CBKW0ZFZP6O5X07", "start_time": "1.5179434777e+12", "human_length": "29", "nodes_expanded": "999", "instance": "prb48146", "end_time": "1.51794355398e+12", "optimal_length": "16", "subject": "A23XJ8I86R0O3B"}
{"rt": "14796.0", "trial_number": "0", "skipped": "False", "complete": "False", "assignment": "3STRJBFXOXZ5687WA35LTWTS7QZKTT", "start_time": "1.51794645785e+12", "human_length": "12", "nodes_expanded": "999", "instance": "prb48146", "end_time": "1.51794647264e+12", "optimal_length": "16", "subject": "A3OB6REG5CGHK1"}
{"rt": "0.0", "trial_number": "1", "skipped": "False", "complete": "False", "assignment": "3STRJBFXOXZ5687WA35LTWTS7QZKTT", "start_time": "1.51794648634e+12", "human_length": "1", "nodes_expanded": "999", "instance": "prb48146", "end_time": "1.51794648634e+12", "optimal_length": "16", "subject": "A3OB6REG5CGHK1"}
{"rt": "15361.0", "trial_number": "2", "skipped": "False", "complete": "False", "assignment": "3STRJBFXOXZ5687WA35LTWTS7QZKTT", "start_time": "1.51794648636e+12", "human_length": "4", "nodes_expanded": "999", "instance": "prb48146", "end_time": "1.51794650172e+12", "optimal_length": "16", "subject": "A3OB6REG5CGHK1"}
{"rt": "23132.0", "trial_number": "3", "skipped": "False", "complete": "True", "assignment": "3STRJBFXOXZ5687WA35LTWTS7QZKTT", "start_time": "1.51794650372e+12", "human_length": "18", "nodes_expanded": "999", "instance": "prb48146", "end_time": "1.51794652685e+12", "optimal_length": "16", "subject": "A3OB6REG5CGHK1"}
{"rt": "40905.0", "trial_number": "0", "skipped": "False", "complete": "False", "assignment": "33PPO7FECWN7JOLBOAKUBCWTC0AIDL", "start_time": "1.51794952744e+12", "human_length": "13", "nodes_expanded": "999", "instance": "prb48146", "end_time": "1.51794956835e+12", "optimal_length": "16", "subject": "AXKM02NVXNGOM"}
{"rt": "32062.0", "trial_number": "1", "skipped": "False", "complete": "False", "assignment": "33PPO7FECWN7JOLBOAKUBCWTC0AIDL", "start_time": "1.51794957300e+12", "human_length": "10", "nodes_expanded": "999", "instance": "prb48146", "end_time": "1.51794960507e+12", "optimal_length": "16", "subject": "AXKM02NVXNGOM"}
{"rt": "54959.0", "trial_number": "2", "skipped": "False", "complete": "True", "assignment": "33PPO7FECWN7JOLBOAKUBCWTC0AIDL", "start_time": "1.51794960834e+12", "human_length": "23", "nodes_expanded": "999", "instance": "prb48146", "end_time": "1.5179496633e+12", "optimal_length": "16", "subject": "AXKM02NVXNGOM"}
{"rt": "0.0", "trial_number": "0", "skipped": "False", "complete": "False", "assignment": "3HYA4D452SR06NL5QDUSCWSXZI12FF", "start_time": "1.51795133378e+12", "human_length": "1", "nodes_expanded": "999", "instance": "prb48146", "end_time": "1.51795133378e+12", "optimal_length": "16", "subject": "A2OFWHV8IP7HK"}
{"rt": "10114.0", "trial_number": "1", "skipped": "False", "complete": "False", "assignment": "3HYA4D452SR06NL5QDUSCWSXZI12FF", "start_time": "1.5179513338e+12", "human_length": "2", "nodes_expanded": "999", "instance": "prb48146", "end_time": "1.51795134391e+12", "optimal_length": "16", "subject": "A2OFWHV8IP7HK"}
{"rt": "17114.0", "trial_number": "2", "skipped": "True", "complete": "False", "assignment": "3HYA4D452SR06NL5QDUSCWSXZI12FF", "start_time": "1.51795135258e+12", "human_length": "10", "nodes_expanded": "999", "instance": "prb48146", "end_time": "1.5179513697e+12", "optimal_length": "16", "subject": "A2OFWHV8IP7HK"}
{"rt": "39577.0", "trial_number": "0", "skipped": "False", "complete": "True", "assignment": "3PB5A5BD0WED6OE679H5Q89HBDGG71", "start_time": "1.51795274589e+12", "human_length": "25", "nodes_expanded": "999", "instance": "prb48146", "end_time": "1.51795278547e+12", "optimal_length": "16", "subject": "A1USR9JCAMDGM3"}
{"rt": "57365.0", "trial_number": "0", "skipped": "False", "complete": "True", "assignment": "33F859I567LE8WC74WB3GA7E94XBHW", "start_time": "1.51796995233e+12", "human_length": "39", "nodes_expanded": "999", "instance": "prb48146", "end_time": "1.51797000969e+12", "optimal_length": "16", "subject": "A1GQS6USF2JEYG"}
{"rt": "37507.0", "trial_number": "0", "skipped": "False", "complete": "True", "assignment": "3IJXV6UZ1YR1KY4G6BFEG1DXR47RIC", "start_time": "1.51797289835e+12", "human_length": "35", "nodes_expanded": "999", "instance": "prb48146", "end_time": "1.51797293586e+12", "optimal_length": "16", "subject": "A18T3WK7J16C1B"}
{"rt": "58016.0", "trial_number": "0", "skipped": "False", "complete": "True", "assignment": "3FTF2T8WLSQDHTSZ1BJ7Q7MB14SW9H", "start_time": "1.51813711432e+12", "human_length": "48", "nodes_expanded": "999", "instance": "prb48146", "end_time": "1.51813717234e+12", "optimal_length": "16", "subject": "A1IUH9D7N69VS"}
{"rt": "77683.0", "trial_number": "0", "skipped": "True", "complete": "False", "assignment": "3XC1O3LBOTUGQEPEV3HM8W67X4RTLL", "start_time": "1.51813871416e+12", "human_length": "38", "nodes_expanded": "999", "instance": "prb48146", "end_time": "1.51813879184e+12", "optimal_length": "16", "subject": "A1ZTSCPETU3UJW"}
{"rt": "72099.0", "trial_number": "0", "skipped": "True", "complete": "False", "assignment": "3TAYZSBPLMG9ASQRWXURJVBCPLN2SH", "start_time": "1.51813650782e+12", "human_length": "39", "nodes_expanded": "999", "instance": "prb48146", "end_time": "1.51813657992e+12", "optimal_length": "16", "subject": "A2RCYLKY072XXO"}
{"rt": "39180.0", "trial_number": "0", "skipped": "False", "complete": "True", "assignment": "3ZSANO2JCGFTBM23KS9Y3E51YP4FSQ", "start_time": "1.51814302049e+12", "human_length": "37", "nodes_expanded": "999", "instance": "prb48146", "end_time": "1.51814305967e+12", "optimal_length": "16", "subject": "A1F42D4L22K5ND"}
{"rt": "41301.0", "trial_number": "0", "skipped": "False", "complete": "True", "assignment": "3HWRJOOET6A15827PHPSLWK1MOYSEU", "start_time": "1.51814594558e+12", "human_length": "34", "nodes_expanded": "999", "instance": "prb48146", "end_time": "1.51814598688e+12", "optimal_length": "16", "subject": "AO1QGAUZ85T6L"}
{"rt": "178291.0", "trial_number": "0", "skipped": "True", "complete": "False", "assignment": "3TMFV4NEP9MD3O9PWJDTQBR0HZYW8I", "start_time": "1.5181466186e+12", "human_length": "47", "nodes_expanded": "999", "instance": "prb48146", "end_time": "1.5181467969e+12", "optimal_length": "16", "subject": "A3GOOI75XOF24V"}
{"rt": "64899.0", "trial_number": "0", "skipped": "False", "complete": "True", "assignment": "3XLBSAQ9Z5KDX59BX15UBFPNNHYZ7Q", "start_time": "1.51814591318e+12", "human_length": "52", "nodes_expanded": "999", "instance": "prb48146", "end_time": "1.51814597807e+12", "optimal_length": "16", "subject": "A1HFNOKU591WCY"}
{"rt": "0.0", "trial_number": "0", "skipped": "False", "complete": "False", "assignment": "3RUIQRXJBCWS71H9MUFVM5WQ3SCLLJ", "start_time": "1.51815853469e+12", "human_length": "1", "nodes_expanded": "999", "instance": "prb48146", "end_time": "1.51815853469e+12", "optimal_length": "16", "subject": "A1SJRFJWFXSDH4"}
{"rt": "55120.0", "trial_number": "1", "skipped": "False", "complete": "True", "assignment": "3RUIQRXJBCWS71H9MUFVM5WQ3SCLLJ", "start_time": "1.51815853575e+12", "human_length": "27", "nodes_expanded": "999", "instance": "prb48146", "end_time": "1.51815859087e+12", "optimal_length": "16", "subject": "A1SJRFJWFXSDH4"}
{"rt": "69665.0", "trial_number": "0", "skipped": "True", "complete": "False", "assignment": "3M0BCWMB8W4W5M7WZVX3HDH1P53WB1", "start_time": "1.51816009772e+12", "human_length": "38", "nodes_expanded": "999", "instance": "prb48146", "end_time": "1.51816016738e+12", "optimal_length": "16", "subject": "A53S7J4JGWG38"}
{"rt": "37777.0", "trial_number": "0", "skipped": "False", "complete": "True", "assignment": "3IXEICO793RY7TM78ZBKJDOA7ADT6Q", "start_time": "1.51816787893e+12", "human_length": "32", "nodes_expanded": "999", "instance": "prb48146", "end_time": "1.51816791671e+12", "optimal_length": "16", "subject": "ALH1K6ZAQQMN7"}
