{"rt": "75294.0", "trial_number": "0", "skipped": "False", "complete": "True", "assignment": "3AZHRG4CU5SYU12YRVPCSZALW5003R", "start_time": "1.51630751844e+12", "human_length": "86", "nodes_expanded": "999", "instance": "prb46639", "end_time": "1.51630759374e+12", "optimal_length": "16", "subject": "ARWF605I7RWM7"}
{"rt": "212882.0", "trial_number": "0", "skipped": "False", "complete": "True", "assignment": "3ZV9H2YQQEFR2R3JK2IXZUJPXAF3WW", "start_time": "1.51630784639e+12", "human_length": "81", "nodes_expanded": "999", "instance": "prb46639", "end_time": "1.51630805927e+12", "optimal_length": "16", "subject": "A289D98Z4GAZ28"}
{"rt": "49206.0", "trial_number": "0", "skipped": "False", "complete": "True", "assignment": "3PMBY0YE28B43VMUKKJ6EDF85RV9C8", "start_time": "1.51638623484e+12", "human_length": "38", "nodes_expanded": "999", "instance": "prb46639", "end_time": "1.51638628405e+12", "optimal_length": "16", "subject": "A191V7PT3DQKDP"}
{"rt": "111633.0", "trial_number": "0", "skipped": "False", "complete": "True", "assignment": "3TYCR1GOTDRCCQYD1V64UK7OE48LZS", "start_time": "1.51639163272e+12", "human_length": "62", "nodes_expanded": "999", "instance": "prb46639", "end_time": "1.51639174435e+12", "optimal_length": "16", "subject": "A2MYB6MLQW0IGN"}
{"rt": "0.0", "trial_number": "0", "skipped": "False", "complete": "False", "assignment": "34BBWHLWHBJ6SUL255PK30LEGY5IWG", "start_time": "1.51639371862e+12", "human_length": "1", "nodes_expanded": "999", "instance": "prb46639", "end_time": "1.51639371862e+12", "optimal_length": "16", "subject": "A214HWAW1PYWO8"}
{"rt": "14669.0", "trial_number": "1", "skipped": "False", "complete": "False", "assignment": "34BBWHLWHBJ6SUL255PK30LEGY5IWG", "start_time": "1.5163937188e+12", "human_length": "12", "nodes_expanded": "999", "instance": "prb46639", "end_time": "1.51639373346e+12", "optimal_length": "16", "subject": "A214HWAW1PYWO8"}
{"rt": "31286.0", "trial_number": "2", "skipped": "False", "complete": "False", "assignment": "34BBWHLWHBJ6SUL255PK30LEGY5IWG", "start_time": "1.51639373585e+12", "human_length": "24", "nodes_expanded": "999", "instance": "prb46639", "end_time": "1.51639376713e+12", "optimal_length": "16", "subject": "A214HWAW1PYWO8"}
{"rt": "36360.0", "trial_number": "3", "skipped": "True", "complete": "False", "assignment": "34BBWHLWHBJ6SUL255PK30LEGY5IWG", "start_time": "1.5163937708e+12", "human_length": "14", "nodes_expanded": "999", "instance": "prb46639", "end_time": "1.51639380716e+12", "optimal_length": "16", "subject": "A214HWAW1PYWO8"}
{"rt": "99764.0", "trial_number": "0", "skipped": "False", "complete": "False", "assignment": "3WSELTNVR4AZUVYAYCSWZIQW0J4ATB", "start_time": "1.51673435534e+12", "human_length": "33", "nodes_expanded": "999", "instance": "prb46639", "end_time": "1.5167344551e+12", "optimal_length": "16", "subject": "A3LRSX7ECYPSF4"}
{"rt": "95731.0", "trial_number": "1", "skipped": "False", "complete": "False", "assignment": "3WSELTNVR4AZUVYAYCSWZIQW0J4ATB", "start_time": "1.51673445786e+12", "human_length": "25", "nodes_expanded": "999", "instance": "prb46639", "end_time": "1.51673455359e+12", "optimal_length": "16", "subject": "A3LRSX7ECYPSF4"}
{"rt": "29240.0", "trial_number": "2", "skipped": "False", "complete": "False", "assignment": "3WSELTNVR4AZUVYAYCSWZIQW0J4ATB", "start_time": "1.51673456018e+12", "human_length": "10", "nodes_expanded": "999", "instance": "prb46639", "end_time": "1.51673458942e+12", "optimal_length": "16", "subject": "A3LRSX7ECYPSF4"}
{"rt": "35741.0", "trial_number": "3", "skipped": "False", "complete": "False", "assignment": "3WSELTNVR4AZUVYAYCSWZIQW0J4ATB", "start_time": "1.51673460637e+12", "human_length": "6", "nodes_expanded": "999", "instance": "prb46639", "end_time": "1.51673464211e+12", "optimal_length": "16", "subject": "A3LRSX7ECYPSF4"}
{"rt": "64413.0", "trial_number": "4", "skipped": "False", "complete": "False", "assignment": "3WSELTNVR4AZUVYAYCSWZIQW0J4ATB", "start_time": "1.51673464905e+12", "human_length": "26", "nodes_expanded": "999", "instance": "prb46639", "end_time": "1.51673471347e+12", "optimal_length": "16", "subject": "A3LRSX7ECYPSF4"}
{"rt": "82563.0", "trial_number": "5", "skipped": "False", "complete": "False", "assignment": "3WSELTNVR4AZUVYAYCSWZIQW0J4ATB", "start_time": "1.5167347158e+12", "human_length": "16", "nodes_expanded": "999", "instance": "prb46639", "end_time": "1.51673479837e+12", "optimal_length": "16", "subject": "A3LRSX7ECYPSF4"}
{"rt": "79938.0", "trial_number": "6", "skipped": "False", "complete": "False", "assignment": "3WSELTNVR4AZUVYAYCSWZIQW0J4ATB", "start_time": "1.51673480115e+12", "human_length": "29", "nodes_expanded": "999", "instance": "prb46639", "end_time": "1.51673488109e+12", "optimal_length": "16", "subject": "A3LRSX7ECYPSF4"}
{"rt": "162271.0", "trial_number": "7", "skipped": "False", "complete": "False", "assignment": "3WSELTNVR4AZUVYAYCSWZIQW0J4ATB", "start_time": "1.51673488224e+12", "human_length": "49", "nodes_expanded": "999", "instance": "prb46639", "end_time": "1.51673504451e+12", "optimal_length": "16", "subject": "A3LRSX7ECYPSF4"}
{"rt": "0.0", "trial_number": "8", "skipped": "False", "complete": "False", "assignment": "3WSELTNVR4AZUVYAYCSWZIQW0J4ATB", "start_time": "1.51673504742e+12", "human_length": "1", "nodes_expanded": "999", "instance": "prb46639", "end_time": "1.51673504742e+12", "optimal_length": "16", "subject": "A3LRSX7ECYPSF4"}
{"rt": "0.0", "trial_number": "9", "skipped": "False", "complete": "False", "assignment": "3WSELTNVR4AZUVYAYCSWZIQW0J4ATB", "start_time": "1.51673435534e+12", "human_length": "1", "nodes_expanded": "999", "instance": "prb46639", "end_time": "1.51673435534e+12", "optimal_length": "16", "subject": "A3LRSX7ECYPSF4"}
{"rt": "0.0", "trial_number": "10", "skipped": "False", "complete": "False", "assignment": "3WSELTNVR4AZUVYAYCSWZIQW0J4ATB", "start_time": "1.51673445786e+12", "human_length": "1", "nodes_expanded": "999", "instance": "prb46639", "end_time": "1.51673445786e+12", "optimal_length": "16", "subject": "A3LRSX7ECYPSF4"}
{"rt": "0.0", "trial_number": "11", "skipped": "False", "complete": "False", "assignment": "3WSELTNVR4AZUVYAYCSWZIQW0J4ATB", "start_time": "1.51673456018e+12", "human_length": "1", "nodes_expanded": "999", "instance": "prb46639", "end_time": "1.51673456018e+12", "optimal_length": "16", "subject": "A3LRSX7ECYPSF4"}
{"rt": "0.0", "trial_number": "12", "skipped": "False", "complete": "False", "assignment": "3WSELTNVR4AZUVYAYCSWZIQW0J4ATB", "start_time": "1.51673460637e+12", "human_length": "1", "nodes_expanded": "999", "instance": "prb46639", "end_time": "1.51673460637e+12", "optimal_length": "16", "subject": "A3LRSX7ECYPSF4"}
{"rt": "0.0", "trial_number": "13", "skipped": "False", "complete": "False", "assignment": "3WSELTNVR4AZUVYAYCSWZIQW0J4ATB", "start_time": "1.51673464905e+12", "human_length": "1", "nodes_expanded": "999", "instance": "prb46639", "end_time": "1.51673464905e+12", "optimal_length": "16", "subject": "A3LRSX7ECYPSF4"}
{"rt": "0.0", "trial_number": "14", "skipped": "False", "complete": "False", "assignment": "3WSELTNVR4AZUVYAYCSWZIQW0J4ATB", "start_time": "1.5167347158e+12", "human_length": "1", "nodes_expanded": "999", "instance": "prb46639", "end_time": "1.5167347158e+12", "optimal_length": "16", "subject": "A3LRSX7ECYPSF4"}
{"rt": "0.0", "trial_number": "15", "skipped": "False", "complete": "False", "assignment": "3WSELTNVR4AZUVYAYCSWZIQW0J4ATB", "start_time": "1.51673480115e+12", "human_length": "1", "nodes_expanded": "999", "instance": "prb46639", "end_time": "1.51673480115e+12", "optimal_length": "16", "subject": "A3LRSX7ECYPSF4"}
{"rt": "0.0", "trial_number": "16", "skipped": "False", "complete": "False", "assignment": "3WSELTNVR4AZUVYAYCSWZIQW0J4ATB", "start_time": "1.51673488224e+12", "human_length": "1", "nodes_expanded": "999", "instance": "prb46639", "end_time": "1.51673488224e+12", "optimal_length": "16", "subject": "A3LRSX7ECYPSF4"}
{"rt": "0.0", "trial_number": "17", "skipped": "False", "complete": "False", "assignment": "3WSELTNVR4AZUVYAYCSWZIQW0J4ATB", "start_time": "1.51673504742e+12", "human_length": "1", "nodes_expanded": "999", "instance": "prb46639", "end_time": "1.51673504742e+12", "optimal_length": "16", "subject": "A3LRSX7ECYPSF4"}
{"rt": "0.0", "trial_number": "18", "skipped": "False", "complete": "False", "assignment": "3WSELTNVR4AZUVYAYCSWZIQW0J4ATB", "start_time": "1.51673435534e+12", "human_length": "1", "nodes_expanded": "999", "instance": "prb46639", "end_time": "1.51673435534e+12", "optimal_length": "16", "subject": "A3LRSX7ECYPSF4"}
{"rt": "0.0", "trial_number": "19", "skipped": "False", "complete": "False", "assignment": "3WSELTNVR4AZUVYAYCSWZIQW0J4ATB", "start_time": "1.51673445786e+12", "human_length": "1", "nodes_expanded": "999", "instance": "prb46639", "end_time": "1.51673445786e+12", "optimal_length": "16", "subject": "A3LRSX7ECYPSF4"}
{"rt": "0.0", "trial_number": "20", "skipped": "False", "complete": "False", "assignment": "3WSELTNVR4AZUVYAYCSWZIQW0J4ATB", "start_time": "1.51673456018e+12", "human_length": "1", "nodes_expanded": "999", "instance": "prb46639", "end_time": "1.51673456018e+12", "optimal_length": "16", "subject": "A3LRSX7ECYPSF4"}
{"rt": "0.0", "trial_number": "21", "skipped": "False", "complete": "False", "assignment": "3WSELTNVR4AZUVYAYCSWZIQW0J4ATB", "start_time": "1.51673460637e+12", "human_length": "1", "nodes_expanded": "999", "instance": "prb46639", "end_time": "1.51673460637e+12", "optimal_length": "16", "subject": "A3LRSX7ECYPSF4"}
{"rt": "0.0", "trial_number": "22", "skipped": "False", "complete": "False", "assignment": "3WSELTNVR4AZUVYAYCSWZIQW0J4ATB", "start_time": "1.51673464905e+12", "human_length": "1", "nodes_expanded": "999", "instance": "prb46639", "end_time": "1.51673464905e+12", "optimal_length": "16", "subject": "A3LRSX7ECYPSF4"}
{"rt": "0.0", "trial_number": "23", "skipped": "False", "complete": "False", "assignment": "3WSELTNVR4AZUVYAYCSWZIQW0J4ATB", "start_time": "1.5167347158e+12", "human_length": "1", "nodes_expanded": "999", "instance": "prb46639", "end_time": "1.5167347158e+12", "optimal_length": "16", "subject": "A3LRSX7ECYPSF4"}
{"rt": "0.0", "trial_number": "24", "skipped": "False", "complete": "False", "assignment": "3WSELTNVR4AZUVYAYCSWZIQW0J4ATB", "start_time": "1.51673480115e+12", "human_length": "1", "nodes_expanded": "999", "instance": "prb46639", "end_time": "1.51673480115e+12", "optimal_length": "16", "subject": "A3LRSX7ECYPSF4"}
{"rt": "0.0", "trial_number": "25", "skipped": "False", "complete": "False", "assignment": "3WSELTNVR4AZUVYAYCSWZIQW0J4ATB", "start_time": "1.51673488224e+12", "human_length": "1", "nodes_expanded": "999", "instance": "prb46639", "end_time": "1.51673488224e+12", "optimal_length": "16", "subject": "A3LRSX7ECYPSF4"}
{"rt": "41076.0", "trial_number": "26", "skipped": "True", "complete": "False", "assignment": "3WSELTNVR4AZUVYAYCSWZIQW0J4ATB", "start_time": "1.51673504742e+12", "human_length": "387", "nodes_expanded": "999", "instance": "prb46639", "end_time": "1.51673508849e+12", "optimal_length": "16", "subject": "A3LRSX7ECYPSF4"}
{"rt": "0.0", "trial_number": "0", "skipped": "False", "complete": "False", "assignment": "3VE8AYVF8N5BS2NU6U3TMN50JMNF8V", "start_time": "1.51673705446e+12", "human_length": "1", "nodes_expanded": "999", "instance": "prb46639", "end_time": "1.51673705446e+12", "optimal_length": "16", "subject": "A18QU0YQB6Q8DF"}
{"rt": "0.0", "trial_number": "1", "skipped": "False", "complete": "False", "assignment": "3VE8AYVF8N5BS2NU6U3TMN50JMNF8V", "start_time": "1.51673705446e+12", "human_length": "1", "nodes_expanded": "999", "instance": "prb46639", "end_time": "1.51673705446e+12", "optimal_length": "16", "subject": "A18QU0YQB6Q8DF"}
{"rt": "56312.0", "trial_number": "2", "skipped": "True", "complete": "False", "assignment": "3VE8AYVF8N5BS2NU6U3TMN50JMNF8V", "start_time": "1.51673705446e+12", "human_length": "62", "nodes_expanded": "999", "instance": "prb46639", "end_time": "1.51673711078e+12", "optimal_length": "16", "subject": "A18QU0YQB6Q8DF"}
{"rt": "89669.0", "trial_number": "0", "skipped": "False", "complete": "False", "assignment": "3X87C8JFV7JQ2BSCY8KSFD9F2ILSQK", "start_time": "1.51673973133e+12", "human_length": "30", "nodes_expanded": "999", "instance": "prb46639", "end_time": "1.516739821e+12", "optimal_length": "16", "subject": "A3Q0XAGQ7TD7MP"}
{"rt": "0.0", "trial_number": "1", "skipped": "False", "complete": "False", "assignment": "3X87C8JFV7JQ2BSCY8KSFD9F2ILSQK", "start_time": "1.5167398228e+12", "human_length": "1", "nodes_expanded": "999", "instance": "prb46639", "end_time": "1.5167398228e+12", "optimal_length": "16", "subject": "A3Q0XAGQ7TD7MP"}
{"rt": "0.0", "trial_number": "2", "skipped": "False", "complete": "False", "assignment": "3X87C8JFV7JQ2BSCY8KSFD9F2ILSQK", "start_time": "1.51673973133e+12", "human_length": "1", "nodes_expanded": "999", "instance": "prb46639", "end_time": "1.51673973133e+12", "optimal_length": "16", "subject": "A3Q0XAGQ7TD7MP"}
{"rt": "0.0", "trial_number": "3", "skipped": "False", "complete": "False", "assignment": "3X87C8JFV7JQ2BSCY8KSFD9F2ILSQK", "start_time": "1.5167398228e+12", "human_length": "1", "nodes_expanded": "999", "instance": "prb46639", "end_time": "1.5167398228e+12", "optimal_length": "16", "subject": "A3Q0XAGQ7TD7MP"}
{"rt": "0.0", "trial_number": "4", "skipped": "False", "complete": "False", "assignment": "3X87C8JFV7JQ2BSCY8KSFD9F2ILSQK", "start_time": "1.51673973133e+12", "human_length": "1", "nodes_expanded": "999", "instance": "prb46639", "end_time": "1.51673973133e+12", "optimal_length": "16", "subject": "A3Q0XAGQ7TD7MP"}
{"rt": "62164.0", "trial_number": "5", "skipped": "False", "complete": "False", "assignment": "3X87C8JFV7JQ2BSCY8KSFD9F2ILSQK", "start_time": "1.5167398228e+12", "human_length": "127", "nodes_expanded": "999", "instance": "prb46639", "end_time": "1.51673988496e+12", "optimal_length": "16", "subject": "A3Q0XAGQ7TD7MP"}
{"rt": "69855.0", "trial_number": "6", "skipped": "True", "complete": "False", "assignment": "3GLB5JMZFY3TNXFGYMKRQ0JDXNTDGZ", "start_time": "1.51794546709e+12", "human_length": "30", "nodes_expanded": "999", "instance": "prb46639", "end_time": "1.51794553694e+12", "optimal_length": "16", "subject": "A3Q0XAGQ7TD7MP"}
{"rt": "17310.0", "trial_number": "0", "skipped": "False", "complete": "False", "assignment": "3WSELTNVR4AZUVYAYCSWZIQW0J4ATB", "start_time": "1.51673890009e+12", "human_length": "10", "nodes_expanded": "999", "instance": "prb46639", "end_time": "1.5167389174e+12", "optimal_length": "16", "subject": "A2TQNX64349OZ9"}
{"rt": "0.0", "trial_number": "1", "skipped": "False", "complete": "False", "assignment": "3WSELTNVR4AZUVYAYCSWZIQW0J4ATB", "start_time": "1.51673891826e+12", "human_length": "1", "nodes_expanded": "999", "instance": "prb46639", "end_time": "1.51673891826e+12", "optimal_length": "16", "subject": "A2TQNX64349OZ9"}
{"rt": "0.0", "trial_number": "2", "skipped": "False", "complete": "False", "assignment": "3WSELTNVR4AZUVYAYCSWZIQW0J4ATB", "start_time": "1.51673890009e+12", "human_length": "1", "nodes_expanded": "999", "instance": "prb46639", "end_time": "1.51673890009e+12", "optimal_length": "16", "subject": "A2TQNX64349OZ9"}
{"rt": "0.0", "trial_number": "3", "skipped": "False", "complete": "False", "assignment": "3WSELTNVR4AZUVYAYCSWZIQW0J4ATB", "start_time": "1.51673891826e+12", "human_length": "1", "nodes_expanded": "999", "instance": "prb46639", "end_time": "1.51673891826e+12", "optimal_length": "16", "subject": "A2TQNX64349OZ9"}
{"rt": "0.0", "trial_number": "4", "skipped": "False", "complete": "False", "assignment": "3WSELTNVR4AZUVYAYCSWZIQW0J4ATB", "start_time": "1.51673890009e+12", "human_length": "1", "nodes_expanded": "999", "instance": "prb46639", "end_time": "1.51673890009e+12", "optimal_length": "16", "subject": "A2TQNX64349OZ9"}
{"rt": "45594.0", "trial_number": "5", "skipped": "True", "complete": "False", "assignment": "3WSELTNVR4AZUVYAYCSWZIQW0J4ATB", "start_time": "1.51673891826e+12", "human_length": "110", "nodes_expanded": "999", "instance": "prb46639", "end_time": "1.51673896385e+12", "optimal_length": "16", "subject": "A2TQNX64349OZ9"}
{"rt": "214567.0", "trial_number": "0", "skipped": "False", "complete": "True", "assignment": "3V5Q80FXIYZ5QB5C6ITQBN30WY823U", "start_time": "1.51753377062e+12", "human_length": "112", "nodes_expanded": "999", "instance": "prb46639", "end_time": "1.51753398518e+12", "optimal_length": "16", "subject": "A3NMQ3019X6YE0"}
{"rt": "0.0", "trial_number": "0", "skipped": "False", "complete": "False", "assignment": "3IHR8NYAM89M0EPM8U9LH53ZJDTP4U", "start_time": "1.51682536121e+12", "human_length": "1", "nodes_expanded": "999", "instance": "prb46639", "end_time": "1.51682536121e+12", "optimal_length": "16", "subject": "A23437BMZ5T1FH"}
{"rt": "22150.0", "trial_number": "1", "skipped": "False", "complete": "True", "assignment": "3IHR8NYAM89M0EPM8U9LH53ZJDTP4U", "start_time": "1.51682536121e+12", "human_length": "24", "nodes_expanded": "999", "instance": "prb46639", "end_time": "1.51682538336e+12", "optimal_length": "16", "subject": "A23437BMZ5T1FH"}
{"rt": "47512.0", "trial_number": "0", "skipped": "False", "complete": "True", "assignment": "3YW4XOSQKRTI0K0Z2YPDTDJVFABU1I", "start_time": "1.5168329562e+12", "human_length": "37", "nodes_expanded": "999", "instance": "prb46639", "end_time": "1.51683300371e+12", "optimal_length": "16", "subject": "A1LR0VQIHQUJAM"}
{"rt": "99764.0", "trial_number": "0", "skipped": "False", "complete": "False", "assignment": "3WSELTNVR4AZUVYAYCSWZIQW0J4ATB", "start_time": "1.51673435534e+12", "human_length": "33", "nodes_expanded": "999", "instance": "prb46639", "end_time": "1.5167344551e+12", "optimal_length": "16", "subject": "A3LRSX7ECYPSF4"}
{"rt": "95731.0", "trial_number": "1", "skipped": "False", "complete": "False", "assignment": "3WSELTNVR4AZUVYAYCSWZIQW0J4ATB", "start_time": "1.51673445786e+12", "human_length": "25", "nodes_expanded": "999", "instance": "prb46639", "end_time": "1.51673455359e+12", "optimal_length": "16", "subject": "A3LRSX7ECYPSF4"}
{"rt": "29240.0", "trial_number": "2", "skipped": "False", "complete": "False", "assignment": "3WSELTNVR4AZUVYAYCSWZIQW0J4ATB", "start_time": "1.51673456018e+12", "human_length": "10", "nodes_expanded": "999", "instance": "prb46639", "end_time": "1.51673458942e+12", "optimal_length": "16", "subject": "A3LRSX7ECYPSF4"}
{"rt": "35741.0", "trial_number": "3", "skipped": "False", "complete": "False", "assignment": "3WSELTNVR4AZUVYAYCSWZIQW0J4ATB", "start_time": "1.51673460637e+12", "human_length": "6", "nodes_expanded": "999", "instance": "prb46639", "end_time": "1.51673464211e+12", "optimal_length": "16", "subject": "A3LRSX7ECYPSF4"}
{"rt": "64413.0", "trial_number": "4", "skipped": "False", "complete": "False", "assignment": "3WSELTNVR4AZUVYAYCSWZIQW0J4ATB", "start_time": "1.51673464905e+12", "human_length": "26", "nodes_expanded": "999", "instance": "prb46639", "end_time": "1.51673471347e+12", "optimal_length": "16", "subject": "A3LRSX7ECYPSF4"}
{"rt": "82563.0", "trial_number": "5", "skipped": "False", "complete": "False", "assignment": "3WSELTNVR4AZUVYAYCSWZIQW0J4ATB", "start_time": "1.5167347158e+12", "human_length": "16", "nodes_expanded": "999", "instance": "prb46639", "end_time": "1.51673479837e+12", "optimal_length": "16", "subject": "A3LRSX7ECYPSF4"}
{"rt": "79938.0", "trial_number": "6", "skipped": "False", "complete": "False", "assignment": "3WSELTNVR4AZUVYAYCSWZIQW0J4ATB", "start_time": "1.51673480115e+12", "human_length": "29", "nodes_expanded": "999", "instance": "prb46639", "end_time": "1.51673488109e+12", "optimal_length": "16", "subject": "A3LRSX7ECYPSF4"}
{"rt": "162271.0", "trial_number": "7", "skipped": "False", "complete": "False", "assignment": "3WSELTNVR4AZUVYAYCSWZIQW0J4ATB", "start_time": "1.51673488224e+12", "human_length": "49", "nodes_expanded": "999", "instance": "prb46639", "end_time": "1.51673504451e+12", "optimal_length": "16", "subject": "A3LRSX7ECYPSF4"}
{"rt": "41076.0", "trial_number": "8", "skipped": "True", "complete": "False", "assignment": "3WSELTNVR4AZUVYAYCSWZIQW0J4ATB", "start_time": "1.51673504742e+12", "human_length": "15", "nodes_expanded": "999", "instance": "prb46639", "end_time": "1.51673508849e+12", "optimal_length": "16", "subject": "A3LRSX7ECYPSF4"}
{"rt": "56312.0", "trial_number": "0", "skipped": "True", "complete": "False", "assignment": "3VE8AYVF8N5BS2NU6U3TMN50JMNF8V", "start_time": "1.51673705446e+12", "human_length": "24", "nodes_expanded": "999", "instance": "prb46639", "end_time": "1.51673711078e+12", "optimal_length": "16", "subject": "A18QU0YQB6Q8DF"}
{"rt": "89669.0", "trial_number": "0", "skipped": "False", "complete": "False", "assignment": "3X87C8JFV7JQ2BSCY8KSFD9F2ILSQK", "start_time": "1.51673973133e+12", "human_length": "30", "nodes_expanded": "999", "instance": "prb46639", "end_time": "1.516739821e+12", "optimal_length": "16", "subject": "A3Q0XAGQ7TD7MP"}
{"rt": "62164.0", "trial_number": "1", "skipped": "False", "complete": "False", "assignment": "3X87C8JFV7JQ2BSCY8KSFD9F2ILSQK", "start_time": "1.5167398228e+12", "human_length": "25", "nodes_expanded": "999", "instance": "prb46639", "end_time": "1.51673988496e+12", "optimal_length": "16", "subject": "A3Q0XAGQ7TD7MP"}
{"rt": "69855.0", "trial_number": "2", "skipped": "True", "complete": "False", "assignment": "3GLB5JMZFY3TNXFGYMKRQ0JDXNTDGZ", "start_time": "1.51794546709e+12", "human_length": "30", "nodes_expanded": "999", "instance": "prb46639", "end_time": "1.51794553694e+12", "optimal_length": "16", "subject": "A3Q0XAGQ7TD7MP"}
{"rt": "17310.0", "trial_number": "0", "skipped": "False", "complete": "False", "assignment": "3WSELTNVR4AZUVYAYCSWZIQW0J4ATB", "start_time": "1.51673890009e+12", "human_length": "10", "nodes_expanded": "999", "instance": "prb46639", "end_time": "1.5167389174e+12", "optimal_length": "16", "subject": "A2TQNX64349OZ9"}
{"rt": "45594.0", "trial_number": "1", "skipped": "True", "complete": "False", "assignment": "3WSELTNVR4AZUVYAYCSWZIQW0J4ATB", "start_time": "1.51673891826e+12", "human_length": "35", "nodes_expanded": "999", "instance": "prb46639", "end_time": "1.51673896385e+12", "optimal_length": "16", "subject": "A2TQNX64349OZ9"}
{"rt": "214567.0", "trial_number": "0", "skipped": "False", "complete": "True", "assignment": "3V5Q80FXIYZ5QB5C6ITQBN30WY823U", "start_time": "1.51753377062e+12", "human_length": "112", "nodes_expanded": "999", "instance": "prb46639", "end_time": "1.51753398518e+12", "optimal_length": "16", "subject": "A3NMQ3019X6YE0"}
{"rt": "44482.0", "trial_number": "0", "skipped": "False", "complete": "True", "assignment": "3TS1AR6UQRM7SOIBWPBN8N9589Y7FV", "start_time": "1.51684030891e+12", "human_length": "40", "nodes_expanded": "999", "instance": "prb46639", "end_time": "1.51684035339e+12", "optimal_length": "16", "subject": "A1F4N58CAX8IMK"}
{"rt": "52091.0", "trial_number": "1", "skipped": "False", "complete": "True", "assignment": "35DR22AR5ES6RR89U7EJ1DXW91AX3P", "start_time": "1.51795325735e+12", "human_length": "48", "nodes_expanded": "999", "instance": "prb46639", "end_time": "1.51795330944e+12", "optimal_length": "16", "subject": "A1F4N58CAX8IMK"}
{"rt": "80815.0", "trial_number": "0", "skipped": "False", "complete": "True", "assignment": "3M0BCWMB8W4W5M7WZVX3HDH1M3FBWL", "start_time": "1.51683925307e+12", "human_length": "41", "nodes_expanded": "999", "instance": "prb46639", "end_time": "1.51683933389e+12", "optimal_length": "16", "subject": "A1XDMS0KFSF5JW"}
{"rt": "55261.0", "trial_number": "0", "skipped": "False", "complete": "False", "assignment": "3TS1AR6UQRM7SOIBWPBN8N9589Y7FV", "start_time": "1.51684266457e+12", "human_length": "36", "nodes_expanded": "999", "instance": "prb46639", "end_time": "1.51684271984e+12", "optimal_length": "16", "subject": "A15FXHC1CVNW31"}
{"rt": "148327.0", "trial_number": "1", "skipped": "False", "complete": "True", "assignment": "3TS1AR6UQRM7SOIBWPBN8N9589Y7FV", "start_time": "1.51684272197e+12", "human_length": "47", "nodes_expanded": "999", "instance": "prb46639", "end_time": "1.51684287029e+12", "optimal_length": "16", "subject": "A15FXHC1CVNW31"}
{"rt": "36750.0", "trial_number": "0", "skipped": "True", "complete": "False", "assignment": "31LM9EDVOM0C0BWUVMJXJINN3QPJNI", "start_time": "1.51752257411e+12", "human_length": "20", "nodes_expanded": "999", "instance": "prb46639", "end_time": "1.51752261086e+12", "optimal_length": "16", "subject": "A1NT8BT94ME6F5"}
{"rt": "149510.0", "trial_number": "0", "skipped": "False", "complete": "True", "assignment": "37TD41K0AIHM8AITTQJXV8KY05QCSB", "start_time": "1.51752661434e+12", "human_length": "90", "nodes_expanded": "999", "instance": "prb46639", "end_time": "1.51752676386e+12", "optimal_length": "16", "subject": "A30KYQGABO7JER"}
{"rt": "61917.0", "trial_number": "0", "skipped": "False", "complete": "False", "assignment": "36H9ULYP6320CJJDXY0KBDEE1Z3JFB", "start_time": "1.51753327703e+12", "human_length": "28", "nodes_expanded": "999", "instance": "prb46639", "end_time": "1.51753333895e+12", "optimal_length": "16", "subject": "AN098C29EGJ6"}
{"rt": "62867.0", "trial_number": "1", "skipped": "True", "complete": "False", "assignment": "36H9ULYP6320CJJDXY0KBDEE1Z3JFB", "start_time": "1.51753336741e+12", "human_length": "25", "nodes_expanded": "999", "instance": "prb46639", "end_time": "1.51753343027e+12", "optimal_length": "16", "subject": "AN098C29EGJ6"}
{"rt": "13335.0", "trial_number": "0", "skipped": "True", "complete": "False", "assignment": "3TYCR1GOTDRCCQYD1V64UK7OHTBZLQ", "start_time": "1.5175374886e+12", "human_length": "9", "nodes_expanded": "999", "instance": "prb46639", "end_time": "1.51753750194e+12", "optimal_length": "16", "subject": "A13BZCNJ0WR1T7"}
{"rt": "39184.0", "trial_number": "0", "skipped": "False", "complete": "False", "assignment": "3H0W84IWBLAP4T2UASPNVMF5ZH7ER9", "start_time": "1.51755370747e+12", "human_length": "30", "nodes_expanded": "999", "instance": "prb46639", "end_time": "1.51755374666e+12", "optimal_length": "16", "subject": "A1AKX1C8GCVCTP"}
{"rt": "69516.0", "trial_number": "1", "skipped": "True", "complete": "False", "assignment": "3H0W84IWBLAP4T2UASPNVMF5ZH7ER9", "start_time": "1.51755375977e+12", "human_length": "9", "nodes_expanded": "999", "instance": "prb46639", "end_time": "1.51755382928e+12", "optimal_length": "16", "subject": "A1AKX1C8GCVCTP"}
{"rt": "59974.0", "trial_number": "0", "skipped": "False", "complete": "False", "assignment": "3TPWUS5F8A9FFRZ2DVTYSXNJ6BWWC6", "start_time": "1.51794127702e+12", "human_length": "39", "nodes_expanded": "999", "instance": "prb46639", "end_time": "1.517941337e+12", "optimal_length": "16", "subject": "A3GXC3VG37CQ3G"}
{"rt": "78512.0", "trial_number": "1", "skipped": "False", "complete": "False", "assignment": "3TPWUS5F8A9FFRZ2DVTYSXNJ6BWWC6", "start_time": "1.51794135485e+12", "human_length": "45", "nodes_expanded": "999", "instance": "prb46639", "end_time": "1.51794143336e+12", "optimal_length": "16", "subject": "A3GXC3VG37CQ3G"}
{"rt": "36549.0", "trial_number": "2", "skipped": "False", "complete": "True", "assignment": "3TPWUS5F8A9FFRZ2DVTYSXNJ6BWWC6", "start_time": "1.51794145004e+12", "human_length": "22", "nodes_expanded": "999", "instance": "prb46639", "end_time": "1.51794148659e+12", "optimal_length": "16", "subject": "A3GXC3VG37CQ3G"}
{"rt": "31015.0", "trial_number": "0", "skipped": "False", "complete": "False", "assignment": "34HJIJKLP64Z5YMIU6IKNXSH7PDV4I", "start_time": "1.51794198742e+12", "human_length": "12", "nodes_expanded": "999", "instance": "prb46639", "end_time": "1.51794201844e+12", "optimal_length": "16", "subject": "A3CTXNQ2GXIQSP"}
{"rt": "117403.0", "trial_number": "1", "skipped": "False", "complete": "True", "assignment": "34HJIJKLP64Z5YMIU6IKNXSH7PDV4I", "start_time": "1.51794203152e+12", "human_length": "62", "nodes_expanded": "999", "instance": "prb46639", "end_time": "1.51794214892e+12", "optimal_length": "16", "subject": "A3CTXNQ2GXIQSP"}
{"rt": "65631.0", "trial_number": "0", "skipped": "False", "complete": "False", "assignment": "3U84XHCDIDLGEIRSV37N835DV0K4ZS", "start_time": "1.51794011746e+12", "human_length": "18", "nodes_expanded": "999", "instance": "prb46639", "end_time": "1.51794018309e+12", "optimal_length": "16", "subject": "A8KX1HFH8NE2Q"}
{"rt": "34892.0", "trial_number": "1", "skipped": "True", "complete": "False", "assignment": "3U84XHCDIDLGEIRSV37N835DV0K4ZS", "start_time": "1.51794019424e+12", "human_length": "10", "nodes_expanded": "999", "instance": "prb46639", "end_time": "1.51794022913e+12", "optimal_length": "16", "subject": "A8KX1HFH8NE2Q"}
{"rt": "415638.0", "trial_number": "0", "skipped": "False", "complete": "True", "assignment": "3TXD01ZLD5PZSJXIPG8FRBQYTI9U4X", "start_time": "1.51794284796e+12", "human_length": "155", "nodes_expanded": "999", "instance": "prb46639", "end_time": "1.5179432636e+12", "optimal_length": "16", "subject": "A3BPRPN10HJD4B"}
{"rt": "107130.0", "trial_number": "0", "skipped": "True", "complete": "False", "assignment": "3IAS3U3I0GOAT69PLB8WT61CKJ22BO", "start_time": "1.51794213075e+12", "human_length": "54", "nodes_expanded": "999", "instance": "prb46639", "end_time": "1.51794223788e+12", "optimal_length": "16", "subject": "ATSZCAVI441RM"}
{"rt": "14717.0", "trial_number": "0", "skipped": "False", "complete": "False", "assignment": "30IQTZXKALEAAZ9CBKW0ZFZP6O5X07", "start_time": "1.51794470193e+12", "human_length": "8", "nodes_expanded": "999", "instance": "prb46639", "end_time": "1.51794471665e+12", "optimal_length": "16", "subject": "A23XJ8I86R0O3B"}
{"rt": "18503.0", "trial_number": "1", "skipped": "False", "complete": "False", "assignment": "30IQTZXKALEAAZ9CBKW0ZFZP6O5X07", "start_time": "1.51794472179e+12", "human_length": "10", "nodes_expanded": "999", "instance": "prb46639", "end_time": "1.5179447403e+12", "optimal_length": "16", "subject": "A23XJ8I86R0O3B"}
{"rt": "35788.0", "trial_number": "2", "skipped": "False", "complete": "False", "assignment": "30IQTZXKALEAAZ9CBKW0ZFZP6O5X07", "start_time": "1.51794475396e+12", "human_length": "16", "nodes_expanded": "999", "instance": "prb46639", "end_time": "1.51794478975e+12", "optimal_length": "16", "subject": "A23XJ8I86R0O3B"}
{"rt": "128479.0", "trial_number": "3", "skipped": "False", "complete": "True", "assignment": "30IQTZXKALEAAZ9CBKW0ZFZP6O5X07", "start_time": "1.51794479332e+12", "human_length": "57", "nodes_expanded": "999", "instance": "prb46639", "end_time": "1.5179449218e+12", "optimal_length": "16", "subject": "A23XJ8I86R0O3B"}
{"rt": "15450.0", "trial_number": "0", "skipped": "False", "complete": "False", "assignment": "3STRJBFXOXZ5687WA35LTWTS7QZKTT", "start_time": "1.51794401869e+12", "human_length": "9", "nodes_expanded": "999", "instance": "prb46639", "end_time": "1.51794403414e+12", "optimal_length": "16", "subject": "A3OB6REG5CGHK1"}
{"rt": "24469.0", "trial_number": "1", "skipped": "False", "complete": "False", "assignment": "3STRJBFXOXZ5687WA35LTWTS7QZKTT", "start_time": "1.51794403578e+12", "human_length": "5", "nodes_expanded": "999", "instance": "prb46639", "end_time": "1.51794406025e+12", "optimal_length": "16", "subject": "A3OB6REG5CGHK1"}
{"rt": "27691.0", "trial_number": "2", "skipped": "False", "complete": "False", "assignment": "3STRJBFXOXZ5687WA35LTWTS7QZKTT", "start_time": "1.51794406958e+12", "human_length": "12", "nodes_expanded": "999", "instance": "prb46639", "end_time": "1.51794409727e+12", "optimal_length": "16", "subject": "A3OB6REG5CGHK1"}
{"rt": "7357.0", "trial_number": "3", "skipped": "False", "complete": "False", "assignment": "3STRJBFXOXZ5687WA35LTWTS7QZKTT", "start_time": "1.5179440998e+12", "human_length": "4", "nodes_expanded": "999", "instance": "prb46639", "end_time": "1.51794410716e+12", "optimal_length": "16", "subject": "A3OB6REG5CGHK1"}
{"rt": "27047.0", "trial_number": "4", "skipped": "False", "complete": "False", "assignment": "3STRJBFXOXZ5687WA35LTWTS7QZKTT", "start_time": "1.5179441096e+12", "human_length": "17", "nodes_expanded": "999", "instance": "prb46639", "end_time": "1.51794413664e+12", "optimal_length": "16", "subject": "A3OB6REG5CGHK1"}
{"rt": "21070.0", "trial_number": "5", "skipped": "False", "complete": "False", "assignment": "3STRJBFXOXZ5687WA35LTWTS7QZKTT", "start_time": "1.51794413932e+12", "human_length": "4", "nodes_expanded": "999", "instance": "prb46639", "end_time": "1.51794416039e+12", "optimal_length": "16", "subject": "A3OB6REG5CGHK1"}
{"rt": "29018.0", "trial_number": "6", "skipped": "False", "complete": "False", "assignment": "3STRJBFXOXZ5687WA35LTWTS7QZKTT", "start_time": "1.51794416185e+12", "human_length": "11", "nodes_expanded": "999", "instance": "prb46639", "end_time": "1.51794419087e+12", "optimal_length": "16", "subject": "A3OB6REG5CGHK1"}
{"rt": "0.0", "trial_number": "7", "skipped": "False", "complete": "False", "assignment": "3STRJBFXOXZ5687WA35LTWTS7QZKTT", "start_time": "1.51794419484e+12", "human_length": "1", "nodes_expanded": "999", "instance": "prb46639", "end_time": "1.51794419484e+12", "optimal_length": "16", "subject": "A3OB6REG5CGHK1"}
{"rt": "4639.0", "trial_number": "8", "skipped": "False", "complete": "False", "assignment": "3STRJBFXOXZ5687WA35LTWTS7QZKTT", "start_time": "1.51794419485e+12", "human_length": "3", "nodes_expanded": "999", "instance": "prb46639", "end_time": "1.51794419949e+12", "optimal_length": "16", "subject": "A3OB6REG5CGHK1"}
{"rt": "10140.0", "trial_number": "9", "skipped": "False", "complete": "False", "assignment": "3STRJBFXOXZ5687WA35LTWTS7QZKTT", "start_time": "1.51794420281e+12", "human_length": "8", "nodes_expanded": "999", "instance": "prb46639", "end_time": "1.51794421295e+12", "optimal_length": "16", "subject": "A3OB6REG5CGHK1"}
{"rt": "43745.0", "trial_number": "10", "skipped": "False", "complete": "False", "assignment": "3STRJBFXOXZ5687WA35LTWTS7QZKTT", "start_time": "1.51794421722e+12", "human_length": "7", "nodes_expanded": "999", "instance": "prb46639", "end_time": "1.51794426096e+12", "optimal_length": "16", "subject": "A3OB6REG5CGHK1"}
{"rt": "4493.0", "trial_number": "11", "skipped": "False", "complete": "False", "assignment": "3STRJBFXOXZ5687WA35LTWTS7QZKTT", "start_time": "1.51794426668e+12", "human_length": "5", "nodes_expanded": "999", "instance": "prb46639", "end_time": "1.51794427118e+12", "optimal_length": "16", "subject": "A3OB6REG5CGHK1"}
{"rt": "28586.0", "trial_number": "12", "skipped": "False", "complete": "False", "assignment": "3STRJBFXOXZ5687WA35LTWTS7QZKTT", "start_time": "1.51794428274e+12", "human_length": "15", "nodes_expanded": "999", "instance": "prb46639", "end_time": "1.51794431132e+12", "optimal_length": "16", "subject": "A3OB6REG5CGHK1"}
{"rt": "58047.0", "trial_number": "13", "skipped": "True", "complete": "False", "assignment": "3STRJBFXOXZ5687WA35LTWTS7QZKTT", "start_time": "1.51794431273e+12", "human_length": "10", "nodes_expanded": "999", "instance": "prb46639", "end_time": "1.51794437078e+12", "optimal_length": "16", "subject": "A3OB6REG5CGHK1"}
{"rt": "23796.0", "trial_number": "0", "skipped": "False", "complete": "False", "assignment": "33PPO7FECWN7JOLBOAKUBCWTC0AIDL", "start_time": "1.51794865735e+12", "human_length": "4", "nodes_expanded": "999", "instance": "prb46639", "end_time": "1.51794868115e+12", "optimal_length": "16", "subject": "AXKM02NVXNGOM"}
{"rt": "80227.0", "trial_number": "1", "skipped": "False", "complete": "False", "assignment": "33PPO7FECWN7JOLBOAKUBCWTC0AIDL", "start_time": "1.51794869491e+12", "human_length": "28", "nodes_expanded": "999", "instance": "prb46639", "end_time": "1.51794877513e+12", "optimal_length": "16", "subject": "AXKM02NVXNGOM"}
{"rt": "0.0", "trial_number": "2", "skipped": "False", "complete": "False", "assignment": "33PPO7FECWN7JOLBOAKUBCWTC0AIDL", "start_time": "1.51794877968e+12", "human_length": "1", "nodes_expanded": "999", "instance": "prb46639", "end_time": "1.51794877968e+12", "optimal_length": "16", "subject": "AXKM02NVXNGOM"}
{"rt": "97101.0", "trial_number": "3", "skipped": "False", "complete": "True", "assignment": "33PPO7FECWN7JOLBOAKUBCWTC0AIDL", "start_time": "1.51794877996e+12", "human_length": "33", "nodes_expanded": "999", "instance": "prb46639", "end_time": "1.51794887707e+12", "optimal_length": "16", "subject": "AXKM02NVXNGOM"}
{"rt": "184747.0", "trial_number": "0", "skipped": "False", "complete": "True", "assignment": "3PB5A5BD0WED6OE679H5Q89HBDGG71", "start_time": "1.51795375217e+12", "human_length": "75", "nodes_expanded": "999", "instance": "prb46639", "end_time": "1.51795393692e+12", "optimal_length": "16", "subject": "A1USR9JCAMDGM3"}
{"rt": "48237.0", "trial_number": "0", "skipped": "False", "complete": "True", "assignment": "3R5F3LQFV3SKIB1AENMWM1BICT5OZB", "start_time": "1.51795768903e+12", "human_length": "35", "nodes_expanded": "999", "instance": "prb46639", "end_time": "1.51795773727e+12", "optimal_length": "16", "subject": "A1N1EF0MIRSEZZ"}
{"rt": "35528.0", "trial_number": "0", "skipped": "False", "complete": "True", "assignment": "33F859I567LE8WC74WB3GA7E94XBHW", "start_time": "1.51796900145e+12", "human_length": "23", "nodes_expanded": "999", "instance": "prb46639", "end_time": "1.51796903698e+12", "optimal_length": "16", "subject": "A1GQS6USF2JEYG"}
{"rt": "86379.0", "trial_number": "0", "skipped": "False", "complete": "True", "assignment": "3IJXV6UZ1YR1KY4G6BFEG1DXR47RIC", "start_time": "1.5179718124e+12", "human_length": "74", "nodes_expanded": "999", "instance": "prb46639", "end_time": "1.51797189878e+12", "optimal_length": "16", "subject": "A18T3WK7J16C1B"}
{"rt": "34382.0", "trial_number": "0", "skipped": "False", "complete": "True", "assignment": "3FTF2T8WLSQDHTSZ1BJ7Q7MB14SW9H", "start_time": "1.51813634531e+12", "human_length": "24", "nodes_expanded": "999", "instance": "prb46639", "end_time": "1.51813637969e+12", "optimal_length": "16", "subject": "A1IUH9D7N69VS"}
{"rt": "96307.0", "trial_number": "0", "skipped": "False", "complete": "True", "assignment": "3XC1O3LBOTUGQEPEV3HM8W67X4RTLL", "start_time": "1.51813733696e+12", "human_length": "49", "nodes_expanded": "999", "instance": "prb46639", "end_time": "1.51813743327e+12", "optimal_length": "16", "subject": "A1ZTSCPETU3UJW"}
{"rt": "23970.0", "trial_number": "0", "skipped": "True", "complete": "False", "assignment": "3TAYZSBPLMG9ASQRWXURJVBCPLN2SH", "start_time": "1.51813720568e+12", "human_length": "12", "nodes_expanded": "999", "instance": "prb46639", "end_time": "1.51813722965e+12", "optimal_length": "16", "subject": "A2RCYLKY072XXO"}
{"rt": "53546.0", "trial_number": "0", "skipped": "True", "complete": "False", "assignment": "3ZSANO2JCGFTBM23KS9Y3E51YP4FSQ", "start_time": "1.51814317931e+12", "human_length": "51", "nodes_expanded": "999", "instance": "prb46639", "end_time": "1.51814323285e+12", "optimal_length": "16", "subject": "A1F42D4L22K5ND"}
{"rt": "79963.0", "trial_number": "0", "skipped": "True", "complete": "False", "assignment": "3WJEQKOXA9AYLBM1WT8MTC71B9AA1K", "start_time": "1.5181438925e+12", "human_length": "50", "nodes_expanded": "999", "instance": "prb46639", "end_time": "1.51814397247e+12", "optimal_length": "16", "subject": "A2RRC5B4M80XXO"}
{"rt": "25525.0", "trial_number": "0", "skipped": "False", "complete": "True", "assignment": "3XLBSAQ9Z5KDX59BX15UBFPNNHYZ7Q", "start_time": "1.51814655146e+12", "human_length": "22", "nodes_expanded": "999", "instance": "prb46639", "end_time": "1.51814657699e+12", "optimal_length": "16", "subject": "A1HFNOKU591WCY"}
{"rt": "129237.0", "trial_number": "0", "skipped": "False", "complete": "True", "assignment": "3FUI0JHJPY6UBT1VAI7VUX8S3KH33W", "start_time": "1.51815019106e+12", "human_length": "72", "nodes_expanded": "999", "instance": "prb46639", "end_time": "1.5181503203e+12", "optimal_length": "16", "subject": "A2QIZ31TMHU0GD"}
{"rt": "67830.0", "trial_number": "0", "skipped": "True", "complete": "False", "assignment": "3RUIQRXJBCWS71H9MUFVM5WQ3SCLLJ", "start_time": "1.51815808552e+12", "human_length": "29", "nodes_expanded": "999", "instance": "prb46639", "end_time": "1.51815815335e+12", "optimal_length": "16", "subject": "A1SJRFJWFXSDH4"}
{"rt": "40219.0", "trial_number": "0", "skipped": "False", "complete": "True", "assignment": "3IXEICO793RY7TM78ZBKJDOA7ADT6Q", "start_time": "1.51816919757e+12", "human_length": "32", "nodes_expanded": "999", "instance": "prb46639", "end_time": "1.51816923779e+12", "optimal_length": "16", "subject": "ALH1K6ZAQQMN7"}
