{"rt": "27774.0", "trial_number": "0", "skipped": "False", "complete": "True", "assignment": "3ZV9H2YQQEFR2R3JK2IXZUJPXAF3WW", "start_time": "1.51630827829e+12", "human_length": "11", "nodes_expanded": "999", "instance": "prb46224", "end_time": "1.51630830607e+12", "optimal_length": "11", "subject": "A289D98Z4GAZ28"}
{"rt": "10424.0", "trial_number": "0", "skipped": "False", "complete": "True", "assignment": "3PMBY0YE28B43VMUKKJ6EDF85RV9C8", "start_time": "1.51638646007e+12", "human_length": "11", "nodes_expanded": "999", "instance": "prb46224", "end_time": "1.51638647049e+12", "optimal_length": "11", "subject": "A191V7PT3DQKDP"}
{"rt": "37936.0", "trial_number": "0", "skipped": "False", "complete": "False", "assignment": "34BBWHLWHBJ6SUL255PK30LEGY5IWG", "start_time": "1.51639203816e+12", "human_length": "39", "nodes_expanded": "999", "instance": "prb46224", "end_time": "1.51639207609e+12", "optimal_length": "11", "subject": "A214HWAW1PYWO8"}
{"rt": "21819.0", "trial_number": "1", "skipped": "False", "complete": "True", "assignment": "34BBWHLWHBJ6SUL255PK30LEGY5IWG", "start_time": "1.51639210726e+12", "human_length": "17", "nodes_expanded": "999", "instance": "prb46224", "end_time": "1.51639212908e+12", "optimal_length": "11", "subject": "A214HWAW1PYWO8"}
{"rt": "0.0", "trial_number": "0", "skipped": "False", "complete": "False", "assignment": "3VE8AYVF8N5BS2NU6U3TMN50JMNF8V", "start_time": "1.51673811776e+12", "human_length": "1", "nodes_expanded": "999", "instance": "prb46224", "end_time": "1.51673811776e+12", "optimal_length": "11", "subject": "A18QU0YQB6Q8DF"}
{"rt": "0.0", "trial_number": "1", "skipped": "False", "complete": "False", "assignment": "3VE8AYVF8N5BS2NU6U3TMN50JMNF8V", "start_time": "1.51673811776e+12", "human_length": "1", "nodes_expanded": "999", "instance": "prb46224", "end_time": "1.51673811776e+12", "optimal_length": "11", "subject": "A18QU0YQB6Q8DF"}
{"rt": "49377.0", "trial_number": "2", "skipped": "True", "complete": "False", "assignment": "3VE8AYVF8N5BS2NU6U3TMN50JMNF8V", "start_time": "1.51673811776e+12", "human_length": "80", "nodes_expanded": "999", "instance": "prb46224", "end_time": "1.51673816713e+12", "optimal_length": "11", "subject": "A18QU0YQB6Q8DF"}
{"rt": "0.0", "trial_number": "0", "skipped": "False", "complete": "False", "assignment": "3X87C8JFV7JQ2BSCY8KSFD9F2ILSQK", "start_time": "1.51674019984e+12", "human_length": "1", "nodes_expanded": "999", "instance": "prb46224", "end_time": "1.51674019984e+12", "optimal_length": "11", "subject": "A3Q0XAGQ7TD7MP"}
{"rt": "0.0", "trial_number": "1", "skipped": "False", "complete": "False", "assignment": "3X87C8JFV7JQ2BSCY8KSFD9F2ILSQK", "start_time": "1.51674019984e+12", "human_length": "1", "nodes_expanded": "999", "instance": "prb46224", "end_time": "1.51674019984e+12", "optimal_length": "11", "subject": "A3Q0XAGQ7TD7MP"}
{"rt": "16360.0", "trial_number": "2", "skipped": "False", "complete": "True", "assignment": "3X87C8JFV7JQ2BSCY8KSFD9F2ILSQK", "start_time": "1.51674019984e+12", "human_length": "11", "nodes_expanded": "999", "instance": "prb46224", "end_time": "1.5167402162e+12", "optimal_length": "11", "subject": "A3Q0XAGQ7TD7MP"}
{"rt": "83908.0", "trial_number": "3", "skipped": "False", "complete": "True", "assignment": "3GLB5JMZFY3TNXFGYMKRQ0JDXNTDGZ", "start_time": "1.5179468741e+12", "human_length": "29", "nodes_expanded": "999", "instance": "prb46224", "end_time": "1.51794695801e+12", "optimal_length": "11", "subject": "A3Q0XAGQ7TD7MP"}
{"rt": "0.0", "trial_number": "0", "skipped": "False", "complete": "False", "assignment": "3WSELTNVR4AZUVYAYCSWZIQW0J4ATB", "start_time": "1.51673704435e+12", "human_length": "1", "nodes_expanded": "999", "instance": "prb46224", "end_time": "1.51673704435e+12", "optimal_length": "11", "subject": "A2TQNX64349OZ9"}
{"rt": "0.0", "trial_number": "1", "skipped": "False", "complete": "False", "assignment": "3WSELTNVR4AZUVYAYCSWZIQW0J4ATB", "start_time": "1.51673704435e+12", "human_length": "1", "nodes_expanded": "999", "instance": "prb46224", "end_time": "1.51673704435e+12", "optimal_length": "11", "subject": "A2TQNX64349OZ9"}
{"rt": "19253.0", "trial_number": "2", "skipped": "False", "complete": "True", "assignment": "3WSELTNVR4AZUVYAYCSWZIQW0J4ATB", "start_time": "1.51673704435e+12", "human_length": "11", "nodes_expanded": "999", "instance": "prb46224", "end_time": "1.5167370636e+12", "optimal_length": "11", "subject": "A2TQNX64349OZ9"}
{"rt": "0.0", "trial_number": "0", "skipped": "False", "complete": "False", "assignment": "3IJXV6UZ1YR1KY4G6BFEG1DXP7SRI1", "start_time": "1.51673961795e+12", "human_length": "1", "nodes_expanded": "999", "instance": "prb46224", "end_time": "1.51673961795e+12", "optimal_length": "11", "subject": "AEXF5EUX32U0M"}
{"rt": "0.0", "trial_number": "1", "skipped": "False", "complete": "False", "assignment": "3IJXV6UZ1YR1KY4G6BFEG1DXP7SRI1", "start_time": "1.51673961795e+12", "human_length": "1", "nodes_expanded": "999", "instance": "prb46224", "end_time": "1.51673961795e+12", "optimal_length": "11", "subject": "AEXF5EUX32U0M"}
{"rt": "56156.0", "trial_number": "2", "skipped": "False", "complete": "True", "assignment": "3IJXV6UZ1YR1KY4G6BFEG1DXP7SRI1", "start_time": "1.51673961795e+12", "human_length": "30", "nodes_expanded": "999", "instance": "prb46224", "end_time": "1.51673967411e+12", "optimal_length": "11", "subject": "AEXF5EUX32U0M"}
{"rt": "0.0", "trial_number": "0", "skipped": "False", "complete": "False", "assignment": "3U8YCDAGXQOQ1280P618573W7RSQ0N", "start_time": "1.51674349665e+12", "human_length": "1", "nodes_expanded": "999", "instance": "prb46224", "end_time": "1.51674349665e+12", "optimal_length": "11", "subject": "AWCO7MG0BHSTQ"}
{"rt": "0.0", "trial_number": "1", "skipped": "False", "complete": "False", "assignment": "3U8YCDAGXQOQ1280P618573W7RSQ0N", "start_time": "1.51674349665e+12", "human_length": "1", "nodes_expanded": "999", "instance": "prb46224", "end_time": "1.51674349665e+12", "optimal_length": "11", "subject": "AWCO7MG0BHSTQ"}
{"rt": "18352.0", "trial_number": "2", "skipped": "False", "complete": "True", "assignment": "3U8YCDAGXQOQ1280P618573W7RSQ0N", "start_time": "1.51674349665e+12", "human_length": "13", "nodes_expanded": "999", "instance": "prb46224", "end_time": "1.516743515e+12", "optimal_length": "11", "subject": "AWCO7MG0BHSTQ"}
{"rt": "0.0", "trial_number": "0", "skipped": "False", "complete": "False", "assignment": "3IJXV6UZ1YR1KY4G6BFEG1DXP7SRI1", "start_time": "1.5167494446e+12", "human_length": "1", "nodes_expanded": "999", "instance": "prb46224", "end_time": "1.5167494446e+12", "optimal_length": "11", "subject": "A2RTJ6BDY0DZVZ"}
{"rt": "0.0", "trial_number": "1", "skipped": "False", "complete": "False", "assignment": "3IJXV6UZ1YR1KY4G6BFEG1DXP7SRI1", "start_time": "1.5167494446e+12", "human_length": "1", "nodes_expanded": "999", "instance": "prb46224", "end_time": "1.5167494446e+12", "optimal_length": "11", "subject": "A2RTJ6BDY0DZVZ"}
{"rt": "18624.0", "trial_number": "2", "skipped": "False", "complete": "True", "assignment": "3IJXV6UZ1YR1KY4G6BFEG1DXP7SRI1", "start_time": "1.5167494446e+12", "human_length": "12", "nodes_expanded": "999", "instance": "prb46224", "end_time": "1.51674946323e+12", "optimal_length": "11", "subject": "A2RTJ6BDY0DZVZ"}
{"rt": "0.0", "trial_number": "0", "skipped": "False", "complete": "False", "assignment": "3X4MXAO0BHWJLTOLVSJTHSM54OHWRG", "start_time": "1.5168223427e+12", "human_length": "1", "nodes_expanded": "999", "instance": "prb46224", "end_time": "1.5168223427e+12", "optimal_length": "11", "subject": "A2IBQA01NR5N76"}
{"rt": "39301.0", "trial_number": "1", "skipped": "False", "complete": "True", "assignment": "3X4MXAO0BHWJLTOLVSJTHSM54OHWRG", "start_time": "1.5168223427e+12", "human_length": "30", "nodes_expanded": "999", "instance": "prb46224", "end_time": "1.516822382e+12", "optimal_length": "11", "subject": "A2IBQA01NR5N76"}
{"rt": "39301.0", "trial_number": "0", "skipped": "False", "complete": "True", "assignment": "3X4MXAO0BHWJLTOLVSJTHSM54OHWRG", "start_time": "1.5168223427e+12", "human_length": "30", "nodes_expanded": "999", "instance": "prb46224", "end_time": "1.516822382e+12", "optimal_length": "11", "subject": "A2IBQA01NR5N76"}
{"rt": "0.0", "trial_number": "0", "skipped": "False", "complete": "False", "assignment": "3IHR8NYAM89M0EPM8U9LH53ZJDTP4U", "start_time": "1.51682709836e+12", "human_length": "1", "nodes_expanded": "999", "instance": "prb46224", "end_time": "1.51682709836e+12", "optimal_length": "11", "subject": "A23437BMZ5T1FH"}
{"rt": "57680.0", "trial_number": "1", "skipped": "True", "complete": "False", "assignment": "3IHR8NYAM89M0EPM8U9LH53ZJDTP4U", "start_time": "1.51682709836e+12", "human_length": "70", "nodes_expanded": "999", "instance": "prb46224", "end_time": "1.51682715604e+12", "optimal_length": "11", "subject": "A23437BMZ5T1FH"}
{"rt": "98998.0", "trial_number": "0", "skipped": "False", "complete": "False", "assignment": "37WLF8U1WQYZ4AWKEQXSIM1ELVEK6W", "start_time": "1.51683031023e+12", "human_length": "51", "nodes_expanded": "999", "instance": "prb46224", "end_time": "1.51683040923e+12", "optimal_length": "11", "subject": "A2EPBSY0VPI38S"}
{"rt": "0.0", "trial_number": "1", "skipped": "False", "complete": "False", "assignment": "37WLF8U1WQYZ4AWKEQXSIM1ELVEK6W", "start_time": "1.51683041895e+12", "human_length": "1", "nodes_expanded": "999", "instance": "prb46224", "end_time": "1.51683041895e+12", "optimal_length": "11", "subject": "A2EPBSY0VPI38S"}
{"rt": "0.0", "trial_number": "2", "skipped": "False", "complete": "False", "assignment": "37WLF8U1WQYZ4AWKEQXSIM1ELVEK6W", "start_time": "1.51683031023e+12", "human_length": "1", "nodes_expanded": "999", "instance": "prb46224", "end_time": "1.51683031023e+12", "optimal_length": "11", "subject": "A2EPBSY0VPI38S"}
{"rt": "48203.0", "trial_number": "3", "skipped": "False", "complete": "True", "assignment": "37WLF8U1WQYZ4AWKEQXSIM1ELVEK6W", "start_time": "1.51683041895e+12", "human_length": "17", "nodes_expanded": "999", "instance": "prb46224", "end_time": "1.51683046715e+12", "optimal_length": "11", "subject": "A2EPBSY0VPI38S"}
{"rt": "0.0", "trial_number": "0", "skipped": "False", "complete": "False", "assignment": "3YW4XOSQKRTI0K0Z2YPDTDJVFABU1I", "start_time": "1.51683153543e+12", "human_length": "1", "nodes_expanded": "999", "instance": "prb46224", "end_time": "1.51683153543e+12", "optimal_length": "11", "subject": "A1LR0VQIHQUJAM"}
{"rt": "34627.0", "trial_number": "1", "skipped": "False", "complete": "True", "assignment": "3YW4XOSQKRTI0K0Z2YPDTDJVFABU1I", "start_time": "1.51683153543e+12", "human_length": "25", "nodes_expanded": "999", "instance": "prb46224", "end_time": "1.51683157006e+12", "optimal_length": "11", "subject": "A1LR0VQIHQUJAM"}
{"rt": "49377.0", "trial_number": "0", "skipped": "True", "complete": "False", "assignment": "3VE8AYVF8N5BS2NU6U3TMN50JMNF8V", "start_time": "1.51673811776e+12", "human_length": "30", "nodes_expanded": "999", "instance": "prb46224", "end_time": "1.51673816713e+12", "optimal_length": "11", "subject": "A18QU0YQB6Q8DF"}
{"rt": "16360.0", "trial_number": "0", "skipped": "False", "complete": "True", "assignment": "3X87C8JFV7JQ2BSCY8KSFD9F2ILSQK", "start_time": "1.51674019984e+12", "human_length": "11", "nodes_expanded": "999", "instance": "prb46224", "end_time": "1.5167402162e+12", "optimal_length": "11", "subject": "A3Q0XAGQ7TD7MP"}
{"rt": "83908.0", "trial_number": "1", "skipped": "False", "complete": "True", "assignment": "3GLB5JMZFY3TNXFGYMKRQ0JDXNTDGZ", "start_time": "1.5179468741e+12", "human_length": "29", "nodes_expanded": "999", "instance": "prb46224", "end_time": "1.51794695801e+12", "optimal_length": "11", "subject": "A3Q0XAGQ7TD7MP"}
{"rt": "19253.0", "trial_number": "0", "skipped": "False", "complete": "True", "assignment": "3WSELTNVR4AZUVYAYCSWZIQW0J4ATB", "start_time": "1.51673704435e+12", "human_length": "11", "nodes_expanded": "999", "instance": "prb46224", "end_time": "1.5167370636e+12", "optimal_length": "11", "subject": "A2TQNX64349OZ9"}
{"rt": "56156.0", "trial_number": "0", "skipped": "False", "complete": "True", "assignment": "3IJXV6UZ1YR1KY4G6BFEG1DXP7SRI1", "start_time": "1.51673961795e+12", "human_length": "30", "nodes_expanded": "999", "instance": "prb46224", "end_time": "1.51673967411e+12", "optimal_length": "11", "subject": "AEXF5EUX32U0M"}
{"rt": "18352.0", "trial_number": "0", "skipped": "False", "complete": "True", "assignment": "3U8YCDAGXQOQ1280P618573W7RSQ0N", "start_time": "1.51674349665e+12", "human_length": "13", "nodes_expanded": "999", "instance": "prb46224", "end_time": "1.516743515e+12", "optimal_length": "11", "subject": "AWCO7MG0BHSTQ"}
{"rt": "18624.0", "trial_number": "0", "skipped": "False", "complete": "True", "assignment": "3IJXV6UZ1YR1KY4G6BFEG1DXP7SRI1", "start_time": "1.5167494446e+12", "human_length": "12", "nodes_expanded": "999", "instance": "prb46224", "end_time": "1.51674946323e+12", "optimal_length": "11", "subject": "A2RTJ6BDY0DZVZ"}
{"rt": "23415.0", "trial_number": "0", "skipped": "False", "complete": "True", "assignment": "3TS1AR6UQRM7SOIBWPBN8N9589Y7FV", "start_time": "1.51683974288e+12", "human_length": "21", "nodes_expanded": "999", "instance": "prb46224", "end_time": "1.5168397663e+12", "optimal_length": "11", "subject": "A1F4N58CAX8IMK"}
{"rt": "65576.0", "trial_number": "1", "skipped": "False", "complete": "True", "assignment": "35DR22AR5ES6RR89U7EJ1DXW91AX3P", "start_time": "1.51795386172e+12", "human_length": "52", "nodes_expanded": "999", "instance": "prb46224", "end_time": "1.5179539273e+12", "optimal_length": "11", "subject": "A1F4N58CAX8IMK"}
{"rt": "105850.0", "trial_number": "0", "skipped": "False", "complete": "True", "assignment": "3M0BCWMB8W4W5M7WZVX3HDH1M3FBWL", "start_time": "1.51684022243e+12", "human_length": "62", "nodes_expanded": "999", "instance": "prb46224", "end_time": "1.51684032828e+12", "optimal_length": "11", "subject": "A1XDMS0KFSF5JW"}
{"rt": "357617.0", "trial_number": "0", "skipped": "True", "complete": "False", "assignment": "31LM9EDVOM0C0BWUVMJXJINN3QPJNI", "start_time": "1.51752465909e+12", "human_length": "6", "nodes_expanded": "999", "instance": "prb46224", "end_time": "1.51752501671e+12", "optimal_length": "11", "subject": "A1NT8BT94ME6F5"}
{"rt": "84451.0", "trial_number": "0", "skipped": "False", "complete": "True", "assignment": "37TD41K0AIHM8AITTQJXV8KY05QCSB", "start_time": "1.51752568995e+12", "human_length": "49", "nodes_expanded": "999", "instance": "prb46224", "end_time": "1.5175257744e+12", "optimal_length": "11", "subject": "A30KYQGABO7JER"}
{"rt": "22492.0", "trial_number": "0", "skipped": "False", "complete": "True", "assignment": "36H9ULYP6320CJJDXY0KBDEE1Z3JFB", "start_time": "1.51753282094e+12", "human_length": "11", "nodes_expanded": "999", "instance": "prb46224", "end_time": "1.51753284343e+12", "optimal_length": "11", "subject": "AN098C29EGJ6"}
{"rt": "36377.0", "trial_number": "0", "skipped": "True", "complete": "False", "assignment": "3TYCR1GOTDRCCQYD1V64UK7OHTBZLQ", "start_time": "1.51753650997e+12", "human_length": "27", "nodes_expanded": "999", "instance": "prb46224", "end_time": "1.51753654634e+12", "optimal_length": "11", "subject": "A13BZCNJ0WR1T7"}
{"rt": "0.0", "trial_number": "0", "skipped": "False", "complete": "False", "assignment": "3H0W84IWBLAP4T2UASPNVMF5ZH7ER9", "start_time": "1.51755402788e+12", "human_length": "1", "nodes_expanded": "999", "instance": "prb46224", "end_time": "1.51755402788e+12", "optimal_length": "11", "subject": "A1AKX1C8GCVCTP"}
{"rt": "10186.0", "trial_number": "1", "skipped": "False", "complete": "False", "assignment": "3H0W84IWBLAP4T2UASPNVMF5ZH7ER9", "start_time": "1.5175540279e+12", "human_length": "2", "nodes_expanded": "999", "instance": "prb46224", "end_time": "1.51755403808e+12", "optimal_length": "11", "subject": "A1AKX1C8GCVCTP"}
{"rt": "23068.0", "trial_number": "2", "skipped": "False", "complete": "True", "assignment": "3H0W84IWBLAP4T2UASPNVMF5ZH7ER9", "start_time": "1.51755403963e+12", "human_length": "17", "nodes_expanded": "999", "instance": "prb46224", "end_time": "1.5175540627e+12", "optimal_length": "11", "subject": "A1AKX1C8GCVCTP"}
{"rt": "15518.0", "trial_number": "0", "skipped": "False", "complete": "True", "assignment": "3TPWUS5F8A9FFRZ2DVTYSXNJ6BWWC6", "start_time": "1.51794074631e+12", "human_length": "11", "nodes_expanded": "999", "instance": "prb46224", "end_time": "1.51794076182e+12", "optimal_length": "11", "subject": "A3GXC3VG37CQ3G"}
{"rt": "30138.0", "trial_number": "0", "skipped": "False", "complete": "False", "assignment": "34HJIJKLP64Z5YMIU6IKNXSH7PDV4I", "start_time": "1.51794023275e+12", "human_length": "11", "nodes_expanded": "999", "instance": "prb46224", "end_time": "1.51794026289e+12", "optimal_length": "11", "subject": "A3CTXNQ2GXIQSP"}
{"rt": "38518.0", "trial_number": "1", "skipped": "False", "complete": "True", "assignment": "34HJIJKLP64Z5YMIU6IKNXSH7PDV4I", "start_time": "1.51794026387e+12", "human_length": "18", "nodes_expanded": "999", "instance": "prb46224", "end_time": "1.51794030239e+12", "optimal_length": "11", "subject": "A3CTXNQ2GXIQSP"}
{"rt": "365844.0", "trial_number": "0", "skipped": "False", "complete": "False", "assignment": "3STRJBFXOXZ5687WA35LTWTS7QZKTT", "start_time": "1.51794505927e+12", "human_length": "2", "nodes_expanded": "999", "instance": "prb46224", "end_time": "1.51794542511e+12", "optimal_length": "11", "subject": "A3OB6REG5CGHK1"}
{"rt": "21798.0", "trial_number": "1", "skipped": "False", "complete": "False", "assignment": "3STRJBFXOXZ5687WA35LTWTS7QZKTT", "start_time": "1.51794542918e+12", "human_length": "14", "nodes_expanded": "999", "instance": "prb46224", "end_time": "1.51794545098e+12", "optimal_length": "11", "subject": "A3OB6REG5CGHK1"}
{"rt": "25305.0", "trial_number": "2", "skipped": "False", "complete": "True", "assignment": "3STRJBFXOXZ5687WA35LTWTS7QZKTT", "start_time": "1.51794545230e+12", "human_length": "12", "nodes_expanded": "999", "instance": "prb46224", "end_time": "1.51794547761e+12", "optimal_length": "11", "subject": "A3OB6REG5CGHK1"}
{"rt": "14577.0", "trial_number": "0", "skipped": "False", "complete": "False", "assignment": "3JCG6DTRV4YEPVDZ64VNKDUEMPGQQ1", "start_time": "1.51794748823e+12", "human_length": "7", "nodes_expanded": "999", "instance": "prb46224", "end_time": "1.51794750281e+12", "optimal_length": "11", "subject": "A2V7KYLBCBTI3B"}
{"rt": "30100.0", "trial_number": "1", "skipped": "True", "complete": "False", "assignment": "3JCG6DTRV4YEPVDZ64VNKDUEMPGQQ1", "start_time": "1.51794750605e+12", "human_length": "9", "nodes_expanded": "999", "instance": "prb46224", "end_time": "1.51794753615e+12", "optimal_length": "11", "subject": "A2V7KYLBCBTI3B"}
{"rt": "21514.0", "trial_number": "0", "skipped": "True", "complete": "False", "assignment": "33PPO7FECWN7JOLBOAKUBCWTC0AIDL", "start_time": "1.51795117079e+12", "human_length": "8", "nodes_expanded": "999", "instance": "prb46224", "end_time": "1.51795119230e+12", "optimal_length": "11", "subject": "AXKM02NVXNGOM"}
{"rt": "6193.0", "trial_number": "0", "skipped": "False", "complete": "False", "assignment": "3HYA4D452SR06NL5QDUSCWSXZI12FF", "start_time": "1.51795026916e+12", "human_length": "4", "nodes_expanded": "999", "instance": "prb46224", "end_time": "1.51795027535e+12", "optimal_length": "11", "subject": "A2OFWHV8IP7HK"}
{"rt": "19626.0", "trial_number": "1", "skipped": "False", "complete": "True", "assignment": "3HYA4D452SR06NL5QDUSCWSXZI12FF", "start_time": "1.51795027962e+12", "human_length": "13", "nodes_expanded": "999", "instance": "prb46224", "end_time": "1.51795029924e+12", "optimal_length": "11", "subject": "A2OFWHV8IP7HK"}
{"rt": "133087.0", "trial_number": "0", "skipped": "False", "complete": "True", "assignment": "3PB5A5BD0WED6OE679H5Q89HBDGG71", "start_time": "1.51795340114e+12", "human_length": "71", "nodes_expanded": "999", "instance": "prb46224", "end_time": "1.51795353423e+12", "optimal_length": "11", "subject": "A1USR9JCAMDGM3"}
{"rt": "14101.0", "trial_number": "0", "skipped": "False", "complete": "True", "assignment": "3R5F3LQFV3SKIB1AENMWM1BICT5OZB", "start_time": "1.51795889411e+12", "human_length": "11", "nodes_expanded": "999", "instance": "prb46224", "end_time": "1.51795890821e+12", "optimal_length": "11", "subject": "A1N1EF0MIRSEZZ"}
{"rt": "18101.0", "trial_number": "0", "skipped": "False", "complete": "True", "assignment": "33F859I567LE8WC74WB3GA7E94XBHW", "start_time": "1.517969387e+12", "human_length": "18", "nodes_expanded": "999", "instance": "prb46224", "end_time": "1.5179694051e+12", "optimal_length": "11", "subject": "A1GQS6USF2JEYG"}
{"rt": "6864.0", "trial_number": "0", "skipped": "False", "complete": "True", "assignment": "3IJXV6UZ1YR1KY4G6BFEG1DXR47RIC", "start_time": "1.51797173214e+12", "human_length": "11", "nodes_expanded": "999", "instance": "prb46224", "end_time": "1.51797173901e+12", "optimal_length": "11", "subject": "A18T3WK7J16C1B"}
{"rt": "10012.0", "trial_number": "0", "skipped": "False", "complete": "True", "assignment": "3FTF2T8WLSQDHTSZ1BJ7Q7MB14SW9H", "start_time": "1.51813760846e+12", "human_length": "11", "nodes_expanded": "999", "instance": "prb46224", "end_time": "1.51813761848e+12", "optimal_length": "11", "subject": "A1IUH9D7N69VS"}
{"rt": "26359.0", "trial_number": "0", "skipped": "False", "complete": "True", "assignment": "3XC1O3LBOTUGQEPEV3HM8W67X4RTLL", "start_time": "1.51813821307e+12", "human_length": "13", "nodes_expanded": "999", "instance": "prb46224", "end_time": "1.51813823942e+12", "optimal_length": "11", "subject": "A1ZTSCPETU3UJW"}
{"rt": "37690.0", "trial_number": "0", "skipped": "False", "complete": "True", "assignment": "3TAYZSBPLMG9ASQRWXURJVBCPLN2SH", "start_time": "1.51813688039e+12", "human_length": "24", "nodes_expanded": "999", "instance": "prb46224", "end_time": "1.51813691808e+12", "optimal_length": "11", "subject": "A2RCYLKY072XXO"}
{"rt": "63323.0", "trial_number": "0", "skipped": "False", "complete": "False", "assignment": "3RXCAC0YISXH62JPHE9B485CNAL8G6", "start_time": "1.51813573622e+12", "human_length": "15", "nodes_expanded": "999", "instance": "prb46224", "end_time": "1.51813579954e+12", "optimal_length": "11", "subject": "A2CHKF2A6F4MIX"}
{"rt": "36656.0", "trial_number": "1", "skipped": "False", "complete": "True", "assignment": "3RXCAC0YISXH62JPHE9B485CNAL8G6", "start_time": "1.51813582530e+12", "human_length": "12", "nodes_expanded": "999", "instance": "prb46224", "end_time": "1.51813586196e+12", "optimal_length": "11", "subject": "A2CHKF2A6F4MIX"}
{"rt": "0.0", "trial_number": "0", "skipped": "False", "complete": "False", "assignment": "3EO896NRAX3AVO1ESI59SHTFTF3JTQ", "start_time": "1.51814257589e+12", "human_length": "1", "nodes_expanded": "999", "instance": "prb46224", "end_time": "1.51814257589e+12", "optimal_length": "11", "subject": "A2KBZ75HMJ7KVX"}
{"rt": "0.0", "trial_number": "1", "skipped": "False", "complete": "False", "assignment": "3EO896NRAX3AVO1ESI59SHTFTF3JTQ", "start_time": "1.5181425759e+12", "human_length": "1", "nodes_expanded": "999", "instance": "prb46224", "end_time": "1.5181425759e+12", "optimal_length": "11", "subject": "A2KBZ75HMJ7KVX"}
{"rt": "0.0", "trial_number": "2", "skipped": "False", "complete": "False", "assignment": "3EO896NRAX3AVO1ESI59SHTFTF3JTQ", "start_time": "1.51814257591e+12", "human_length": "1", "nodes_expanded": "999", "instance": "prb46224", "end_time": "1.51814257591e+12", "optimal_length": "11", "subject": "A2KBZ75HMJ7KVX"}
{"rt": "0.0", "trial_number": "3", "skipped": "False", "complete": "False", "assignment": "3EO896NRAX3AVO1ESI59SHTFTF3JTQ", "start_time": "1.51814257592e+12", "human_length": "1", "nodes_expanded": "999", "instance": "prb46224", "end_time": "1.51814257592e+12", "optimal_length": "11", "subject": "A2KBZ75HMJ7KVX"}
{"rt": "0.0", "trial_number": "4", "skipped": "False", "complete": "False", "assignment": "3EO896NRAX3AVO1ESI59SHTFTF3JTQ", "start_time": "1.51814257596e+12", "human_length": "1", "nodes_expanded": "999", "instance": "prb46224", "end_time": "1.51814257596e+12", "optimal_length": "11", "subject": "A2KBZ75HMJ7KVX"}
{"rt": "0.0", "trial_number": "5", "skipped": "False", "complete": "False", "assignment": "3EO896NRAX3AVO1ESI59SHTFTF3JTQ", "start_time": "1.51814257598e+12", "human_length": "1", "nodes_expanded": "999", "instance": "prb46224", "end_time": "1.51814257598e+12", "optimal_length": "11", "subject": "A2KBZ75HMJ7KVX"}
{"rt": "0.0", "trial_number": "6", "skipped": "False", "complete": "False", "assignment": "3EO896NRAX3AVO1ESI59SHTFTF3JTQ", "start_time": "1.51814257600e+12", "human_length": "1", "nodes_expanded": "999", "instance": "prb46224", "end_time": "1.51814257600e+12", "optimal_length": "11", "subject": "A2KBZ75HMJ7KVX"}
{"rt": "0.0", "trial_number": "7", "skipped": "False", "complete": "False", "assignment": "3EO896NRAX3AVO1ESI59SHTFTF3JTQ", "start_time": "1.51814257614e+12", "human_length": "1", "nodes_expanded": "999", "instance": "prb46224", "end_time": "1.51814257614e+12", "optimal_length": "11", "subject": "A2KBZ75HMJ7KVX"}
{"rt": "0.0", "trial_number": "8", "skipped": "False", "complete": "False", "assignment": "3EO896NRAX3AVO1ESI59SHTFTF3JTQ", "start_time": "1.51814257632e+12", "human_length": "1", "nodes_expanded": "999", "instance": "prb46224", "end_time": "1.51814257632e+12", "optimal_length": "11", "subject": "A2KBZ75HMJ7KVX"}
{"rt": "2038.0", "trial_number": "9", "skipped": "True", "complete": "False", "assignment": "3EO896NRAX3AVO1ESI59SHTFTF3JTQ", "start_time": "1.51814257813e+12", "human_length": "2", "nodes_expanded": "999", "instance": "prb46224", "end_time": "1.51814258016e+12", "optimal_length": "11", "subject": "A2KBZ75HMJ7KVX"}
{"rt": "16878.0", "trial_number": "0", "skipped": "False", "complete": "True", "assignment": "3ZSANO2JCGFTBM23KS9Y3E51YP4FSQ", "start_time": "1.51814325933e+12", "human_length": "12", "nodes_expanded": "999", "instance": "prb46224", "end_time": "1.51814327621e+12", "optimal_length": "11", "subject": "A1F42D4L22K5ND"}
{"rt": "33715.0", "trial_number": "0", "skipped": "False", "complete": "True", "assignment": "3VE8AYVF8N5BS2NU6U3TMN50MV38FP", "start_time": "1.51814252876e+12", "human_length": "11", "nodes_expanded": "999", "instance": "prb46224", "end_time": "1.51814256248e+12", "optimal_length": "11", "subject": "A1JN13098RIE78"}
{"rt": "94657.0", "trial_number": "0", "skipped": "False", "complete": "False", "assignment": "3TMFV4NEP9MD3O9PWJDTQBR0HZYW8I", "start_time": "1.51814575892e+12", "human_length": "56", "nodes_expanded": "999", "instance": "prb46224", "end_time": "1.51814585358e+12", "optimal_length": "11", "subject": "A3GOOI75XOF24V"}
{"rt": "25024.0", "trial_number": "1", "skipped": "False", "complete": "True", "assignment": "3TMFV4NEP9MD3O9PWJDTQBR0HZYW8I", "start_time": "1.51814586054e+12", "human_length": "14", "nodes_expanded": "999", "instance": "prb46224", "end_time": "1.51814588556e+12", "optimal_length": "11", "subject": "A3GOOI75XOF24V"}
{"rt": "53440.0", "trial_number": "0", "skipped": "True", "complete": "False", "assignment": "3XLBSAQ9Z5KDX59BX15UBFPNNHYZ7Q", "start_time": "1.51814658878e+12", "human_length": "55", "nodes_expanded": "999", "instance": "prb46224", "end_time": "1.51814664222e+12", "optimal_length": "11", "subject": "A1HFNOKU591WCY"}
{"rt": "123502.0", "trial_number": "0", "skipped": "False", "complete": "True", "assignment": "3FUI0JHJPY6UBT1VAI7VUX8S3KH33W", "start_time": "1.51815057725e+12", "human_length": "63", "nodes_expanded": "999", "instance": "prb46224", "end_time": "1.51815070075e+12", "optimal_length": "11", "subject": "A2QIZ31TMHU0GD"}
{"rt": "0.0", "trial_number": "0", "skipped": "False", "complete": "False", "assignment": "3RUIQRXJBCWS71H9MUFVM5WQ3SCLLJ", "start_time": "1.51815893164e+12", "human_length": "1", "nodes_expanded": "999", "instance": "prb46224", "end_time": "1.51815893164e+12", "optimal_length": "11", "subject": "A1SJRFJWFXSDH4"}
{"rt": "0.0", "trial_number": "1", "skipped": "False", "complete": "False", "assignment": "3RUIQRXJBCWS71H9MUFVM5WQ3SCLLJ", "start_time": "1.51815893492e+12", "human_length": "1", "nodes_expanded": "999", "instance": "prb46224", "end_time": "1.51815893492e+12", "optimal_length": "11", "subject": "A1SJRFJWFXSDH4"}
{"rt": "2347.0", "trial_number": "2", "skipped": "False", "complete": "False", "assignment": "3RUIQRXJBCWS71H9MUFVM5WQ3SCLLJ", "start_time": "1.51815893494e+12", "human_length": "2", "nodes_expanded": "999", "instance": "prb46224", "end_time": "1.51815893728e+12", "optimal_length": "11", "subject": "A1SJRFJWFXSDH4"}
{"rt": "20595.0", "trial_number": "3", "skipped": "False", "complete": "True", "assignment": "3RUIQRXJBCWS71H9MUFVM5WQ3SCLLJ", "start_time": "1.51815893832e+12", "human_length": "14", "nodes_expanded": "999", "instance": "prb46224", "end_time": "1.51815895892e+12", "optimal_length": "11", "subject": "A1SJRFJWFXSDH4"}
{"rt": "19345.0", "trial_number": "0", "skipped": "False", "complete": "True", "assignment": "3M0BCWMB8W4W5M7WZVX3HDH1P53WB1", "start_time": "1.51815745291e+12", "human_length": "11", "nodes_expanded": "999", "instance": "prb46224", "end_time": "1.51815747225e+12", "optimal_length": "11", "subject": "A53S7J4JGWG38"}
{"rt": "68405.0", "trial_number": "0", "skipped": "False", "complete": "True", "assignment": "3IXEICO793RY7TM78ZBKJDOA7ADT6Q", "start_time": "1.51816883232e+12", "human_length": "36", "nodes_expanded": "999", "instance": "prb46224", "end_time": "1.51816890073e+12", "optimal_length": "11", "subject": "ALH1K6ZAQQMN7"}
