{"rt": "20551.0", "trial_number": "0", "skipped": "False", "complete": "True", "assignment": "3TYCR1GOTDRCCQYD1V64UK7OHTBZLQ", "start_time": "1.51753701164e+12", "human_length": "23", "nodes_expanded": "999", "instance": "prb44171", "end_time": "1.5175370322e+12", "optimal_length": "16", "subject": "A13BZCNJ0WR1T7"}
{"rt": "54189.0", "trial_number": "0", "skipped": "False", "complete": "True", "assignment": "3TS1AR6UQRM7SOIBWPBN8N9589Y7FV", "start_time": "1.51684132817e+12", "human_length": "31", "nodes_expanded": "999", "instance": "prb44171", "end_time": "1.51684138236e+12", "optimal_length": "16", "subject": "A15FXHC1CVNW31"}
{"rt": "97288.0", "trial_number": "0", "skipped": "False", "complete": "False", "assignment": "3VE8AYVF8N5BS2NU6U3TMN50JMNF8V", "start_time": "1.51673519661e+12", "human_length": "32", "nodes_expanded": "999", "instance": "prb44171", "end_time": "1.5167352939e+12", "optimal_length": "16", "subject": "A18QU0YQB6Q8DF"}
{"rt": "0.0", "trial_number": "1", "skipped": "False", "complete": "False", "assignment": "3VE8AYVF8N5BS2NU6U3TMN50JMNF8V", "start_time": "1.51673530263e+12", "human_length": "1", "nodes_expanded": "999", "instance": "prb44171", "end_time": "1.51673530263e+12", "optimal_length": "16", "subject": "A18QU0YQB6Q8DF"}
{"rt": "0.0", "trial_number": "2", "skipped": "False", "complete": "False", "assignment": "3VE8AYVF8N5BS2NU6U3TMN50JMNF8V", "start_time": "1.51673519661e+12", "human_length": "1", "nodes_expanded": "999", "instance": "prb44171", "end_time": "1.51673519661e+12", "optimal_length": "16", "subject": "A18QU0YQB6Q8DF"}
{"rt": "0.0", "trial_number": "3", "skipped": "False", "complete": "False", "assignment": "3VE8AYVF8N5BS2NU6U3TMN50JMNF8V", "start_time": "1.51673530263e+12", "human_length": "1", "nodes_expanded": "999", "instance": "prb44171", "end_time": "1.51673530263e+12", "optimal_length": "16", "subject": "A18QU0YQB6Q8DF"}
{"rt": "0.0", "trial_number": "4", "skipped": "False", "complete": "False", "assignment": "3VE8AYVF8N5BS2NU6U3TMN50JMNF8V", "start_time": "1.51673519661e+12", "human_length": "1", "nodes_expanded": "999", "instance": "prb44171", "end_time": "1.51673519661e+12", "optimal_length": "16", "subject": "A18QU0YQB6Q8DF"}
{"rt": "69332.0", "trial_number": "5", "skipped": "False", "complete": "True", "assignment": "3VE8AYVF8N5BS2NU6U3TMN50JMNF8V", "start_time": "1.51673530263e+12", "human_length": "24", "nodes_expanded": "999", "instance": "prb44171", "end_time": "1.51673537197e+12", "optimal_length": "16", "subject": "A18QU0YQB6Q8DF"}
{"rt": "97288.0", "trial_number": "0", "skipped": "False", "complete": "False", "assignment": "3VE8AYVF8N5BS2NU6U3TMN50JMNF8V", "start_time": "1.51673519661e+12", "human_length": "32", "nodes_expanded": "999", "instance": "prb44171", "end_time": "1.5167352939e+12", "optimal_length": "16", "subject": "A18QU0YQB6Q8DF"}
{"rt": "69332.0", "trial_number": "1", "skipped": "False", "complete": "True", "assignment": "3VE8AYVF8N5BS2NU6U3TMN50JMNF8V", "start_time": "1.51673530263e+12", "human_length": "24", "nodes_expanded": "999", "instance": "prb44171", "end_time": "1.51673537197e+12", "optimal_length": "16", "subject": "A18QU0YQB6Q8DF"}
{"rt": "70076.0", "trial_number": "0", "skipped": "False", "complete": "True", "assignment": "3IJXV6UZ1YR1KY4G6BFEG1DXR47RIC", "start_time": "1.51797207267e+12", "human_length": "65", "nodes_expanded": "999", "instance": "prb44171", "end_time": "1.51797214274e+12", "optimal_length": "16", "subject": "A18T3WK7J16C1B"}
{"rt": "25199.0", "trial_number": "0", "skipped": "False", "complete": "True", "assignment": "3PMBY0YE28B43VMUKKJ6EDF85RV9C8", "start_time": "1.51638778107e+12", "human_length": "24", "nodes_expanded": "999", "instance": "prb44171", "end_time": "1.51638780627e+12", "optimal_length": "16", "subject": "A191V7PT3DQKDP"}
{"rt": "44868.0", "trial_number": "0", "skipped": "False", "complete": "True", "assignment": "3ZSANO2JCGFTBM23KS9Y3E51YP4FSQ", "start_time": "1.51814344453e+12", "human_length": "44", "nodes_expanded": "999", "instance": "prb44171", "end_time": "1.5181434894e+12", "optimal_length": "16", "subject": "A1F42D4L22K5ND"}
{"rt": "75816.0", "trial_number": "0", "skipped": "False", "complete": "True", "assignment": "3TS1AR6UQRM7SOIBWPBN8N9589Y7FV", "start_time": "1.5168403554e+12", "human_length": "68", "nodes_expanded": "999", "instance": "prb44171", "end_time": "1.51684043121e+12", "optimal_length": "16", "subject": "A1F4N58CAX8IMK"}
{"rt": "17585.0", "trial_number": "1", "skipped": "False", "complete": "True", "assignment": "35DR22AR5ES6RR89U7EJ1DXW91AX3P", "start_time": "1.51795339226e+12", "human_length": "19", "nodes_expanded": "999", "instance": "prb44171", "end_time": "1.51795340985e+12", "optimal_length": "16", "subject": "A1F4N58CAX8IMK"}
{"rt": "56765.0", "trial_number": "0", "skipped": "False", "complete": "True", "assignment": "33F859I567LE8WC74WB3GA7E94XBHW", "start_time": "1.51797001348e+12", "human_length": "45", "nodes_expanded": "999", "instance": "prb44171", "end_time": "1.51797007024e+12", "optimal_length": "16", "subject": "A1GQS6USF2JEYG"}
{"rt": "45806.0", "trial_number": "0", "skipped": "False", "complete": "True", "assignment": "3XLBSAQ9Z5KDX59BX15UBFPNNHYZ7Q", "start_time": "1.51814531814e+12", "human_length": "35", "nodes_expanded": "999", "instance": "prb44171", "end_time": "1.51814536394e+12", "optimal_length": "16", "subject": "A1HFNOKU591WCY"}
{"rt": "21454.0", "trial_number": "0", "skipped": "False", "complete": "True", "assignment": "3FTF2T8WLSQDHTSZ1BJ7Q7MB14SW9H", "start_time": "1.5181362038e+12", "human_length": "20", "nodes_expanded": "999", "instance": "prb44171", "end_time": "1.51813622525e+12", "optimal_length": "16", "subject": "A1IUH9D7N69VS"}
{"rt": "93994.0", "trial_number": "0", "skipped": "False", "complete": "True", "assignment": "3VE8AYVF8N5BS2NU6U3TMN50MV38FP", "start_time": "1.51814408302e+12", "human_length": "43", "nodes_expanded": "999", "instance": "prb44171", "end_time": "1.51814417702e+12", "optimal_length": "16", "subject": "A1JN13098RIE78"}
{"rt": "0.0", "trial_number": "0", "skipped": "False", "complete": "False", "assignment": "3YW4XOSQKRTI0K0Z2YPDTDJVFABU1I", "start_time": "1.5168308783e+12", "human_length": "1", "nodes_expanded": "999", "instance": "prb44171", "end_time": "1.5168308783e+12", "optimal_length": "16", "subject": "A1LR0VQIHQUJAM"}
{"rt": "27858.0", "trial_number": "1", "skipped": "False", "complete": "True", "assignment": "3YW4XOSQKRTI0K0Z2YPDTDJVFABU1I", "start_time": "1.5168308783e+12", "human_length": "21", "nodes_expanded": "999", "instance": "prb44171", "end_time": "1.51683090615e+12", "optimal_length": "16", "subject": "A1LR0VQIHQUJAM"}
{"rt": "22932.0", "trial_number": "0", "skipped": "False", "complete": "True", "assignment": "3R5F3LQFV3SKIB1AENMWM1BICT5OZB", "start_time": "1.51795922181e+12", "human_length": "24", "nodes_expanded": "999", "instance": "prb44171", "end_time": "1.51795924474e+12", "optimal_length": "16", "subject": "A1N1EF0MIRSEZZ"}
{"rt": "4723.0", "trial_number": "0", "skipped": "True", "complete": "False", "assignment": "31LM9EDVOM0C0BWUVMJXJINN3QPJNI", "start_time": "1.51752563076e+12", "human_length": "6", "nodes_expanded": "999", "instance": "prb44171", "end_time": "1.51752563549e+12", "optimal_length": "16", "subject": "A1NT8BT94ME6F5"}
{"rt": "39645.0", "trial_number": "0", "skipped": "False", "complete": "False", "assignment": "3RUIQRXJBCWS71H9MUFVM5WQ3SCLLJ", "start_time": "1.51815579855e+12", "human_length": "17", "nodes_expanded": "999", "instance": "prb44171", "end_time": "1.5181558382e+12", "optimal_length": "16", "subject": "A1SJRFJWFXSDH4"}
{"rt": "65520.0", "trial_number": "1", "skipped": "False", "complete": "True", "assignment": "3RUIQRXJBCWS71H9MUFVM5WQ3SCLLJ", "start_time": "1.51815584663e+12", "human_length": "32", "nodes_expanded": "999", "instance": "prb44171", "end_time": "1.51815591215e+12", "optimal_length": "16", "subject": "A1SJRFJWFXSDH4"}
{"rt": "19862.0", "trial_number": "0", "skipped": "False", "complete": "False", "assignment": "3XC1O3LBOTUGQEPEV3HM8W67X4RTLL", "start_time": "1.51813606859e+12", "human_length": "11", "nodes_expanded": "999", "instance": "prb44171", "end_time": "1.51813608845e+12", "optimal_length": "16", "subject": "A1ZTSCPETU3UJW"}
{"rt": "20301.0", "trial_number": "1", "skipped": "False", "complete": "False", "assignment": "3XC1O3LBOTUGQEPEV3HM8W67X4RTLL", "start_time": "1.51813609268e+12", "human_length": "7", "nodes_expanded": "999", "instance": "prb44171", "end_time": "1.51813611298e+12", "optimal_length": "16", "subject": "A1ZTSCPETU3UJW"}
{"rt": "25042.0", "trial_number": "2", "skipped": "False", "complete": "False", "assignment": "3XC1O3LBOTUGQEPEV3HM8W67X4RTLL", "start_time": "1.51813611498e+12", "human_length": "7", "nodes_expanded": "999", "instance": "prb44171", "end_time": "1.51813614002e+12", "optimal_length": "16", "subject": "A1ZTSCPETU3UJW"}
{"rt": "59930.0", "trial_number": "3", "skipped": "False", "complete": "True", "assignment": "3XC1O3LBOTUGQEPEV3HM8W67X4RTLL", "start_time": "1.51813614247e+12", "human_length": "29", "nodes_expanded": "999", "instance": "prb44171", "end_time": "1.5181362024e+12", "optimal_length": "16", "subject": "A1ZTSCPETU3UJW"}
{"rt": "28707.0", "trial_number": "0", "skipped": "False", "complete": "True", "assignment": "34BBWHLWHBJ6SUL255PK30LEGY5IWG", "start_time": "1.5163945602e+12", "human_length": "27", "nodes_expanded": "999", "instance": "prb44171", "end_time": "1.51639458890e+12", "optimal_length": "16", "subject": "A214HWAW1PYWO8"}
{"rt": "62675.0", "trial_number": "0", "skipped": "False", "complete": "False", "assignment": "3X87C8JFV7JQ2BSCY8KSFD9F2ILSQK", "start_time": "1.51674649423e+12", "human_length": "33", "nodes_expanded": "999", "instance": "prb44171", "end_time": "1.51674655691e+12", "optimal_length": "16", "subject": "A21S7MA9DCW95E"}
{"rt": "0.0", "trial_number": "1", "skipped": "False", "complete": "False", "assignment": "3X87C8JFV7JQ2BSCY8KSFD9F2ILSQK", "start_time": "1.51674659636e+12", "human_length": "1", "nodes_expanded": "999", "instance": "prb44171", "end_time": "1.51674659636e+12", "optimal_length": "16", "subject": "A21S7MA9DCW95E"}
{"rt": "0.0", "trial_number": "2", "skipped": "False", "complete": "False", "assignment": "3X87C8JFV7JQ2BSCY8KSFD9F2ILSQK", "start_time": "1.51674649423e+12", "human_length": "1", "nodes_expanded": "999", "instance": "prb44171", "end_time": "1.51674649423e+12", "optimal_length": "16", "subject": "A21S7MA9DCW95E"}
{"rt": "0.0", "trial_number": "3", "skipped": "False", "complete": "False", "assignment": "3X87C8JFV7JQ2BSCY8KSFD9F2ILSQK", "start_time": "1.51674659636e+12", "human_length": "1", "nodes_expanded": "999", "instance": "prb44171", "end_time": "1.51674659636e+12", "optimal_length": "16", "subject": "A21S7MA9DCW95E"}
{"rt": "0.0", "trial_number": "4", "skipped": "False", "complete": "False", "assignment": "3X87C8JFV7JQ2BSCY8KSFD9F2ILSQK", "start_time": "1.51674649423e+12", "human_length": "1", "nodes_expanded": "999", "instance": "prb44171", "end_time": "1.51674649423e+12", "optimal_length": "16", "subject": "A21S7MA9DCW95E"}
{"rt": "82076.0", "trial_number": "5", "skipped": "True", "complete": "False", "assignment": "3X87C8JFV7JQ2BSCY8KSFD9F2ILSQK", "start_time": "1.51674659636e+12", "human_length": "205", "nodes_expanded": "999", "instance": "prb44171", "end_time": "1.51674667844e+12", "optimal_length": "16", "subject": "A21S7MA9DCW95E"}
{"rt": "62675.0", "trial_number": "0", "skipped": "False", "complete": "False", "assignment": "3X87C8JFV7JQ2BSCY8KSFD9F2ILSQK", "start_time": "1.51674649423e+12", "human_length": "33", "nodes_expanded": "999", "instance": "prb44171", "end_time": "1.51674655691e+12", "optimal_length": "16", "subject": "A21S7MA9DCW95E"}
{"rt": "82076.0", "trial_number": "1", "skipped": "True", "complete": "False", "assignment": "3X87C8JFV7JQ2BSCY8KSFD9F2ILSQK", "start_time": "1.51674659636e+12", "human_length": "51", "nodes_expanded": "999", "instance": "prb44171", "end_time": "1.51674667844e+12", "optimal_length": "16", "subject": "A21S7MA9DCW95E"}
{"rt": "0.0", "trial_number": "0", "skipped": "False", "complete": "False", "assignment": "3IHR8NYAM89M0EPM8U9LH53ZJDTP4U", "start_time": "1.5168267911e+12", "human_length": "1", "nodes_expanded": "999", "instance": "prb44171", "end_time": "1.5168267911e+12", "optimal_length": "16", "subject": "A23437BMZ5T1FH"}
{"rt": "64281.0", "trial_number": "1", "skipped": "True", "complete": "False", "assignment": "3IHR8NYAM89M0EPM8U9LH53ZJDTP4U", "start_time": "1.5168267911e+12", "human_length": "115", "nodes_expanded": "999", "instance": "prb44171", "end_time": "1.51682685538e+12", "optimal_length": "16", "subject": "A23437BMZ5T1FH"}
{"rt": "104298.0", "trial_number": "0", "skipped": "False", "complete": "True", "assignment": "3ZV9H2YQQEFR2R3JK2IXZUJPXAF3WW", "start_time": "1.51630659788e+12", "human_length": "37", "nodes_expanded": "999", "instance": "prb44171", "end_time": "1.51630670218e+12", "optimal_length": "16", "subject": "A289D98Z4GAZ28"}
{"rt": "40737.0", "trial_number": "0", "skipped": "True", "complete": "False", "assignment": "3SITXWYCNWHBUMCM90TPJWV8Y7AXBW", "start_time": "1.51816534826e+12", "human_length": "22", "nodes_expanded": "999", "instance": "prb44171", "end_time": "1.518165389e+12", "optimal_length": "16", "subject": "A28RX7L0QZ993M"}
{"rt": "0.0", "trial_number": "0", "skipped": "False", "complete": "False", "assignment": "3X4MXAO0BHWJLTOLVSJTHSM54OHWRG", "start_time": "1.51682344233e+12", "human_length": "1", "nodes_expanded": "999", "instance": "prb44171", "end_time": "1.51682344233e+12", "optimal_length": "16", "subject": "A2IBQA01NR5N76"}
{"rt": "105560.0", "trial_number": "1", "skipped": "False", "complete": "True", "assignment": "3X4MXAO0BHWJLTOLVSJTHSM54OHWRG", "start_time": "1.51682344233e+12", "human_length": "72", "nodes_expanded": "999", "instance": "prb44171", "end_time": "1.51682354789e+12", "optimal_length": "16", "subject": "A2IBQA01NR5N76"}
{"rt": "105560.0", "trial_number": "0", "skipped": "False", "complete": "True", "assignment": "3X4MXAO0BHWJLTOLVSJTHSM54OHWRG", "start_time": "1.51682344233e+12", "human_length": "72", "nodes_expanded": "999", "instance": "prb44171", "end_time": "1.51682354789e+12", "optimal_length": "16", "subject": "A2IBQA01NR5N76"}
{"rt": "178967.0", "trial_number": "0", "skipped": "False", "complete": "True", "assignment": "3TYCR1GOTDRCCQYD1V64UK7OE48LZS", "start_time": "1.51639184336e+12", "human_length": "106", "nodes_expanded": "999", "instance": "prb44171", "end_time": "1.51639202233e+12", "optimal_length": "16", "subject": "A2MYB6MLQW0IGN"}
{"rt": "68785.0", "trial_number": "0", "skipped": "True", "complete": "False", "assignment": "3TAYZSBPLMG9ASQRWXURJVBCPLN2SH", "start_time": "1.51813583163e+12", "human_length": "35", "nodes_expanded": "999", "instance": "prb44171", "end_time": "1.51813590042e+12", "optimal_length": "16", "subject": "A2RCYLKY072XXO"}
{"rt": "0.0", "trial_number": "0", "skipped": "False", "complete": "False", "assignment": "3IJXV6UZ1YR1KY4G6BFEG1DXP7SRI1", "start_time": "1.51674990142e+12", "human_length": "1", "nodes_expanded": "999", "instance": "prb44171", "end_time": "1.51674990142e+12", "optimal_length": "16", "subject": "A2RTJ6BDY0DZVZ"}
{"rt": "0.0", "trial_number": "1", "skipped": "False", "complete": "False", "assignment": "3IJXV6UZ1YR1KY4G6BFEG1DXP7SRI1", "start_time": "1.51674990142e+12", "human_length": "1", "nodes_expanded": "999", "instance": "prb44171", "end_time": "1.51674990142e+12", "optimal_length": "16", "subject": "A2RTJ6BDY0DZVZ"}
{"rt": "59133.0", "trial_number": "2", "skipped": "False", "complete": "True", "assignment": "3IJXV6UZ1YR1KY4G6BFEG1DXP7SRI1", "start_time": "1.51674990142e+12", "human_length": "35", "nodes_expanded": "999", "instance": "prb44171", "end_time": "1.51674996055e+12", "optimal_length": "16", "subject": "A2RTJ6BDY0DZVZ"}
{"rt": "59133.0", "trial_number": "0", "skipped": "False", "complete": "True", "assignment": "3IJXV6UZ1YR1KY4G6BFEG1DXP7SRI1", "start_time": "1.51674990142e+12", "human_length": "35", "nodes_expanded": "999", "instance": "prb44171", "end_time": "1.51674996055e+12", "optimal_length": "16", "subject": "A2RTJ6BDY0DZVZ"}
{"rt": "0.0", "trial_number": "0", "skipped": "False", "complete": "False", "assignment": "3WSELTNVR4AZUVYAYCSWZIQW0J4ATB", "start_time": "1.51674000923e+12", "human_length": "1", "nodes_expanded": "999", "instance": "prb44171", "end_time": "1.51674000923e+12", "optimal_length": "16", "subject": "A2TQNX64349OZ9"}
{"rt": "0.0", "trial_number": "1", "skipped": "False", "complete": "False", "assignment": "3WSELTNVR4AZUVYAYCSWZIQW0J4ATB", "start_time": "1.51674000923e+12", "human_length": "1", "nodes_expanded": "999", "instance": "prb44171", "end_time": "1.51674000923e+12", "optimal_length": "16", "subject": "A2TQNX64349OZ9"}
{"rt": "36453.0", "trial_number": "2", "skipped": "True", "complete": "False", "assignment": "3WSELTNVR4AZUVYAYCSWZIQW0J4ATB", "start_time": "1.51674000923e+12", "human_length": "72", "nodes_expanded": "999", "instance": "prb44171", "end_time": "1.51674004568e+12", "optimal_length": "16", "subject": "A2TQNX64349OZ9"}
{"rt": "36453.0", "trial_number": "0", "skipped": "True", "complete": "False", "assignment": "3WSELTNVR4AZUVYAYCSWZIQW0J4ATB", "start_time": "1.51674000923e+12", "human_length": "28", "nodes_expanded": "999", "instance": "prb44171", "end_time": "1.51674004568e+12", "optimal_length": "16", "subject": "A2TQNX64349OZ9"}
{"rt": "0.0", "trial_number": "0", "skipped": "False", "complete": "False", "assignment": "3EWIJTFFVPF14ZIVGF68BQEIRXP0ER", "start_time": "1.51815112187e+12", "human_length": "1", "nodes_expanded": "999", "instance": "prb44171", "end_time": "1.51815112187e+12", "optimal_length": "16", "subject": "A30AGR5KF8IEL"}
{"rt": "0.0", "trial_number": "1", "skipped": "False", "complete": "False", "assignment": "3EWIJTFFVPF14ZIVGF68BQEIRXP0ER", "start_time": "1.5181511347e+12", "human_length": "1", "nodes_expanded": "999", "instance": "prb44171", "end_time": "1.5181511347e+12", "optimal_length": "16", "subject": "A30AGR5KF8IEL"}
{"rt": "70.0", "trial_number": "2", "skipped": "False", "complete": "False", "assignment": "3EWIJTFFVPF14ZIVGF68BQEIRXP0ER", "start_time": "1.51815113725e+12", "human_length": "2", "nodes_expanded": "999", "instance": "prb44171", "end_time": "1.51815113732e+12", "optimal_length": "16", "subject": "A30AGR5KF8IEL"}
{"rt": "33022.0", "trial_number": "3", "skipped": "False", "complete": "True", "assignment": "3EWIJTFFVPF14ZIVGF68BQEIRXP0ER", "start_time": "1.51815115271e+12", "human_length": "23", "nodes_expanded": "999", "instance": "prb44171", "end_time": "1.51815118573e+12", "optimal_length": "16", "subject": "A30AGR5KF8IEL"}
{"rt": "119643.0", "trial_number": "0", "skipped": "False", "complete": "True", "assignment": "37TD41K0AIHM8AITTQJXV8KY05QCSB", "start_time": "1.5175263579e+12", "human_length": "67", "nodes_expanded": "999", "instance": "prb44171", "end_time": "1.51752647754e+12", "optimal_length": "16", "subject": "A30KYQGABO7JER"}
{"rt": "358000.0", "trial_number": "0", "skipped": "False", "complete": "True", "assignment": "36AHBNMV1SKT9O0GSS6XX0QHZV3YDN", "start_time": "1.51630438836e+12", "human_length": "34", "nodes_expanded": "999", "instance": "prb44171", "end_time": "1.51630474636e+12", "optimal_length": "16", "subject": "A39GADIK8RLMVC"}
{"rt": "740854.0", "trial_number": "0", "skipped": "True", "complete": "False", "assignment": "3E1QT0TDFQHV2TPK729EPKIS2ND8IY", "start_time": "1.51813715392e+12", "human_length": "103", "nodes_expanded": "999", "instance": "prb44171", "end_time": "1.51813789477e+12", "optimal_length": "16", "subject": "A3BXT78QXFC6F3"}
{"rt": "32839.0", "trial_number": "0", "skipped": "False", "complete": "True", "assignment": "34HJIJKLP64Z5YMIU6IKNXSH7PDV4I", "start_time": "1.51794249613e+12", "human_length": "19", "nodes_expanded": "999", "instance": "prb44171", "end_time": "1.51794252897e+12", "optimal_length": "16", "subject": "A3CTXNQ2GXIQSP"}
{"rt": "23183.0", "trial_number": "0", "skipped": "False", "complete": "True", "assignment": "3TPWUS5F8A9FFRZ2DVTYSXNJ6BWWC6", "start_time": "1.51794069026e+12", "human_length": "17", "nodes_expanded": "999", "instance": "prb44171", "end_time": "1.51794071344e+12", "optimal_length": "16", "subject": "A3GXC3VG37CQ3G"}
{"rt": "0.0", "trial_number": "0", "skipped": "False", "complete": "False", "assignment": "3I2PTA7R3U2SESF4TZBQORI5LSJQKK", "start_time": "1.51675995346e+12", "human_length": "1", "nodes_expanded": "999", "instance": "prb44171", "end_time": "1.51675995346e+12", "optimal_length": "16", "subject": "A3NMQ3019X6YE0"}
{"rt": "0.0", "trial_number": "1", "skipped": "False", "complete": "False", "assignment": "3I2PTA7R3U2SESF4TZBQORI5LSJQKK", "start_time": "1.51675995346e+12", "human_length": "1", "nodes_expanded": "999", "instance": "prb44171", "end_time": "1.51675995346e+12", "optimal_length": "16", "subject": "A3NMQ3019X6YE0"}
{"rt": "48099.0", "trial_number": "2", "skipped": "False", "complete": "True", "assignment": "3I2PTA7R3U2SESF4TZBQORI5LSJQKK", "start_time": "1.51675995346e+12", "human_length": "28", "nodes_expanded": "999", "instance": "prb44171", "end_time": "1.51676000156e+12", "optimal_length": "16", "subject": "A3NMQ3019X6YE0"}
{"rt": "131095.0", "trial_number": "3", "skipped": "False", "complete": "True", "assignment": "3V5Q80FXIYZ5QB5C6ITQBN30WY823U", "start_time": "1.5175340258e+12", "human_length": "82", "nodes_expanded": "999", "instance": "prb44171", "end_time": "1.5175341569e+12", "optimal_length": "16", "subject": "A3NMQ3019X6YE0"}
{"rt": "48099.0", "trial_number": "0", "skipped": "False", "complete": "True", "assignment": "3I2PTA7R3U2SESF4TZBQORI5LSJQKK", "start_time": "1.51675995346e+12", "human_length": "28", "nodes_expanded": "999", "instance": "prb44171", "end_time": "1.51676000156e+12", "optimal_length": "16", "subject": "A3NMQ3019X6YE0"}
{"rt": "131095.0", "trial_number": "1", "skipped": "False", "complete": "True", "assignment": "3V5Q80FXIYZ5QB5C6ITQBN30WY823U", "start_time": "1.5175340258e+12", "human_length": "82", "nodes_expanded": "999", "instance": "prb44171", "end_time": "1.5175341569e+12", "optimal_length": "16", "subject": "A3NMQ3019X6YE0"}
{"rt": "12467.0", "trial_number": "0", "skipped": "False", "complete": "False", "assignment": "3STRJBFXOXZ5687WA35LTWTS7QZKTT", "start_time": "1.51794369247e+12", "human_length": "7", "nodes_expanded": "999", "instance": "prb44171", "end_time": "1.51794370494e+12", "optimal_length": "16", "subject": "A3OB6REG5CGHK1"}
{"rt": "26491.0", "trial_number": "1", "skipped": "False", "complete": "False", "assignment": "3STRJBFXOXZ5687WA35LTWTS7QZKTT", "start_time": "1.5179437105e+12", "human_length": "13", "nodes_expanded": "999", "instance": "prb44171", "end_time": "1.51794373699e+12", "optimal_length": "16", "subject": "A3OB6REG5CGHK1"}
{"rt": "50821.0", "trial_number": "2", "skipped": "False", "complete": "False", "assignment": "3STRJBFXOXZ5687WA35LTWTS7QZKTT", "start_time": "1.51794373853e+12", "human_length": "30", "nodes_expanded": "999", "instance": "prb44171", "end_time": "1.51794378935e+12", "optimal_length": "16", "subject": "A3OB6REG5CGHK1"}
{"rt": "22114.0", "trial_number": "3", "skipped": "False", "complete": "True", "assignment": "3STRJBFXOXZ5687WA35LTWTS7QZKTT", "start_time": "1.51794379298e+12", "human_length": "21", "nodes_expanded": "999", "instance": "prb44171", "end_time": "1.5179438151e+12", "optimal_length": "16", "subject": "A3OB6REG5CGHK1"}
{"rt": "0.0", "trial_number": "0", "skipped": "False", "complete": "False", "assignment": "3X87C8JFV7JQ2BSCY8KSFD9F2ILSQK", "start_time": "1.51673950193e+12", "human_length": "1", "nodes_expanded": "999", "instance": "prb44171", "end_time": "1.51673950193e+12", "optimal_length": "16", "subject": "A3Q0XAGQ7TD7MP"}
{"rt": "0.0", "trial_number": "1", "skipped": "False", "complete": "False", "assignment": "3X87C8JFV7JQ2BSCY8KSFD9F2ILSQK", "start_time": "1.51673950193e+12", "human_length": "1", "nodes_expanded": "999", "instance": "prb44171", "end_time": "1.51673950193e+12", "optimal_length": "16", "subject": "A3Q0XAGQ7TD7MP"}
{"rt": "37407.0", "trial_number": "2", "skipped": "False", "complete": "True", "assignment": "3X87C8JFV7JQ2BSCY8KSFD9F2ILSQK", "start_time": "1.51673950193e+12", "human_length": "20", "nodes_expanded": "999", "instance": "prb44171", "end_time": "1.51673953934e+12", "optimal_length": "16", "subject": "A3Q0XAGQ7TD7MP"}
{"rt": "51184.0", "trial_number": "3", "skipped": "False", "complete": "True", "assignment": "3GLB5JMZFY3TNXFGYMKRQ0JDXNTDGZ", "start_time": "1.51794595655e+12", "human_length": "25", "nodes_expanded": "999", "instance": "prb44171", "end_time": "1.51794600773e+12", "optimal_length": "16", "subject": "A3Q0XAGQ7TD7MP"}
{"rt": "37407.0", "trial_number": "0", "skipped": "False", "complete": "True", "assignment": "3X87C8JFV7JQ2BSCY8KSFD9F2ILSQK", "start_time": "1.51673950193e+12", "human_length": "20", "nodes_expanded": "999", "instance": "prb44171", "end_time": "1.51673953934e+12", "optimal_length": "16", "subject": "A3Q0XAGQ7TD7MP"}
{"rt": "51184.0", "trial_number": "1", "skipped": "False", "complete": "True", "assignment": "3GLB5JMZFY3TNXFGYMKRQ0JDXNTDGZ", "start_time": "1.51794595655e+12", "human_length": "25", "nodes_expanded": "999", "instance": "prb44171", "end_time": "1.51794600773e+12", "optimal_length": "16", "subject": "A3Q0XAGQ7TD7MP"}
{"rt": "40702.0", "trial_number": "0", "skipped": "False", "complete": "True", "assignment": "3M0BCWMB8W4W5M7WZVX3HDH1P53WB1", "start_time": "1.51816024059e+12", "human_length": "26", "nodes_expanded": "999", "instance": "prb44171", "end_time": "1.51816028129e+12", "optimal_length": "16", "subject": "A53S7J4JGWG38"}
{"rt": "32932.0", "trial_number": "0", "skipped": "False", "complete": "True", "assignment": "3IXEICO793RY7TM78ZBKJDOA7ADT6Q", "start_time": "1.51816724043e+12", "human_length": "28", "nodes_expanded": "999", "instance": "prb44171", "end_time": "1.51816727336e+12", "optimal_length": "16", "subject": "ALH1K6ZAQQMN7"}
{"rt": "86520.0", "trial_number": "0", "skipped": "False", "complete": "True", "assignment": "37QW5D2ZRHUKW7SGCE3STMOFBMK8SX", "start_time": "1.518156866e+12", "human_length": "63", "nodes_expanded": "999", "instance": "prb44171", "end_time": "1.51815695252e+12", "optimal_length": "16", "subject": "AMW2XLD9443OH"}
{"rt": "77517.0", "trial_number": "0", "skipped": "False", "complete": "True", "assignment": "36H9ULYP6320CJJDXY0KBDEE1Z3JFB", "start_time": "1.51753165144e+12", "human_length": "30", "nodes_expanded": "999", "instance": "prb44171", "end_time": "1.51753172896e+12", "optimal_length": "16", "subject": "AN098C29EGJ6"}
{"rt": "57632.0", "trial_number": "0", "skipped": "False", "complete": "True", "assignment": "3AZHRG4CU5SYU12YRVPCSZALW5003R", "start_time": "1.51630553176e+12", "human_length": "57", "nodes_expanded": "999", "instance": "prb44171", "end_time": "1.5163055894e+12", "optimal_length": "16", "subject": "ARWF605I7RWM7"}
{"rt": "217808.0", "trial_number": "0", "skipped": "True", "complete": "False", "assignment": "3R3YRB5GRGBEU8DZYHI64ECYM60UAW", "start_time": "1.51814109919e+12", "human_length": "62", "nodes_expanded": "999", "instance": "prb44171", "end_time": "1.51814131699e+12", "optimal_length": "16", "subject": "AVI7K876BV3QL"}
{"rt": "59490.0", "trial_number": "0", "skipped": "False", "complete": "True", "assignment": "33PPO7FECWN7JOLBOAKUBCWTC0AIDL", "start_time": "1.51795156406e+12", "human_length": "19", "nodes_expanded": "999", "instance": "prb44171", "end_time": "1.51795162355e+12", "optimal_length": "16", "subject": "AXKM02NVXNGOM"}
