{"rt": "30066.0", "trial_number": "0", "skipped": "False", "complete": "True", "assignment": "3TYCR1GOTDRCCQYD1V64UK7OHTBZLQ", "start_time": "1.51753731819e+12", "human_length": "31", "nodes_expanded": "999", "instance": "prb46580", "end_time": "1.51753734826e+12", "optimal_length": "16", "subject": "A13BZCNJ0WR1T7"}
{"rt": "0.0", "trial_number": "0", "skipped": "False", "complete": "False", "assignment": "3YW4XOSQKRTI0K0Z2YPDTDJVFABU1I", "start_time": "1.51682185993e+12", "human_length": "1", "nodes_expanded": "999", "instance": "prb46580", "end_time": "1.51682185993e+12", "optimal_length": "16", "subject": "A15781PHGW377Y"}
{"rt": "73949.0", "trial_number": "1", "skipped": "False", "complete": "True", "assignment": "3YW4XOSQKRTI0K0Z2YPDTDJVFABU1I", "start_time": "1.51682185993e+12", "human_length": "28", "nodes_expanded": "999", "instance": "prb46580", "end_time": "1.51682193388e+12", "optimal_length": "16", "subject": "A15781PHGW377Y"}
{"rt": "73949.0", "trial_number": "0", "skipped": "False", "complete": "True", "assignment": "3YW4XOSQKRTI0K0Z2YPDTDJVFABU1I", "start_time": "1.51682185993e+12", "human_length": "28", "nodes_expanded": "999", "instance": "prb46580", "end_time": "1.51682193388e+12", "optimal_length": "16", "subject": "A15781PHGW377Y"}
{"rt": "45347.0", "trial_number": "0", "skipped": "False", "complete": "True", "assignment": "3TS1AR6UQRM7SOIBWPBN8N9589Y7FV", "start_time": "1.5168426014e+12", "human_length": "33", "nodes_expanded": "999", "instance": "prb46580", "end_time": "1.51684264675e+12", "optimal_length": "16", "subject": "A15FXHC1CVNW31"}
{"rt": "0.0", "trial_number": "0", "skipped": "False", "complete": "False", "assignment": "3VE8AYVF8N5BS2NU6U3TMN50JMNF8V", "start_time": "1.51673593616e+12", "human_length": "1", "nodes_expanded": "999", "instance": "prb46580", "end_time": "1.51673593616e+12", "optimal_length": "16", "subject": "A18QU0YQB6Q8DF"}
{"rt": "0.0", "trial_number": "1", "skipped": "False", "complete": "False", "assignment": "3VE8AYVF8N5BS2NU6U3TMN50JMNF8V", "start_time": "1.51673593616e+12", "human_length": "1", "nodes_expanded": "999", "instance": "prb46580", "end_time": "1.51673593616e+12", "optimal_length": "16", "subject": "A18QU0YQB6Q8DF"}
{"rt": "57335.0", "trial_number": "2", "skipped": "True", "complete": "False", "assignment": "3VE8AYVF8N5BS2NU6U3TMN50JMNF8V", "start_time": "1.51673593616e+12", "human_length": "58", "nodes_expanded": "999", "instance": "prb46580", "end_time": "1.51673599349e+12", "optimal_length": "16", "subject": "A18QU0YQB6Q8DF"}
{"rt": "57335.0", "trial_number": "0", "skipped": "True", "complete": "False", "assignment": "3VE8AYVF8N5BS2NU6U3TMN50JMNF8V", "start_time": "1.51673593616e+12", "human_length": "22", "nodes_expanded": "999", "instance": "prb46580", "end_time": "1.51673599349e+12", "optimal_length": "16", "subject": "A18QU0YQB6Q8DF"}
{"rt": "35373.0", "trial_number": "0", "skipped": "False", "complete": "True", "assignment": "3IJXV6UZ1YR1KY4G6BFEG1DXR47RIC", "start_time": "1.51797371321e+12", "human_length": "37", "nodes_expanded": "999", "instance": "prb46580", "end_time": "1.51797374859e+12", "optimal_length": "16", "subject": "A18T3WK7J16C1B"}
{"rt": "20514.0", "trial_number": "0", "skipped": "False", "complete": "True", "assignment": "3PMBY0YE28B43VMUKKJ6EDF85RV9C8", "start_time": "1.51638792428e+12", "human_length": "20", "nodes_expanded": "999", "instance": "prb46580", "end_time": "1.5163879448e+12", "optimal_length": "16", "subject": "A191V7PT3DQKDP"}
{"rt": "25570.0", "trial_number": "0", "skipped": "False", "complete": "True", "assignment": "3ZSANO2JCGFTBM23KS9Y3E51YP4FSQ", "start_time": "1.51814289432e+12", "human_length": "28", "nodes_expanded": "999", "instance": "prb46580", "end_time": "1.51814291989e+12", "optimal_length": "16", "subject": "A1F42D4L22K5ND"}
{"rt": "76083.0", "trial_number": "0", "skipped": "False", "complete": "True", "assignment": "3TS1AR6UQRM7SOIBWPBN8N9589Y7FV", "start_time": "1.5168394849e+12", "human_length": "55", "nodes_expanded": "999", "instance": "prb46580", "end_time": "1.51683956098e+12", "optimal_length": "16", "subject": "A1F4N58CAX8IMK"}
{"rt": "52964.0", "trial_number": "1", "skipped": "False", "complete": "True", "assignment": "35DR22AR5ES6RR89U7EJ1DXW91AX3P", "start_time": "1.51795310652e+12", "human_length": "62", "nodes_expanded": "999", "instance": "prb46580", "end_time": "1.51795315948e+12", "optimal_length": "16", "subject": "A1F4N58CAX8IMK"}
{"rt": "27853.0", "trial_number": "0", "skipped": "False", "complete": "True", "assignment": "33F859I567LE8WC74WB3GA7E94XBHW", "start_time": "1.51796896047e+12", "human_length": "23", "nodes_expanded": "999", "instance": "prb46580", "end_time": "1.51796898832e+12", "optimal_length": "16", "subject": "A1GQS6USF2JEYG"}
{"rt": "19653.0", "trial_number": "0", "skipped": "False", "complete": "True", "assignment": "3XLBSAQ9Z5KDX59BX15UBFPNNHYZ7Q", "start_time": "1.51814723021e+12", "human_length": "19", "nodes_expanded": "999", "instance": "prb46580", "end_time": "1.51814724986e+12", "optimal_length": "16", "subject": "A1HFNOKU591WCY"}
{"rt": "21425.0", "trial_number": "0", "skipped": "False", "complete": "True", "assignment": "3FTF2T8WLSQDHTSZ1BJ7Q7MB14SW9H", "start_time": "1.51813610433e+12", "human_length": "19", "nodes_expanded": "999", "instance": "prb46580", "end_time": "1.51813612575e+12", "optimal_length": "16", "subject": "A1IUH9D7N69VS"}
{"rt": "0.0", "trial_number": "0", "skipped": "False", "complete": "False", "assignment": "3VE8AYVF8N5BS2NU6U3TMN50MV38FP", "start_time": "1.51814437962e+12", "human_length": "1", "nodes_expanded": "999", "instance": "prb46580", "end_time": "1.51814437962e+12", "optimal_length": "16", "subject": "A1JN13098RIE78"}
{"rt": "0.0", "trial_number": "1", "skipped": "False", "complete": "False", "assignment": "3VE8AYVF8N5BS2NU6U3TMN50MV38FP", "start_time": "1.51814437963e+12", "human_length": "1", "nodes_expanded": "999", "instance": "prb46580", "end_time": "1.51814437963e+12", "optimal_length": "16", "subject": "A1JN13098RIE78"}
{"rt": "19812.0", "trial_number": "2", "skipped": "False", "complete": "False", "assignment": "3VE8AYVF8N5BS2NU6U3TMN50MV38FP", "start_time": "1.51814437964e+12", "human_length": "2", "nodes_expanded": "999", "instance": "prb46580", "end_time": "1.51814439945e+12", "optimal_length": "16", "subject": "A1JN13098RIE78"}
{"rt": "61521.0", "trial_number": "3", "skipped": "False", "complete": "False", "assignment": "3VE8AYVF8N5BS2NU6U3TMN50MV38FP", "start_time": "1.51814440272e+12", "human_length": "32", "nodes_expanded": "999", "instance": "prb46580", "end_time": "1.51814446424e+12", "optimal_length": "16", "subject": "A1JN13098RIE78"}
{"rt": "8245.0", "trial_number": "4", "skipped": "False", "complete": "False", "assignment": "3VE8AYVF8N5BS2NU6U3TMN50MV38FP", "start_time": "1.51814459568e+12", "human_length": "3", "nodes_expanded": "999", "instance": "prb46580", "end_time": "1.51814460393e+12", "optimal_length": "16", "subject": "A1JN13098RIE78"}
{"rt": "55.0", "trial_number": "5", "skipped": "False", "complete": "False", "assignment": "3VE8AYVF8N5BS2NU6U3TMN50MV38FP", "start_time": "1.51814460587e+12", "human_length": "2", "nodes_expanded": "999", "instance": "prb46580", "end_time": "1.51814460592e+12", "optimal_length": "16", "subject": "A1JN13098RIE78"}
{"rt": "0.0", "trial_number": "6", "skipped": "False", "complete": "False", "assignment": "3VE8AYVF8N5BS2NU6U3TMN50MV38FP", "start_time": "1.51814460747e+12", "human_length": "1", "nodes_expanded": "999", "instance": "prb46580", "end_time": "1.51814460747e+12", "optimal_length": "16", "subject": "A1JN13098RIE78"}
{"rt": "0.0", "trial_number": "7", "skipped": "False", "complete": "False", "assignment": "3VE8AYVF8N5BS2NU6U3TMN50MV38FP", "start_time": "1.5181446075e+12", "human_length": "1", "nodes_expanded": "999", "instance": "prb46580", "end_time": "1.5181446075e+12", "optimal_length": "16", "subject": "A1JN13098RIE78"}
{"rt": "0.0", "trial_number": "8", "skipped": "False", "complete": "False", "assignment": "3VE8AYVF8N5BS2NU6U3TMN50MV38FP", "start_time": "1.51814460889e+12", "human_length": "1", "nodes_expanded": "999", "instance": "prb46580", "end_time": "1.51814460889e+12", "optimal_length": "16", "subject": "A1JN13098RIE78"}
{"rt": "0.0", "trial_number": "9", "skipped": "False", "complete": "False", "assignment": "3VE8AYVF8N5BS2NU6U3TMN50MV38FP", "start_time": "1.51814460938e+12", "human_length": "1", "nodes_expanded": "999", "instance": "prb46580", "end_time": "1.51814460938e+12", "optimal_length": "16", "subject": "A1JN13098RIE78"}
{"rt": "36280.0", "trial_number": "10", "skipped": "True", "complete": "False", "assignment": "3VE8AYVF8N5BS2NU6U3TMN50MV38FP", "start_time": "1.51814465191e+12", "human_length": "16", "nodes_expanded": "999", "instance": "prb46580", "end_time": "1.51814468819e+12", "optimal_length": "16", "subject": "A1JN13098RIE78"}
{"rt": "0.0", "trial_number": "0", "skipped": "False", "complete": "False", "assignment": "3YW4XOSQKRTI0K0Z2YPDTDJVFABU1I", "start_time": "1.51683157738e+12", "human_length": "1", "nodes_expanded": "999", "instance": "prb46580", "end_time": "1.51683157738e+12", "optimal_length": "16", "subject": "A1LR0VQIHQUJAM"}
{"rt": "102941.0", "trial_number": "1", "skipped": "False", "complete": "True", "assignment": "3YW4XOSQKRTI0K0Z2YPDTDJVFABU1I", "start_time": "1.51683157738e+12", "human_length": "63", "nodes_expanded": "999", "instance": "prb46580", "end_time": "1.51683168032e+12", "optimal_length": "16", "subject": "A1LR0VQIHQUJAM"}
{"rt": "38739.0", "trial_number": "0", "skipped": "True", "complete": "False", "assignment": "31LM9EDVOM0C0BWUVMJXJINN3QPJNI", "start_time": "1.51752556692e+12", "human_length": "6", "nodes_expanded": "999", "instance": "prb46580", "end_time": "1.51752560565e+12", "optimal_length": "16", "subject": "A1NT8BT94ME6F5"}
{"rt": "62655.0", "trial_number": "0", "skipped": "False", "complete": "False", "assignment": "3SB5N7Y3O4CZODEMMAWWBTZU4C90GB", "start_time": "1.51813971203e+12", "human_length": "33", "nodes_expanded": "999", "instance": "prb46580", "end_time": "1.51813977469e+12", "optimal_length": "16", "subject": "A1RVMADIZE3BXK"}
{"rt": "90910.0", "trial_number": "1", "skipped": "False", "complete": "True", "assignment": "3SB5N7Y3O4CZODEMMAWWBTZU4C90GB", "start_time": "1.51813982831e+12", "human_length": "25", "nodes_expanded": "999", "instance": "prb46580", "end_time": "1.51813991922e+12", "optimal_length": "16", "subject": "A1RVMADIZE3BXK"}
{"rt": "75255.0", "trial_number": "0", "skipped": "False", "complete": "True", "assignment": "3RUIQRXJBCWS71H9MUFVM5WQ3SCLLJ", "start_time": "1.51815739569e+12", "human_length": "45", "nodes_expanded": "999", "instance": "prb46580", "end_time": "1.51815747095e+12", "optimal_length": "16", "subject": "A1SJRFJWFXSDH4"}
{"rt": "28740.0", "trial_number": "0", "skipped": "False", "complete": "True", "assignment": "3PB5A5BD0WED6OE679H5Q89HBDGG71", "start_time": "1.51795268783e+12", "human_length": "20", "nodes_expanded": "999", "instance": "prb46580", "end_time": "1.51795271657e+12", "optimal_length": "16", "subject": "A1USR9JCAMDGM3"}
{"rt": "41074.0", "trial_number": "0", "skipped": "False", "complete": "True", "assignment": "3XC1O3LBOTUGQEPEV3HM8W67X4RTLL", "start_time": "1.51813672444e+12", "human_length": "22", "nodes_expanded": "999", "instance": "prb46580", "end_time": "1.51813676552e+12", "optimal_length": "16", "subject": "A1ZTSCPETU3UJW"}
{"rt": "27713.0", "trial_number": "0", "skipped": "False", "complete": "True", "assignment": "34BBWHLWHBJ6SUL255PK30LEGY5IWG", "start_time": "1.51639441343e+12", "human_length": "22", "nodes_expanded": "999", "instance": "prb46580", "end_time": "1.51639444114e+12", "optimal_length": "16", "subject": "A214HWAW1PYWO8"}
{"rt": "0.0", "trial_number": "0", "skipped": "False", "complete": "False", "assignment": "3X87C8JFV7JQ2BSCY8KSFD9F2ILSQK", "start_time": "1.51674564591e+12", "human_length": "1", "nodes_expanded": "999", "instance": "prb46580", "end_time": "1.51674564591e+12", "optimal_length": "16", "subject": "A21S7MA9DCW95E"}
{"rt": "0.0", "trial_number": "1", "skipped": "False", "complete": "False", "assignment": "3X87C8JFV7JQ2BSCY8KSFD9F2ILSQK", "start_time": "1.51674564591e+12", "human_length": "1", "nodes_expanded": "999", "instance": "prb46580", "end_time": "1.51674564591e+12", "optimal_length": "16", "subject": "A21S7MA9DCW95E"}
{"rt": "51668.0", "trial_number": "2", "skipped": "False", "complete": "True", "assignment": "3X87C8JFV7JQ2BSCY8KSFD9F2ILSQK", "start_time": "1.51674564591e+12", "human_length": "32", "nodes_expanded": "999", "instance": "prb46580", "end_time": "1.51674569758e+12", "optimal_length": "16", "subject": "A21S7MA9DCW95E"}
{"rt": "51668.0", "trial_number": "0", "skipped": "False", "complete": "True", "assignment": "3X87C8JFV7JQ2BSCY8KSFD9F2ILSQK", "start_time": "1.51674564591e+12", "human_length": "32", "nodes_expanded": "999", "instance": "prb46580", "end_time": "1.51674569758e+12", "optimal_length": "16", "subject": "A21S7MA9DCW95E"}
{"rt": "0.0", "trial_number": "0", "skipped": "False", "complete": "False", "assignment": "3IHR8NYAM89M0EPM8U9LH53ZJDTP4U", "start_time": "1.51682610808e+12", "human_length": "1", "nodes_expanded": "999", "instance": "prb46580", "end_time": "1.51682610808e+12", "optimal_length": "16", "subject": "A23437BMZ5T1FH"}
{"rt": "32287.0", "trial_number": "1", "skipped": "True", "complete": "False", "assignment": "3IHR8NYAM89M0EPM8U9LH53ZJDTP4U", "start_time": "1.51682610808e+12", "human_length": "48", "nodes_expanded": "999", "instance": "prb46580", "end_time": "1.51682614037e+12", "optimal_length": "16", "subject": "A23437BMZ5T1FH"}
{"rt": "186747.0", "trial_number": "0", "skipped": "False", "complete": "True", "assignment": "3TYCR1GOTDRCCQYD1V64UK7OE48LZS", "start_time": "1.51639062779e+12", "human_length": "98", "nodes_expanded": "999", "instance": "prb46580", "end_time": "1.51639081454e+12", "optimal_length": "16", "subject": "A2MYB6MLQW0IGN"}
{"rt": "45771.0", "trial_number": "0", "skipped": "False", "complete": "True", "assignment": "3TAYZSBPLMG9ASQRWXURJVBCPLN2SH", "start_time": "1.51813594372e+12", "human_length": "30", "nodes_expanded": "999", "instance": "prb46580", "end_time": "1.51813598949e+12", "optimal_length": "16", "subject": "A2RCYLKY072XXO"}
{"rt": "0.0", "trial_number": "0", "skipped": "False", "complete": "False", "assignment": "3IJXV6UZ1YR1KY4G6BFEG1DXP7SRI1", "start_time": "1.51675239288e+12", "human_length": "1", "nodes_expanded": "999", "instance": "prb46580", "end_time": "1.51675239288e+12", "optimal_length": "16", "subject": "A2RTJ6BDY0DZVZ"}
{"rt": "0.0", "trial_number": "1", "skipped": "False", "complete": "False", "assignment": "3IJXV6UZ1YR1KY4G6BFEG1DXP7SRI1", "start_time": "1.51675239288e+12", "human_length": "1", "nodes_expanded": "999", "instance": "prb46580", "end_time": "1.51675239288e+12", "optimal_length": "16", "subject": "A2RTJ6BDY0DZVZ"}
{"rt": "32122.0", "trial_number": "2", "skipped": "False", "complete": "True", "assignment": "3IJXV6UZ1YR1KY4G6BFEG1DXP7SRI1", "start_time": "1.51675239288e+12", "human_length": "28", "nodes_expanded": "999", "instance": "prb46580", "end_time": "1.51675242501e+12", "optimal_length": "16", "subject": "A2RTJ6BDY0DZVZ"}
{"rt": "32122.0", "trial_number": "0", "skipped": "False", "complete": "True", "assignment": "3IJXV6UZ1YR1KY4G6BFEG1DXP7SRI1", "start_time": "1.51675239288e+12", "human_length": "28", "nodes_expanded": "999", "instance": "prb46580", "end_time": "1.51675242501e+12", "optimal_length": "16", "subject": "A2RTJ6BDY0DZVZ"}
{"rt": "18321.0", "trial_number": "0", "skipped": "False", "complete": "False", "assignment": "3WSELTNVR4AZUVYAYCSWZIQW0J4ATB", "start_time": "1.51674006061e+12", "human_length": "17", "nodes_expanded": "999", "instance": "prb46580", "end_time": "1.51674007893e+12", "optimal_length": "16", "subject": "A2TQNX64349OZ9"}
{"rt": "0.0", "trial_number": "1", "skipped": "False", "complete": "False", "assignment": "3WSELTNVR4AZUVYAYCSWZIQW0J4ATB", "start_time": "1.51674008926e+12", "human_length": "1", "nodes_expanded": "999", "instance": "prb46580", "end_time": "1.51674008926e+12", "optimal_length": "16", "subject": "A2TQNX64349OZ9"}
{"rt": "0.0", "trial_number": "2", "skipped": "False", "complete": "False", "assignment": "3WSELTNVR4AZUVYAYCSWZIQW0J4ATB", "start_time": "1.51674006061e+12", "human_length": "1", "nodes_expanded": "999", "instance": "prb46580", "end_time": "1.51674006061e+12", "optimal_length": "16", "subject": "A2TQNX64349OZ9"}
{"rt": "0.0", "trial_number": "3", "skipped": "False", "complete": "False", "assignment": "3WSELTNVR4AZUVYAYCSWZIQW0J4ATB", "start_time": "1.51674008926e+12", "human_length": "1", "nodes_expanded": "999", "instance": "prb46580", "end_time": "1.51674008926e+12", "optimal_length": "16", "subject": "A2TQNX64349OZ9"}
{"rt": "0.0", "trial_number": "4", "skipped": "False", "complete": "False", "assignment": "3WSELTNVR4AZUVYAYCSWZIQW0J4ATB", "start_time": "1.51674006061e+12", "human_length": "1", "nodes_expanded": "999", "instance": "prb46580", "end_time": "1.51674006061e+12", "optimal_length": "16", "subject": "A2TQNX64349OZ9"}
{"rt": "49201.0", "trial_number": "5", "skipped": "True", "complete": "False", "assignment": "3WSELTNVR4AZUVYAYCSWZIQW0J4ATB", "start_time": "1.51674008926e+12", "human_length": "159", "nodes_expanded": "999", "instance": "prb46580", "end_time": "1.51674013846e+12", "optimal_length": "16", "subject": "A2TQNX64349OZ9"}
{"rt": "18321.0", "trial_number": "0", "skipped": "False", "complete": "False", "assignment": "3WSELTNVR4AZUVYAYCSWZIQW0J4ATB", "start_time": "1.51674006061e+12", "human_length": "17", "nodes_expanded": "999", "instance": "prb46580", "end_time": "1.51674007893e+12", "optimal_length": "16", "subject": "A2TQNX64349OZ9"}
{"rt": "49201.0", "trial_number": "1", "skipped": "True", "complete": "False", "assignment": "3WSELTNVR4AZUVYAYCSWZIQW0J4ATB", "start_time": "1.51674008926e+12", "human_length": "44", "nodes_expanded": "999", "instance": "prb46580", "end_time": "1.51674013846e+12", "optimal_length": "16", "subject": "A2TQNX64349OZ9"}
{"rt": "140930.0", "trial_number": "0", "skipped": "True", "complete": "False", "assignment": "37TD41K0AIHM8AITTQJXV8KY05QCSB", "start_time": "1.51752398216e+12", "human_length": "80", "nodes_expanded": "999", "instance": "prb46580", "end_time": "1.51752412309e+12", "optimal_length": "16", "subject": "A30KYQGABO7JER"}
{"rt": "375830.0", "trial_number": "0", "skipped": "False", "complete": "False", "assignment": "3TXD01ZLD5PZSJXIPG8FRBQYTI9U4X", "start_time": "1.5179419135e+12", "human_length": "124", "nodes_expanded": "999", "instance": "prb46580", "end_time": "1.51794228933e+12", "optimal_length": "16", "subject": "A3BPRPN10HJD4B"}
{"rt": "418469.0", "trial_number": "1", "skipped": "False", "complete": "True", "assignment": "3TXD01ZLD5PZSJXIPG8FRBQYTI9U4X", "start_time": "1.51794229798e+12", "human_length": "124", "nodes_expanded": "999", "instance": "prb46580", "end_time": "1.51794271645e+12", "optimal_length": "16", "subject": "A3BPRPN10HJD4B"}
{"rt": "31162.0", "trial_number": "0", "skipped": "False", "complete": "True", "assignment": "34HJIJKLP64Z5YMIU6IKNXSH7PDV4I", "start_time": "1.51794173054e+12", "human_length": "20", "nodes_expanded": "999", "instance": "prb46580", "end_time": "1.51794176171e+12", "optimal_length": "16", "subject": "A3CTXNQ2GXIQSP"}
{"rt": "20573.0", "trial_number": "0", "skipped": "False", "complete": "True", "assignment": "3TPWUS5F8A9FFRZ2DVTYSXNJ6BWWC6", "start_time": "1.51794212517e+12", "human_length": "19", "nodes_expanded": "999", "instance": "prb46580", "end_time": "1.51794214574e+12", "optimal_length": "16", "subject": "A3GXC3VG37CQ3G"}
{"rt": "75650.0", "trial_number": "0", "skipped": "False", "complete": "True", "assignment": "3V5Q80FXIYZ5QB5C6ITQBN30WY823U", "start_time": "1.51753340366e+12", "human_length": "47", "nodes_expanded": "999", "instance": "prb46580", "end_time": "1.51753347931e+12", "optimal_length": "16", "subject": "A3NMQ3019X6YE0"}
{"rt": "75650.0", "trial_number": "0", "skipped": "False", "complete": "True", "assignment": "3V5Q80FXIYZ5QB5C6ITQBN30WY823U", "start_time": "1.51753340366e+12", "human_length": "47", "nodes_expanded": "999", "instance": "prb46580", "end_time": "1.51753347931e+12", "optimal_length": "16", "subject": "A3NMQ3019X6YE0"}
{"rt": "20307.0", "trial_number": "0", "skipped": "False", "complete": "True", "assignment": "3STRJBFXOXZ5687WA35LTWTS7QZKTT", "start_time": "1.51794589654e+12", "human_length": "18", "nodes_expanded": "999", "instance": "prb46580", "end_time": "1.51794591685e+12", "optimal_length": "16", "subject": "A3OB6REG5CGHK1"}
{"rt": "0.0", "trial_number": "0", "skipped": "False", "complete": "False", "assignment": "3X87C8JFV7JQ2BSCY8KSFD9F2ILSQK", "start_time": "1.51673905363e+12", "human_length": "1", "nodes_expanded": "999", "instance": "prb46580", "end_time": "1.51673905363e+12", "optimal_length": "16", "subject": "A3Q0XAGQ7TD7MP"}
{"rt": "0.0", "trial_number": "1", "skipped": "False", "complete": "False", "assignment": "3X87C8JFV7JQ2BSCY8KSFD9F2ILSQK", "start_time": "1.51673905363e+12", "human_length": "1", "nodes_expanded": "999", "instance": "prb46580", "end_time": "1.51673905363e+12", "optimal_length": "16", "subject": "A3Q0XAGQ7TD7MP"}
{"rt": "104269.0", "trial_number": "2", "skipped": "False", "complete": "True", "assignment": "3X87C8JFV7JQ2BSCY8KSFD9F2ILSQK", "start_time": "1.51673905363e+12", "human_length": "48", "nodes_expanded": "999", "instance": "prb46580", "end_time": "1.5167391579e+12", "optimal_length": "16", "subject": "A3Q0XAGQ7TD7MP"}
{"rt": "53070.0", "trial_number": "3", "skipped": "False", "complete": "True", "assignment": "3GLB5JMZFY3TNXFGYMKRQ0JDXNTDGZ", "start_time": "1.51794829396e+12", "human_length": "28", "nodes_expanded": "999", "instance": "prb46580", "end_time": "1.51794834703e+12", "optimal_length": "16", "subject": "A3Q0XAGQ7TD7MP"}
{"rt": "104269.0", "trial_number": "0", "skipped": "False", "complete": "True", "assignment": "3X87C8JFV7JQ2BSCY8KSFD9F2ILSQK", "start_time": "1.51673905363e+12", "human_length": "48", "nodes_expanded": "999", "instance": "prb46580", "end_time": "1.5167391579e+12", "optimal_length": "16", "subject": "A3Q0XAGQ7TD7MP"}
{"rt": "53070.0", "trial_number": "1", "skipped": "False", "complete": "True", "assignment": "3GLB5JMZFY3TNXFGYMKRQ0JDXNTDGZ", "start_time": "1.51794829396e+12", "human_length": "28", "nodes_expanded": "999", "instance": "prb46580", "end_time": "1.51794834703e+12", "optimal_length": "16", "subject": "A3Q0XAGQ7TD7MP"}
{"rt": "30048.0", "trial_number": "0", "skipped": "False", "complete": "False", "assignment": "3M0BCWMB8W4W5M7WZVX3HDH1P53WB1", "start_time": "1.51816111221e+12", "human_length": "17", "nodes_expanded": "999", "instance": "prb46580", "end_time": "1.51816114226e+12", "optimal_length": "16", "subject": "A53S7J4JGWG38"}
{"rt": "81765.0", "trial_number": "1", "skipped": "False", "complete": "True", "assignment": "3M0BCWMB8W4W5M7WZVX3HDH1P53WB1", "start_time": "1.51816114486e+12", "human_length": "37", "nodes_expanded": "999", "instance": "prb46580", "end_time": "1.51816122663e+12", "optimal_length": "16", "subject": "A53S7J4JGWG38"}
{"rt": "37772.0", "trial_number": "0", "skipped": "False", "complete": "True", "assignment": "3IXEICO793RY7TM78ZBKJDOA7ADT6Q", "start_time": "1.51816796088e+12", "human_length": "42", "nodes_expanded": "999", "instance": "prb46580", "end_time": "1.51816799865e+12", "optimal_length": "16", "subject": "ALH1K6ZAQQMN7"}
{"rt": "58758.0", "trial_number": "0", "skipped": "False", "complete": "True", "assignment": "3HWRJOOET6A15827PHPSLWK1MOYSEU", "start_time": "1.51814519053e+12", "human_length": "41", "nodes_expanded": "999", "instance": "prb46580", "end_time": "1.51814524929e+12", "optimal_length": "16", "subject": "AO1QGAUZ85T6L"}
{"rt": "40035.0", "trial_number": "0", "skipped": "False", "complete": "True", "assignment": "3AZHRG4CU5SYU12YRVPCSZALW5003R", "start_time": "1.51630811873e+12", "human_length": "52", "nodes_expanded": "999", "instance": "prb46580", "end_time": "1.51630815877e+12", "optimal_length": "16", "subject": "ARWF605I7RWM7"}
{"rt": "43320.0", "trial_number": "0", "skipped": "True", "complete": "False", "assignment": "33PPO7FECWN7JOLBOAKUBCWTC0AIDL", "start_time": "1.51794989113e+12", "human_length": "7", "nodes_expanded": "999", "instance": "prb46580", "end_time": "1.51794993445e+12", "optimal_length": "16", "subject": "AXKM02NVXNGOM"}
{"rt": "54065.0", "trial_number": "0", "skipped": "False", "complete": "True", "assignment": "3ON104KXQL4CKNMNKGNG9ZBVBAB4WI", "start_time": "1.51631281832e+12", "human_length": "40", "nodes_expanded": "999", "instance": "prb46580", "end_time": "1.51631287239e+12", "optimal_length": "16", "subject": "AYPOAY43REHC8"}
