{"rt": "47054.0", "trial_number": "0", "skipped": "False", "complete": "True", "assignment": "36AHBNMV1SKT9O0GSS6XX0QHZV3YDN", "start_time": "1.51630409706e+12", "human_length": "42", "nodes_expanded": "999", "instance": "prb47495", "end_time": "1.51630414412e+12", "optimal_length": "14", "subject": "A39GADIK8RLMVC"}
{"rt": "170226.0", "trial_number": "0", "skipped": "False", "complete": "True", "assignment": "3AZHRG4CU5SYU12YRVPCSZALW5003R", "start_time": "1.51630763377e+12", "human_length": "64", "nodes_expanded": "999", "instance": "prb47495", "end_time": "1.516307804e+12", "optimal_length": "14", "subject": "ARWF605I7RWM7"}
{"rt": "126915.0", "trial_number": "0", "skipped": "False", "complete": "True", "assignment": "3ZV9H2YQQEFR2R3JK2IXZUJPXAF3WW", "start_time": "1.5163055282e+12", "human_length": "38", "nodes_expanded": "999", "instance": "prb47495", "end_time": "1.51630565512e+12", "optimal_length": "14", "subject": "A289D98Z4GAZ28"}
{"rt": "38608.0", "trial_number": "0", "skipped": "False", "complete": "True", "assignment": "3PMBY0YE28B43VMUKKJ6EDF85RV9C8", "start_time": "1.51638794704e+12", "human_length": "35", "nodes_expanded": "999", "instance": "prb47495", "end_time": "1.51638798564e+12", "optimal_length": "14", "subject": "A191V7PT3DQKDP"}
{"rt": "21701.0", "trial_number": "0", "skipped": "False", "complete": "True", "assignment": "34BBWHLWHBJ6SUL255PK30LEGY5IWG", "start_time": "1.51639233312e+12", "human_length": "23", "nodes_expanded": "999", "instance": "prb47495", "end_time": "1.51639235482e+12", "optimal_length": "14", "subject": "A214HWAW1PYWO8"}
{"rt": "0.0", "trial_number": "0", "skipped": "False", "complete": "False", "assignment": "3VE8AYVF8N5BS2NU6U3TMN50JMNF8V", "start_time": "1.51673646892e+12", "human_length": "1", "nodes_expanded": "999", "instance": "prb47495", "end_time": "1.51673646892e+12", "optimal_length": "14", "subject": "A18QU0YQB6Q8DF"}
{"rt": "0.0", "trial_number": "1", "skipped": "False", "complete": "False", "assignment": "3VE8AYVF8N5BS2NU6U3TMN50JMNF8V", "start_time": "1.51673646892e+12", "human_length": "1", "nodes_expanded": "999", "instance": "prb47495", "end_time": "1.51673646892e+12", "optimal_length": "14", "subject": "A18QU0YQB6Q8DF"}
{"rt": "76029.0", "trial_number": "2", "skipped": "True", "complete": "False", "assignment": "3VE8AYVF8N5BS2NU6U3TMN50JMNF8V", "start_time": "1.51673646892e+12", "human_length": "71", "nodes_expanded": "999", "instance": "prb47495", "end_time": "1.51673654495e+12", "optimal_length": "14", "subject": "A18QU0YQB6Q8DF"}
{"rt": "0.0", "trial_number": "0", "skipped": "False", "complete": "False", "assignment": "3X87C8JFV7JQ2BSCY8KSFD9F2ILSQK", "start_time": "1.516739574e+12", "human_length": "1", "nodes_expanded": "999", "instance": "prb47495", "end_time": "1.516739574e+12", "optimal_length": "14", "subject": "A3Q0XAGQ7TD7MP"}
{"rt": "0.0", "trial_number": "1", "skipped": "False", "complete": "False", "assignment": "3X87C8JFV7JQ2BSCY8KSFD9F2ILSQK", "start_time": "1.516739574e+12", "human_length": "1", "nodes_expanded": "999", "instance": "prb47495", "end_time": "1.516739574e+12", "optimal_length": "14", "subject": "A3Q0XAGQ7TD7MP"}
{"rt": "35368.0", "trial_number": "2", "skipped": "False", "complete": "True", "assignment": "3X87C8JFV7JQ2BSCY8KSFD9F2ILSQK", "start_time": "1.516739574e+12", "human_length": "17", "nodes_expanded": "999", "instance": "prb47495", "end_time": "1.51673960937e+12", "optimal_length": "14", "subject": "A3Q0XAGQ7TD7MP"}
{"rt": "35507.0", "trial_number": "3", "skipped": "False", "complete": "True", "assignment": "3GLB5JMZFY3TNXFGYMKRQ0JDXNTDGZ", "start_time": "1.51794795313e+12", "human_length": "19", "nodes_expanded": "999", "instance": "prb47495", "end_time": "1.51794798864e+12", "optimal_length": "14", "subject": "A3Q0XAGQ7TD7MP"}
{"rt": "37439.0", "trial_number": "0", "skipped": "False", "complete": "False", "assignment": "3WSELTNVR4AZUVYAYCSWZIQW0J4ATB", "start_time": "1.51673736809e+12", "human_length": "15", "nodes_expanded": "999", "instance": "prb47495", "end_time": "1.51673740553e+12", "optimal_length": "14", "subject": "A2TQNX64349OZ9"}
{"rt": "24360.0", "trial_number": "1", "skipped": "False", "complete": "False", "assignment": "3WSELTNVR4AZUVYAYCSWZIQW0J4ATB", "start_time": "1.51673740636e+12", "human_length": "14", "nodes_expanded": "999", "instance": "prb47495", "end_time": "1.51673743072e+12", "optimal_length": "14", "subject": "A2TQNX64349OZ9"}
{"rt": "28371.0", "trial_number": "2", "skipped": "False", "complete": "False", "assignment": "3WSELTNVR4AZUVYAYCSWZIQW0J4ATB", "start_time": "1.51673743248e+12", "human_length": "19", "nodes_expanded": "999", "instance": "prb47495", "end_time": "1.51673746085e+12", "optimal_length": "14", "subject": "A2TQNX64349OZ9"}
{"rt": "14441.0", "trial_number": "3", "skipped": "False", "complete": "False", "assignment": "3WSELTNVR4AZUVYAYCSWZIQW0J4ATB", "start_time": "1.51673746481e+12", "human_length": "6", "nodes_expanded": "999", "instance": "prb47495", "end_time": "1.51673747925e+12", "optimal_length": "14", "subject": "A2TQNX64349OZ9"}
{"rt": "0.0", "trial_number": "4", "skipped": "False", "complete": "False", "assignment": "3WSELTNVR4AZUVYAYCSWZIQW0J4ATB", "start_time": "1.5167374862e+12", "human_length": "1", "nodes_expanded": "999", "instance": "prb47495", "end_time": "1.5167374862e+12", "optimal_length": "14", "subject": "A2TQNX64349OZ9"}
{"rt": "0.0", "trial_number": "5", "skipped": "False", "complete": "False", "assignment": "3WSELTNVR4AZUVYAYCSWZIQW0J4ATB", "start_time": "1.51673736809e+12", "human_length": "1", "nodes_expanded": "999", "instance": "prb47495", "end_time": "1.51673736809e+12", "optimal_length": "14", "subject": "A2TQNX64349OZ9"}
{"rt": "0.0", "trial_number": "6", "skipped": "False", "complete": "False", "assignment": "3WSELTNVR4AZUVYAYCSWZIQW0J4ATB", "start_time": "1.51673740636e+12", "human_length": "1", "nodes_expanded": "999", "instance": "prb47495", "end_time": "1.51673740636e+12", "optimal_length": "14", "subject": "A2TQNX64349OZ9"}
{"rt": "0.0", "trial_number": "7", "skipped": "False", "complete": "False", "assignment": "3WSELTNVR4AZUVYAYCSWZIQW0J4ATB", "start_time": "1.51673743248e+12", "human_length": "1", "nodes_expanded": "999", "instance": "prb47495", "end_time": "1.51673743248e+12", "optimal_length": "14", "subject": "A2TQNX64349OZ9"}
{"rt": "0.0", "trial_number": "8", "skipped": "False", "complete": "False", "assignment": "3WSELTNVR4AZUVYAYCSWZIQW0J4ATB", "start_time": "1.51673746481e+12", "human_length": "1", "nodes_expanded": "999", "instance": "prb47495", "end_time": "1.51673746481e+12", "optimal_length": "14", "subject": "A2TQNX64349OZ9"}
{"rt": "0.0", "trial_number": "9", "skipped": "False", "complete": "False", "assignment": "3WSELTNVR4AZUVYAYCSWZIQW0J4ATB", "start_time": "1.5167374862e+12", "human_length": "1", "nodes_expanded": "999", "instance": "prb47495", "end_time": "1.5167374862e+12", "optimal_length": "14", "subject": "A2TQNX64349OZ9"}
{"rt": "0.0", "trial_number": "10", "skipped": "False", "complete": "False", "assignment": "3WSELTNVR4AZUVYAYCSWZIQW0J4ATB", "start_time": "1.51673736809e+12", "human_length": "1", "nodes_expanded": "999", "instance": "prb47495", "end_time": "1.51673736809e+12", "optimal_length": "14", "subject": "A2TQNX64349OZ9"}
{"rt": "0.0", "trial_number": "11", "skipped": "False", "complete": "False", "assignment": "3WSELTNVR4AZUVYAYCSWZIQW0J4ATB", "start_time": "1.51673740636e+12", "human_length": "1", "nodes_expanded": "999", "instance": "prb47495", "end_time": "1.51673740636e+12", "optimal_length": "14", "subject": "A2TQNX64349OZ9"}
{"rt": "0.0", "trial_number": "12", "skipped": "False", "complete": "False", "assignment": "3WSELTNVR4AZUVYAYCSWZIQW0J4ATB", "start_time": "1.51673743248e+12", "human_length": "1", "nodes_expanded": "999", "instance": "prb47495", "end_time": "1.51673743248e+12", "optimal_length": "14", "subject": "A2TQNX64349OZ9"}
{"rt": "0.0", "trial_number": "13", "skipped": "False", "complete": "False", "assignment": "3WSELTNVR4AZUVYAYCSWZIQW0J4ATB", "start_time": "1.51673746481e+12", "human_length": "1", "nodes_expanded": "999", "instance": "prb47495", "end_time": "1.51673746481e+12", "optimal_length": "14", "subject": "A2TQNX64349OZ9"}
{"rt": "17512.0", "trial_number": "14", "skipped": "False", "complete": "True", "assignment": "3WSELTNVR4AZUVYAYCSWZIQW0J4ATB", "start_time": "1.5167374862e+12", "human_length": "19", "nodes_expanded": "999", "instance": "prb47495", "end_time": "1.51673750371e+12", "optimal_length": "14", "subject": "A2TQNX64349OZ9"}
{"rt": "63396.0", "trial_number": "0", "skipped": "False", "complete": "False", "assignment": "3X87C8JFV7JQ2BSCY8KSFD9F2ILSQK", "start_time": "1.5167462941e+12", "human_length": "32", "nodes_expanded": "999", "instance": "prb47495", "end_time": "1.5167463575e+12", "optimal_length": "14", "subject": "A21S7MA9DCW95E"}
{"rt": "0.0", "trial_number": "1", "skipped": "False", "complete": "False", "assignment": "3X87C8JFV7JQ2BSCY8KSFD9F2ILSQK", "start_time": "1.51674639976e+12", "human_length": "1", "nodes_expanded": "999", "instance": "prb47495", "end_time": "1.51674639976e+12", "optimal_length": "14", "subject": "A21S7MA9DCW95E"}
{"rt": "11987.0", "trial_number": "2", "skipped": "False", "complete": "False", "assignment": "3X87C8JFV7JQ2BSCY8KSFD9F2ILSQK", "start_time": "1.51674639978e+12", "human_length": "2", "nodes_expanded": "999", "instance": "prb47495", "end_time": "1.51674641177e+12", "optimal_length": "14", "subject": "A21S7MA9DCW95E"}
{"rt": "0.0", "trial_number": "3", "skipped": "False", "complete": "False", "assignment": "3X87C8JFV7JQ2BSCY8KSFD9F2ILSQK", "start_time": "1.5167464161e+12", "human_length": "1", "nodes_expanded": "999", "instance": "prb47495", "end_time": "1.5167464161e+12", "optimal_length": "14", "subject": "A21S7MA9DCW95E"}
{"rt": "0.0", "trial_number": "4", "skipped": "False", "complete": "False", "assignment": "3X87C8JFV7JQ2BSCY8KSFD9F2ILSQK", "start_time": "1.5167462941e+12", "human_length": "1", "nodes_expanded": "999", "instance": "prb47495", "end_time": "1.5167462941e+12", "optimal_length": "14", "subject": "A21S7MA9DCW95E"}
{"rt": "0.0", "trial_number": "5", "skipped": "False", "complete": "False", "assignment": "3X87C8JFV7JQ2BSCY8KSFD9F2ILSQK", "start_time": "1.51674639976e+12", "human_length": "1", "nodes_expanded": "999", "instance": "prb47495", "end_time": "1.51674639976e+12", "optimal_length": "14", "subject": "A21S7MA9DCW95E"}
{"rt": "0.0", "trial_number": "6", "skipped": "False", "complete": "False", "assignment": "3X87C8JFV7JQ2BSCY8KSFD9F2ILSQK", "start_time": "1.51674639978e+12", "human_length": "1", "nodes_expanded": "999", "instance": "prb47495", "end_time": "1.51674639978e+12", "optimal_length": "14", "subject": "A21S7MA9DCW95E"}
{"rt": "0.0", "trial_number": "7", "skipped": "False", "complete": "False", "assignment": "3X87C8JFV7JQ2BSCY8KSFD9F2ILSQK", "start_time": "1.5167464161e+12", "human_length": "1", "nodes_expanded": "999", "instance": "prb47495", "end_time": "1.5167464161e+12", "optimal_length": "14", "subject": "A21S7MA9DCW95E"}
{"rt": "0.0", "trial_number": "8", "skipped": "False", "complete": "False", "assignment": "3X87C8JFV7JQ2BSCY8KSFD9F2ILSQK", "start_time": "1.5167462941e+12", "human_length": "1", "nodes_expanded": "999", "instance": "prb47495", "end_time": "1.5167462941e+12", "optimal_length": "14", "subject": "A21S7MA9DCW95E"}
{"rt": "0.0", "trial_number": "9", "skipped": "False", "complete": "False", "assignment": "3X87C8JFV7JQ2BSCY8KSFD9F2ILSQK", "start_time": "1.51674639976e+12", "human_length": "1", "nodes_expanded": "999", "instance": "prb47495", "end_time": "1.51674639976e+12", "optimal_length": "14", "subject": "A21S7MA9DCW95E"}
{"rt": "0.0", "trial_number": "10", "skipped": "False", "complete": "False", "assignment": "3X87C8JFV7JQ2BSCY8KSFD9F2ILSQK", "start_time": "1.51674639978e+12", "human_length": "1", "nodes_expanded": "999", "instance": "prb47495", "end_time": "1.51674639978e+12", "optimal_length": "14", "subject": "A21S7MA9DCW95E"}
{"rt": "34510.0", "trial_number": "11", "skipped": "False", "complete": "True", "assignment": "3X87C8JFV7JQ2BSCY8KSFD9F2ILSQK", "start_time": "1.5167464161e+12", "human_length": "21", "nodes_expanded": "999", "instance": "prb47495", "end_time": "1.51674645060e+12", "optimal_length": "14", "subject": "A21S7MA9DCW95E"}
{"rt": "12503.0", "trial_number": "0", "skipped": "False", "complete": "False", "assignment": "3CFVK00FWMTAOGE2ZQ9TXMETAPZ6LP", "start_time": "1.51675219065e+12", "human_length": "5", "nodes_expanded": "999", "instance": "prb47495", "end_time": "1.51675220315e+12", "optimal_length": "14", "subject": "A26RO8GGTQAXGG"}
{"rt": "8252.0", "trial_number": "1", "skipped": "False", "complete": "False", "assignment": "3CFVK00FWMTAOGE2ZQ9TXMETAPZ6LP", "start_time": "1.51675221558e+12", "human_length": "4", "nodes_expanded": "999", "instance": "prb47495", "end_time": "1.51675222383e+12", "optimal_length": "14", "subject": "A26RO8GGTQAXGG"}
{"rt": "23600.0", "trial_number": "2", "skipped": "False", "complete": "False", "assignment": "3CFVK00FWMTAOGE2ZQ9TXMETAPZ6LP", "start_time": "1.51675222909e+12", "human_length": "6", "nodes_expanded": "999", "instance": "prb47495", "end_time": "1.51675225269e+12", "optimal_length": "14", "subject": "A26RO8GGTQAXGG"}
{"rt": "0.0", "trial_number": "3", "skipped": "False", "complete": "False", "assignment": "3CFVK00FWMTAOGE2ZQ9TXMETAPZ6LP", "start_time": "1.51675225824e+12", "human_length": "1", "nodes_expanded": "999", "instance": "prb47495", "end_time": "1.51675225824e+12", "optimal_length": "14", "subject": "A26RO8GGTQAXGG"}
{"rt": "0.0", "trial_number": "4", "skipped": "False", "complete": "False", "assignment": "3CFVK00FWMTAOGE2ZQ9TXMETAPZ6LP", "start_time": "1.51675219065e+12", "human_length": "1", "nodes_expanded": "999", "instance": "prb47495", "end_time": "1.51675219065e+12", "optimal_length": "14", "subject": "A26RO8GGTQAXGG"}
{"rt": "0.0", "trial_number": "5", "skipped": "False", "complete": "False", "assignment": "3CFVK00FWMTAOGE2ZQ9TXMETAPZ6LP", "start_time": "1.51675221558e+12", "human_length": "1", "nodes_expanded": "999", "instance": "prb47495", "end_time": "1.51675221558e+12", "optimal_length": "14", "subject": "A26RO8GGTQAXGG"}
{"rt": "0.0", "trial_number": "6", "skipped": "False", "complete": "False", "assignment": "3CFVK00FWMTAOGE2ZQ9TXMETAPZ6LP", "start_time": "1.51675222909e+12", "human_length": "1", "nodes_expanded": "999", "instance": "prb47495", "end_time": "1.51675222909e+12", "optimal_length": "14", "subject": "A26RO8GGTQAXGG"}
{"rt": "0.0", "trial_number": "7", "skipped": "False", "complete": "False", "assignment": "3CFVK00FWMTAOGE2ZQ9TXMETAPZ6LP", "start_time": "1.51675225824e+12", "human_length": "1", "nodes_expanded": "999", "instance": "prb47495", "end_time": "1.51675225824e+12", "optimal_length": "14", "subject": "A26RO8GGTQAXGG"}
{"rt": "0.0", "trial_number": "8", "skipped": "False", "complete": "False", "assignment": "3CFVK00FWMTAOGE2ZQ9TXMETAPZ6LP", "start_time": "1.51675219065e+12", "human_length": "1", "nodes_expanded": "999", "instance": "prb47495", "end_time": "1.51675219065e+12", "optimal_length": "14", "subject": "A26RO8GGTQAXGG"}
{"rt": "0.0", "trial_number": "9", "skipped": "False", "complete": "False", "assignment": "3CFVK00FWMTAOGE2ZQ9TXMETAPZ6LP", "start_time": "1.51675221558e+12", "human_length": "1", "nodes_expanded": "999", "instance": "prb47495", "end_time": "1.51675221558e+12", "optimal_length": "14", "subject": "A26RO8GGTQAXGG"}
{"rt": "0.0", "trial_number": "10", "skipped": "False", "complete": "False", "assignment": "3CFVK00FWMTAOGE2ZQ9TXMETAPZ6LP", "start_time": "1.51675222909e+12", "human_length": "1", "nodes_expanded": "999", "instance": "prb47495", "end_time": "1.51675222909e+12", "optimal_length": "14", "subject": "A26RO8GGTQAXGG"}
{"rt": "39631.0", "trial_number": "11", "skipped": "True", "complete": "False", "assignment": "3CFVK00FWMTAOGE2ZQ9TXMETAPZ6LP", "start_time": "1.51675225824e+12", "human_length": "29", "nodes_expanded": "999", "instance": "prb47495", "end_time": "1.51675229788e+12", "optimal_length": "14", "subject": "A26RO8GGTQAXGG"}
{"rt": "0.0", "trial_number": "0", "skipped": "False", "complete": "False", "assignment": "3I2PTA7R3U2SESF4TZBQORI5LSJQKK", "start_time": "1.51675859293e+12", "human_length": "1", "nodes_expanded": "999", "instance": "prb47495", "end_time": "1.51675859293e+12", "optimal_length": "14", "subject": "A3NMQ3019X6YE0"}
{"rt": "0.0", "trial_number": "1", "skipped": "False", "complete": "False", "assignment": "3I2PTA7R3U2SESF4TZBQORI5LSJQKK", "start_time": "1.51675859293e+12", "human_length": "1", "nodes_expanded": "999", "instance": "prb47495", "end_time": "1.51675859293e+12", "optimal_length": "14", "subject": "A3NMQ3019X6YE0"}
{"rt": "89469.0", "trial_number": "2", "skipped": "False", "complete": "True", "assignment": "3I2PTA7R3U2SESF4TZBQORI5LSJQKK", "start_time": "1.51675859293e+12", "human_length": "34", "nodes_expanded": "999", "instance": "prb47495", "end_time": "1.5167586824e+12", "optimal_length": "14", "subject": "A3NMQ3019X6YE0"}
{"rt": "171112.0", "trial_number": "3", "skipped": "False", "complete": "True", "assignment": "3V5Q80FXIYZ5QB5C6ITQBN30WY823U", "start_time": "1.5175328233e+12", "human_length": "81", "nodes_expanded": "999", "instance": "prb47495", "end_time": "1.51753299441e+12", "optimal_length": "14", "subject": "A3NMQ3019X6YE0"}
{"rt": "0.0", "trial_number": "0", "skipped": "False", "complete": "False", "assignment": "3YW4XOSQKRTI0K0Z2YPDTDJVFABU1I", "start_time": "1.51682471452e+12", "human_length": "1", "nodes_expanded": "999", "instance": "prb47495", "end_time": "1.51682471452e+12", "optimal_length": "14", "subject": "A15781PHGW377Y"}
{"rt": "37009.0", "trial_number": "1", "skipped": "False", "complete": "True", "assignment": "3YW4XOSQKRTI0K0Z2YPDTDJVFABU1I", "start_time": "1.51682471452e+12", "human_length": "19", "nodes_expanded": "999", "instance": "prb47495", "end_time": "1.51682475153e+12", "optimal_length": "14", "subject": "A15781PHGW377Y"}
{"rt": "22073.0", "trial_number": "0", "skipped": "False", "complete": "False", "assignment": "3X4MXAO0BHWJLTOLVSJTHSM54OHWRG", "start_time": "1.51682361298e+12", "human_length": "14", "nodes_expanded": "999", "instance": "prb47495", "end_time": "1.51682363505e+12", "optimal_length": "14", "subject": "A2IBQA01NR5N76"}
{"rt": "0.0", "trial_number": "1", "skipped": "False", "complete": "False", "assignment": "3X4MXAO0BHWJLTOLVSJTHSM54OHWRG", "start_time": "1.51682363925e+12", "human_length": "1", "nodes_expanded": "999", "instance": "prb47495", "end_time": "1.51682363925e+12", "optimal_length": "14", "subject": "A2IBQA01NR5N76"}
{"rt": "0.0", "trial_number": "2", "skipped": "False", "complete": "False", "assignment": "3X4MXAO0BHWJLTOLVSJTHSM54OHWRG", "start_time": "1.51682361298e+12", "human_length": "1", "nodes_expanded": "999", "instance": "prb47495", "end_time": "1.51682361298e+12", "optimal_length": "14", "subject": "A2IBQA01NR5N76"}
{"rt": "54718.0", "trial_number": "3", "skipped": "False", "complete": "True", "assignment": "3X4MXAO0BHWJLTOLVSJTHSM54OHWRG", "start_time": "1.51682363925e+12", "human_length": "27", "nodes_expanded": "999", "instance": "prb47495", "end_time": "1.51682369397e+12", "optimal_length": "14", "subject": "A2IBQA01NR5N76"}
{"rt": "22073.0", "trial_number": "0", "skipped": "False", "complete": "False", "assignment": "3X4MXAO0BHWJLTOLVSJTHSM54OHWRG", "start_time": "1.51682361298e+12", "human_length": "14", "nodes_expanded": "999", "instance": "prb47495", "end_time": "1.51682363505e+12", "optimal_length": "14", "subject": "A2IBQA01NR5N76"}
{"rt": "54718.0", "trial_number": "1", "skipped": "False", "complete": "True", "assignment": "3X4MXAO0BHWJLTOLVSJTHSM54OHWRG", "start_time": "1.51682363925e+12", "human_length": "27", "nodes_expanded": "999", "instance": "prb47495", "end_time": "1.51682369397e+12", "optimal_length": "14", "subject": "A2IBQA01NR5N76"}
{"rt": "0.0", "trial_number": "0", "skipped": "False", "complete": "False", "assignment": "3IHR8NYAM89M0EPM8U9LH53ZJDTP4U", "start_time": "1.5168265985e+12", "human_length": "1", "nodes_expanded": "999", "instance": "prb47495", "end_time": "1.5168265985e+12", "optimal_length": "14", "subject": "A23437BMZ5T1FH"}
{"rt": "63175.0", "trial_number": "1", "skipped": "True", "complete": "False", "assignment": "3IHR8NYAM89M0EPM8U9LH53ZJDTP4U", "start_time": "1.5168265985e+12", "human_length": "77", "nodes_expanded": "999", "instance": "prb47495", "end_time": "1.51682666167e+12", "optimal_length": "14", "subject": "A23437BMZ5T1FH"}
{"rt": "0.0", "trial_number": "0", "skipped": "False", "complete": "False", "assignment": "37WLF8U1WQYZ4AWKEQXSIM1ELVEK6W", "start_time": "1.51682954326e+12", "human_length": "1", "nodes_expanded": "999", "instance": "prb47495", "end_time": "1.51682954326e+12", "optimal_length": "14", "subject": "A2EPBSY0VPI38S"}
{"rt": "143537.0", "trial_number": "1", "skipped": "False", "complete": "True", "assignment": "37WLF8U1WQYZ4AWKEQXSIM1ELVEK6W", "start_time": "1.51682954326e+12", "human_length": "50", "nodes_expanded": "999", "instance": "prb47495", "end_time": "1.5168296868e+12", "optimal_length": "14", "subject": "A2EPBSY0VPI38S"}
{"rt": "0.0", "trial_number": "0", "skipped": "False", "complete": "False", "assignment": "3YW4XOSQKRTI0K0Z2YPDTDJVFABU1I", "start_time": "1.51683145239e+12", "human_length": "1", "nodes_expanded": "999", "instance": "prb47495", "end_time": "1.51683145239e+12", "optimal_length": "14", "subject": "A1LR0VQIHQUJAM"}
{"rt": "40228.0", "trial_number": "1", "skipped": "False", "complete": "True", "assignment": "3YW4XOSQKRTI0K0Z2YPDTDJVFABU1I", "start_time": "1.51683145239e+12", "human_length": "31", "nodes_expanded": "999", "instance": "prb47495", "end_time": "1.51683149262e+12", "optimal_length": "14", "subject": "A1LR0VQIHQUJAM"}
{"rt": "76029.0", "trial_number": "0", "skipped": "True", "complete": "False", "assignment": "3VE8AYVF8N5BS2NU6U3TMN50JMNF8V", "start_time": "1.51673646892e+12", "human_length": "25", "nodes_expanded": "999", "instance": "prb47495", "end_time": "1.51673654495e+12", "optimal_length": "14", "subject": "A18QU0YQB6Q8DF"}
{"rt": "35368.0", "trial_number": "0", "skipped": "False", "complete": "True", "assignment": "3X87C8JFV7JQ2BSCY8KSFD9F2ILSQK", "start_time": "1.516739574e+12", "human_length": "17", "nodes_expanded": "999", "instance": "prb47495", "end_time": "1.51673960937e+12", "optimal_length": "14", "subject": "A3Q0XAGQ7TD7MP"}
{"rt": "35507.0", "trial_number": "1", "skipped": "False", "complete": "True", "assignment": "3GLB5JMZFY3TNXFGYMKRQ0JDXNTDGZ", "start_time": "1.51794795313e+12", "human_length": "19", "nodes_expanded": "999", "instance": "prb47495", "end_time": "1.51794798864e+12", "optimal_length": "14", "subject": "A3Q0XAGQ7TD7MP"}
{"rt": "37439.0", "trial_number": "0", "skipped": "False", "complete": "False", "assignment": "3WSELTNVR4AZUVYAYCSWZIQW0J4ATB", "start_time": "1.51673736809e+12", "human_length": "15", "nodes_expanded": "999", "instance": "prb47495", "end_time": "1.51673740553e+12", "optimal_length": "14", "subject": "A2TQNX64349OZ9"}
{"rt": "24360.0", "trial_number": "1", "skipped": "False", "complete": "False", "assignment": "3WSELTNVR4AZUVYAYCSWZIQW0J4ATB", "start_time": "1.51673740636e+12", "human_length": "14", "nodes_expanded": "999", "instance": "prb47495", "end_time": "1.51673743072e+12", "optimal_length": "14", "subject": "A2TQNX64349OZ9"}
{"rt": "28371.0", "trial_number": "2", "skipped": "False", "complete": "False", "assignment": "3WSELTNVR4AZUVYAYCSWZIQW0J4ATB", "start_time": "1.51673743248e+12", "human_length": "19", "nodes_expanded": "999", "instance": "prb47495", "end_time": "1.51673746085e+12", "optimal_length": "14", "subject": "A2TQNX64349OZ9"}
{"rt": "14441.0", "trial_number": "3", "skipped": "False", "complete": "False", "assignment": "3WSELTNVR4AZUVYAYCSWZIQW0J4ATB", "start_time": "1.51673746481e+12", "human_length": "6", "nodes_expanded": "999", "instance": "prb47495", "end_time": "1.51673747925e+12", "optimal_length": "14", "subject": "A2TQNX64349OZ9"}
{"rt": "17512.0", "trial_number": "4", "skipped": "False", "complete": "True", "assignment": "3WSELTNVR4AZUVYAYCSWZIQW0J4ATB", "start_time": "1.5167374862e+12", "human_length": "19", "nodes_expanded": "999", "instance": "prb47495", "end_time": "1.51673750371e+12", "optimal_length": "14", "subject": "A2TQNX64349OZ9"}
{"rt": "63396.0", "trial_number": "0", "skipped": "False", "complete": "False", "assignment": "3X87C8JFV7JQ2BSCY8KSFD9F2ILSQK", "start_time": "1.5167462941e+12", "human_length": "32", "nodes_expanded": "999", "instance": "prb47495", "end_time": "1.5167463575e+12", "optimal_length": "14", "subject": "A21S7MA9DCW95E"}
{"rt": "0.0", "trial_number": "1", "skipped": "False", "complete": "False", "assignment": "3X87C8JFV7JQ2BSCY8KSFD9F2ILSQK", "start_time": "1.51674639976e+12", "human_length": "1", "nodes_expanded": "999", "instance": "prb47495", "end_time": "1.51674639976e+12", "optimal_length": "14", "subject": "A21S7MA9DCW95E"}
{"rt": "11987.0", "trial_number": "2", "skipped": "False", "complete": "False", "assignment": "3X87C8JFV7JQ2BSCY8KSFD9F2ILSQK", "start_time": "1.51674639978e+12", "human_length": "2", "nodes_expanded": "999", "instance": "prb47495", "end_time": "1.51674641177e+12", "optimal_length": "14", "subject": "A21S7MA9DCW95E"}
{"rt": "34510.0", "trial_number": "3", "skipped": "False", "complete": "True", "assignment": "3X87C8JFV7JQ2BSCY8KSFD9F2ILSQK", "start_time": "1.5167464161e+12", "human_length": "21", "nodes_expanded": "999", "instance": "prb47495", "end_time": "1.51674645060e+12", "optimal_length": "14", "subject": "A21S7MA9DCW95E"}
{"rt": "12503.0", "trial_number": "0", "skipped": "False", "complete": "False", "assignment": "3CFVK00FWMTAOGE2ZQ9TXMETAPZ6LP", "start_time": "1.51675219065e+12", "human_length": "5", "nodes_expanded": "999", "instance": "prb47495", "end_time": "1.51675220315e+12", "optimal_length": "14", "subject": "A26RO8GGTQAXGG"}
{"rt": "8252.0", "trial_number": "1", "skipped": "False", "complete": "False", "assignment": "3CFVK00FWMTAOGE2ZQ9TXMETAPZ6LP", "start_time": "1.51675221558e+12", "human_length": "4", "nodes_expanded": "999", "instance": "prb47495", "end_time": "1.51675222383e+12", "optimal_length": "14", "subject": "A26RO8GGTQAXGG"}
{"rt": "23600.0", "trial_number": "2", "skipped": "False", "complete": "False", "assignment": "3CFVK00FWMTAOGE2ZQ9TXMETAPZ6LP", "start_time": "1.51675222909e+12", "human_length": "6", "nodes_expanded": "999", "instance": "prb47495", "end_time": "1.51675225269e+12", "optimal_length": "14", "subject": "A26RO8GGTQAXGG"}
{"rt": "43479.0", "trial_number": "3", "skipped": "True", "complete": "False", "assignment": "3CFVK00FWMTAOGE2ZQ9TXMETAPZ6LP", "start_time": "1.51675225824e+12", "human_length": "6", "nodes_expanded": "999", "instance": "prb47495", "end_time": "1.51675230172e+12", "optimal_length": "14", "subject": "A26RO8GGTQAXGG"}
{"rt": "89469.0", "trial_number": "0", "skipped": "False", "complete": "True", "assignment": "3I2PTA7R3U2SESF4TZBQORI5LSJQKK", "start_time": "1.51675859293e+12", "human_length": "34", "nodes_expanded": "999", "instance": "prb47495", "end_time": "1.5167586824e+12", "optimal_length": "14", "subject": "A3NMQ3019X6YE0"}
{"rt": "171112.0", "trial_number": "1", "skipped": "False", "complete": "True", "assignment": "3V5Q80FXIYZ5QB5C6ITQBN30WY823U", "start_time": "1.5175328233e+12", "human_length": "81", "nodes_expanded": "999", "instance": "prb47495", "end_time": "1.51753299441e+12", "optimal_length": "14", "subject": "A3NMQ3019X6YE0"}
{"rt": "37009.0", "trial_number": "0", "skipped": "False", "complete": "True", "assignment": "3YW4XOSQKRTI0K0Z2YPDTDJVFABU1I", "start_time": "1.51682471452e+12", "human_length": "19", "nodes_expanded": "999", "instance": "prb47495", "end_time": "1.51682475153e+12", "optimal_length": "14", "subject": "A15781PHGW377Y"}
{"rt": "69284.0", "trial_number": "0", "skipped": "False", "complete": "True", "assignment": "3TS1AR6UQRM7SOIBWPBN8N9589Y7FV", "start_time": "1.51683818899e+12", "human_length": "52", "nodes_expanded": "999", "instance": "prb47495", "end_time": "1.51683825828e+12", "optimal_length": "14", "subject": "A1F4N58CAX8IMK"}
{"rt": "44053.0", "trial_number": "1", "skipped": "False", "complete": "True", "assignment": "35DR22AR5ES6RR89U7EJ1DXW91AX3P", "start_time": "1.51795492377e+12", "human_length": "43", "nodes_expanded": "999", "instance": "prb47495", "end_time": "1.51795496783e+12", "optimal_length": "14", "subject": "A1F4N58CAX8IMK"}
{"rt": "17996.0", "trial_number": "0", "skipped": "True", "complete": "False", "assignment": "31LM9EDVOM0C0BWUVMJXJINN3QPJNI", "start_time": "1.51752435759e+12", "human_length": "9", "nodes_expanded": "999", "instance": "prb47495", "end_time": "1.51752437559e+12", "optimal_length": "14", "subject": "A1NT8BT94ME6F5"}
{"rt": "70447.0", "trial_number": "0", "skipped": "False", "complete": "True", "assignment": "37TD41K0AIHM8AITTQJXV8KY05QCSB", "start_time": "1.51752296152e+12", "human_length": "34", "nodes_expanded": "999", "instance": "prb47495", "end_time": "1.51752303196e+12", "optimal_length": "14", "subject": "A30KYQGABO7JER"}
{"rt": "33472.0", "trial_number": "0", "skipped": "True", "complete": "False", "assignment": "36H9ULYP6320CJJDXY0KBDEE1Z3JFB", "start_time": "1.51753381228e+12", "human_length": "16", "nodes_expanded": "999", "instance": "prb47495", "end_time": "1.51753384575e+12", "optimal_length": "14", "subject": "AN098C29EGJ6"}
{"rt": "42749.0", "trial_number": "0", "skipped": "False", "complete": "True", "assignment": "3TYCR1GOTDRCCQYD1V64UK7OHTBZLQ", "start_time": "1.51753687789e+12", "human_length": "33", "nodes_expanded": "999", "instance": "prb47495", "end_time": "1.51753692064e+12", "optimal_length": "14", "subject": "A13BZCNJ0WR1T7"}
{"rt": "33815.0", "trial_number": "0", "skipped": "False", "complete": "True", "assignment": "3TPWUS5F8A9FFRZ2DVTYSXNJ6BWWC6", "start_time": "1.51794263968e+12", "human_length": "27", "nodes_expanded": "999", "instance": "prb47495", "end_time": "1.51794267349e+12", "optimal_length": "14", "subject": "A3GXC3VG37CQ3G"}
{"rt": "45921.0", "trial_number": "0", "skipped": "False", "complete": "True", "assignment": "34HJIJKLP64Z5YMIU6IKNXSH7PDV4I", "start_time": "1.51794334119e+12", "human_length": "31", "nodes_expanded": "999", "instance": "prb47495", "end_time": "1.51794338711e+12", "optimal_length": "14", "subject": "A3CTXNQ2GXIQSP"}
{"rt": "91929.0", "trial_number": "0", "skipped": "False", "complete": "True", "assignment": "30IQTZXKALEAAZ9CBKW0ZFZP6O5X07", "start_time": "1.51794435477e+12", "human_length": "45", "nodes_expanded": "999", "instance": "prb47495", "end_time": "1.5179444467e+12", "optimal_length": "14", "subject": "A23XJ8I86R0O3B"}
{"rt": "21747.0", "trial_number": "0", "skipped": "False", "complete": "False", "assignment": "3JCG6DTRV4YEPVDZ64VNKDUEMPGQQ1", "start_time": "1.51794702084e+12", "human_length": "4", "nodes_expanded": "999", "instance": "prb47495", "end_time": "1.51794704258e+12", "optimal_length": "14", "subject": "A2V7KYLBCBTI3B"}
{"rt": "32334.0", "trial_number": "1", "skipped": "False", "complete": "True", "assignment": "3JCG6DTRV4YEPVDZ64VNKDUEMPGQQ1", "start_time": "1.51794704585e+12", "human_length": "15", "nodes_expanded": "999", "instance": "prb47495", "end_time": "1.51794707818e+12", "optimal_length": "14", "subject": "A2V7KYLBCBTI3B"}
{"rt": "28282.0", "trial_number": "0", "skipped": "False", "complete": "False", "assignment": "33PPO7FECWN7JOLBOAKUBCWTC0AIDL", "start_time": "1.51794974343e+12", "human_length": "5", "nodes_expanded": "999", "instance": "prb47495", "end_time": "1.51794977171e+12", "optimal_length": "14", "subject": "AXKM02NVXNGOM"}
{"rt": "57802.0", "trial_number": "1", "skipped": "True", "complete": "False", "assignment": "33PPO7FECWN7JOLBOAKUBCWTC0AIDL", "start_time": "1.5179497807e+12", "human_length": "8", "nodes_expanded": "999", "instance": "prb47495", "end_time": "1.5179498385e+12", "optimal_length": "14", "subject": "AXKM02NVXNGOM"}
{"rt": "209669.0", "trial_number": "0", "skipped": "False", "complete": "True", "assignment": "3PB5A5BD0WED6OE679H5Q89HBDGG71", "start_time": "1.51795031828e+12", "human_length": "141", "nodes_expanded": "999", "instance": "prb47495", "end_time": "1.51795052795e+12", "optimal_length": "14", "subject": "A1USR9JCAMDGM3"}
{"rt": "85390.0", "trial_number": "0", "skipped": "False", "complete": "True", "assignment": "3R5F3LQFV3SKIB1AENMWM1BICT5OZB", "start_time": "1.51795707556e+12", "human_length": "49", "nodes_expanded": "999", "instance": "prb47495", "end_time": "1.51795716095e+12", "optimal_length": "14", "subject": "A1N1EF0MIRSEZZ"}
{"rt": "20754.0", "trial_number": "0", "skipped": "False", "complete": "False", "assignment": "33F859I567LE8WC74WB3GA7E94XBHW", "start_time": "1.51796796557e+12", "human_length": "12", "nodes_expanded": "999", "instance": "prb47495", "end_time": "1.51796798632e+12", "optimal_length": "14", "subject": "A1GQS6USF2JEYG"}
{"rt": "23471.0", "trial_number": "1", "skipped": "False", "complete": "False", "assignment": "33F859I567LE8WC74WB3GA7E94XBHW", "start_time": "1.5179679986e+12", "human_length": "4", "nodes_expanded": "999", "instance": "prb47495", "end_time": "1.51796802207e+12", "optimal_length": "14", "subject": "A1GQS6USF2JEYG"}
{"rt": "24670.0", "trial_number": "2", "skipped": "False", "complete": "True", "assignment": "33F859I567LE8WC74WB3GA7E94XBHW", "start_time": "1.51796802809e+12", "human_length": "24", "nodes_expanded": "999", "instance": "prb47495", "end_time": "1.51796805276e+12", "optimal_length": "14", "subject": "A1GQS6USF2JEYG"}
{"rt": "35631.0", "trial_number": "0", "skipped": "False", "complete": "True", "assignment": "3IJXV6UZ1YR1KY4G6BFEG1DXR47RIC", "start_time": "1.51797227253e+12", "human_length": "34", "nodes_expanded": "999", "instance": "prb47495", "end_time": "1.51797230816e+12", "optimal_length": "14", "subject": "A18T3WK7J16C1B"}
{"rt": "19464.0", "trial_number": "0", "skipped": "False", "complete": "True", "assignment": "3FTF2T8WLSQDHTSZ1BJ7Q7MB14SW9H", "start_time": "1.51813733446e+12", "human_length": "19", "nodes_expanded": "999", "instance": "prb47495", "end_time": "1.51813735392e+12", "optimal_length": "14", "subject": "A1IUH9D7N69VS"}
{"rt": "14089.0", "trial_number": "0", "skipped": "False", "complete": "False", "assignment": "3XC1O3LBOTUGQEPEV3HM8W67X4RTLL", "start_time": "1.51813786028e+12", "human_length": "7", "nodes_expanded": "999", "instance": "prb47495", "end_time": "1.51813787436e+12", "optimal_length": "14", "subject": "A1ZTSCPETU3UJW"}
{"rt": "36537.0", "trial_number": "1", "skipped": "True", "complete": "False", "assignment": "3XC1O3LBOTUGQEPEV3HM8W67X4RTLL", "start_time": "1.5181378817e+12", "human_length": "18", "nodes_expanded": "999", "instance": "prb47495", "end_time": "1.51813791824e+12", "optimal_length": "14", "subject": "A1ZTSCPETU3UJW"}
{"rt": "27262.0", "trial_number": "0", "skipped": "False", "complete": "True", "assignment": "3TAYZSBPLMG9ASQRWXURJVBCPLN2SH", "start_time": "1.51813614557e+12", "human_length": "18", "nodes_expanded": "999", "instance": "prb47495", "end_time": "1.51813617284e+12", "optimal_length": "14", "subject": "A2RCYLKY072XXO"}
{"rt": "78806.0", "trial_number": "0", "skipped": "False", "complete": "False", "assignment": "3RXCAC0YISXH62JPHE9B485CNAL8G6", "start_time": "1.5181359491e+12", "human_length": "17", "nodes_expanded": "999", "instance": "prb47495", "end_time": "1.51813602790e+12", "optimal_length": "14", "subject": "A2CHKF2A6F4MIX"}
{"rt": "38584.0", "trial_number": "1", "skipped": "False", "complete": "False", "assignment": "3RXCAC0YISXH62JPHE9B485CNAL8G6", "start_time": "1.51813603074e+12", "human_length": "14", "nodes_expanded": "999", "instance": "prb47495", "end_time": "1.51813606932e+12", "optimal_length": "14", "subject": "A2CHKF2A6F4MIX"}
{"rt": "23587.0", "trial_number": "2", "skipped": "False", "complete": "False", "assignment": "3RXCAC0YISXH62JPHE9B485CNAL8G6", "start_time": "1.51813607399e+12", "human_length": "7", "nodes_expanded": "999", "instance": "prb47495", "end_time": "1.51813609758e+12", "optimal_length": "14", "subject": "A2CHKF2A6F4MIX"}
{"rt": "119734.0", "trial_number": "3", "skipped": "False", "complete": "False", "assignment": "3RXCAC0YISXH62JPHE9B485CNAL8G6", "start_time": "1.51813610581e+12", "human_length": "35", "nodes_expanded": "999", "instance": "prb47495", "end_time": "1.51813622554e+12", "optimal_length": "14", "subject": "A2CHKF2A6F4MIX"}
{"rt": "47298.0", "trial_number": "4", "skipped": "False", "complete": "False", "assignment": "3RXCAC0YISXH62JPHE9B485CNAL8G6", "start_time": "1.5181362278e+12", "human_length": "15", "nodes_expanded": "999", "instance": "prb47495", "end_time": "1.51813627509e+12", "optimal_length": "14", "subject": "A2CHKF2A6F4MIX"}
{"rt": "8865.0", "trial_number": "5", "skipped": "False", "complete": "False", "assignment": "3RXCAC0YISXH62JPHE9B485CNAL8G6", "start_time": "1.51813627778e+12", "human_length": "3", "nodes_expanded": "999", "instance": "prb47495", "end_time": "1.51813628664e+12", "optimal_length": "14", "subject": "A2CHKF2A6F4MIX"}
{"rt": "90740.0", "trial_number": "6", "skipped": "False", "complete": "True", "assignment": "3RXCAC0YISXH62JPHE9B485CNAL8G6", "start_time": "1.51813629151e+12", "human_length": "24", "nodes_expanded": "999", "instance": "prb47495", "end_time": "1.51813638225e+12", "optimal_length": "14", "subject": "A2CHKF2A6F4MIX"}
{"rt": "43897.0", "trial_number": "0", "skipped": "False", "complete": "True", "assignment": "3ZSANO2JCGFTBM23KS9Y3E51YP4FSQ", "start_time": "1.51814270396e+12", "human_length": "31", "nodes_expanded": "999", "instance": "prb47495", "end_time": "1.51814274785e+12", "optimal_length": "14", "subject": "A1F42D4L22K5ND"}
{"rt": "44961.0", "trial_number": "0", "skipped": "False", "complete": "True", "assignment": "3XLBSAQ9Z5KDX59BX15UBFPNNHYZ7Q", "start_time": "1.51814675928e+12", "human_length": "46", "nodes_expanded": "999", "instance": "prb47495", "end_time": "1.51814680424e+12", "optimal_length": "14", "subject": "A1HFNOKU591WCY"}
{"rt": "81234.0", "trial_number": "0", "skipped": "False", "complete": "False", "assignment": "37QW5D2ZRHUKW7SGCE3STMOFBMK8SX", "start_time": "1.51815624224e+12", "human_length": "41", "nodes_expanded": "999", "instance": "prb47495", "end_time": "1.51815632348e+12", "optimal_length": "14", "subject": "AMW2XLD9443OH"}
{"rt": "26359.0", "trial_number": "1", "skipped": "False", "complete": "False", "assignment": "37QW5D2ZRHUKW7SGCE3STMOFBMK8SX", "start_time": "1.51815632505e+12", "human_length": "13", "nodes_expanded": "999", "instance": "prb47495", "end_time": "1.51815635141e+12", "optimal_length": "14", "subject": "AMW2XLD9443OH"}
{"rt": "58982.0", "trial_number": "2", "skipped": "False", "complete": "False", "assignment": "37QW5D2ZRHUKW7SGCE3STMOFBMK8SX", "start_time": "1.51815635404e+12", "human_length": "20", "nodes_expanded": "999", "instance": "prb47495", "end_time": "1.51815641302e+12", "optimal_length": "14", "subject": "AMW2XLD9443OH"}
{"rt": "30628.0", "trial_number": "3", "skipped": "False", "complete": "True", "assignment": "37QW5D2ZRHUKW7SGCE3STMOFBMK8SX", "start_time": "1.518156415e+12", "human_length": "17", "nodes_expanded": "999", "instance": "prb47495", "end_time": "1.51815644563e+12", "optimal_length": "14", "subject": "AMW2XLD9443OH"}
{"rt": "27868.0", "trial_number": "0", "skipped": "False", "complete": "False", "assignment": "3M0BCWMB8W4W5M7WZVX3HDH1P53WB1", "start_time": "1.51816100635e+12", "human_length": "16", "nodes_expanded": "999", "instance": "prb47495", "end_time": "1.51816103421e+12", "optimal_length": "14", "subject": "A53S7J4JGWG38"}
{"rt": "44386.0", "trial_number": "1", "skipped": "False", "complete": "False", "assignment": "3M0BCWMB8W4W5M7WZVX3HDH1P53WB1", "start_time": "1.51816103556e+12", "human_length": "31", "nodes_expanded": "999", "instance": "prb47495", "end_time": "1.51816107994e+12", "optimal_length": "14", "subject": "A53S7J4JGWG38"}
{"rt": "11573.0", "trial_number": "2", "skipped": "True", "complete": "False", "assignment": "3M0BCWMB8W4W5M7WZVX3HDH1P53WB1", "start_time": "1.51816108191e+12", "human_length": "6", "nodes_expanded": "999", "instance": "prb47495", "end_time": "1.51816109349e+12", "optimal_length": "14", "subject": "A53S7J4JGWG38"}
{"rt": "137323.0", "trial_number": "0", "skipped": "True", "complete": "False", "assignment": "3SITXWYCNWHBUMCM90TPJWV8Y7AXBW", "start_time": "1.51816374774e+12", "human_length": "40", "nodes_expanded": "999", "instance": "prb47495", "end_time": "1.51816388506e+12", "optimal_length": "14", "subject": "A28RX7L0QZ993M"}
{"rt": "20641.0", "trial_number": "0", "skipped": "False", "complete": "True", "assignment": "3IXEICO793RY7TM78ZBKJDOA7ADT6Q", "start_time": "1.51816861771e+12", "human_length": "24", "nodes_expanded": "999", "instance": "prb47495", "end_time": "1.51816863835e+12", "optimal_length": "14", "subject": "ALH1K6ZAQQMN7"}
