{"rt": "0.0", "trial_number": "0", "skipped": "True", "complete": "False", "assignment": "36AHBNMV1SKT9O0GSS6XX0QHZV3YDN", "start_time": "1.51630556783e+12", "human_length": "1", "nodes_expanded": "999", "instance": "prb58853", "end_time": "1.51630556783e+12", "optimal_length": "16", "subject": "A39GADIK8RLMVC"}
{"rt": "46431.0", "trial_number": "0", "skipped": "False", "complete": "True", "assignment": "3PMBY0YE28B43VMUKKJ6EDF85RV9C8", "start_time": "1.51638587285e+12", "human_length": "28", "nodes_expanded": "999", "instance": "prb58853", "end_time": "1.51638591928e+12", "optimal_length": "16", "subject": "A191V7PT3DQKDP"}
{"rt": "26691.0", "trial_number": "0", "skipped": "False", "complete": "False", "assignment": "3ZSY5X72NYJBGKFJ46SJ0Y9J0RLROB", "start_time": "1.51638768717e+12", "human_length": "15", "nodes_expanded": "999", "instance": "prb58853", "end_time": "1.51638771386e+12", "optimal_length": "16", "subject": "AU4KK3OYS2UZF"}
{"rt": "24311.0", "trial_number": "1", "skipped": "True", "complete": "False", "assignment": "3ZSY5X72NYJBGKFJ46SJ0Y9J0RLROB", "start_time": "1.51638771714e+12", "human_length": "14", "nodes_expanded": "999", "instance": "prb58853", "end_time": "1.51638774145e+12", "optimal_length": "16", "subject": "AU4KK3OYS2UZF"}
{"rt": "300958.0", "trial_number": "0", "skipped": "False", "complete": "True", "assignment": "3TYCR1GOTDRCCQYD1V64UK7OE48LZS", "start_time": "1.51639017498e+12", "human_length": "134", "nodes_expanded": "999", "instance": "prb58853", "end_time": "1.51639047593e+12", "optimal_length": "16", "subject": "A2MYB6MLQW0IGN"}
{"rt": "25055.0", "trial_number": "0", "skipped": "True", "complete": "False", "assignment": "34BBWHLWHBJ6SUL255PK30LEGY5IWG", "start_time": "1.51639427121e+12", "human_length": "13", "nodes_expanded": "999", "instance": "prb58853", "end_time": "1.51639429626e+12", "optimal_length": "16", "subject": "A214HWAW1PYWO8"}
{"rt": "39357.0", "trial_number": "0", "skipped": "False", "complete": "False", "assignment": "3VE8AYVF8N5BS2NU6U3TMN50JMNF8V", "start_time": "1.51673679031e+12", "human_length": "13", "nodes_expanded": "999", "instance": "prb58853", "end_time": "1.51673682966e+12", "optimal_length": "16", "subject": "A18QU0YQB6Q8DF"}
{"rt": "0.0", "trial_number": "1", "skipped": "False", "complete": "False", "assignment": "3VE8AYVF8N5BS2NU6U3TMN50JMNF8V", "start_time": "1.51673683193e+12", "human_length": "1", "nodes_expanded": "999", "instance": "prb58853", "end_time": "1.51673683193e+12", "optimal_length": "16", "subject": "A18QU0YQB6Q8DF"}
{"rt": "0.0", "trial_number": "2", "skipped": "False", "complete": "False", "assignment": "3VE8AYVF8N5BS2NU6U3TMN50JMNF8V", "start_time": "1.51673679031e+12", "human_length": "1", "nodes_expanded": "999", "instance": "prb58853", "end_time": "1.51673679031e+12", "optimal_length": "16", "subject": "A18QU0YQB6Q8DF"}
{"rt": "0.0", "trial_number": "3", "skipped": "False", "complete": "False", "assignment": "3VE8AYVF8N5BS2NU6U3TMN50JMNF8V", "start_time": "1.51673683193e+12", "human_length": "1", "nodes_expanded": "999", "instance": "prb58853", "end_time": "1.51673683193e+12", "optimal_length": "16", "subject": "A18QU0YQB6Q8DF"}
{"rt": "0.0", "trial_number": "4", "skipped": "False", "complete": "False", "assignment": "3VE8AYVF8N5BS2NU6U3TMN50JMNF8V", "start_time": "1.51673679031e+12", "human_length": "1", "nodes_expanded": "999", "instance": "prb58853", "end_time": "1.51673679031e+12", "optimal_length": "16", "subject": "A18QU0YQB6Q8DF"}
{"rt": "52324.0", "trial_number": "5", "skipped": "True", "complete": "False", "assignment": "3VE8AYVF8N5BS2NU6U3TMN50JMNF8V", "start_time": "1.51673683193e+12", "human_length": "62", "nodes_expanded": "999", "instance": "prb58853", "end_time": "1.51673688426e+12", "optimal_length": "16", "subject": "A18QU0YQB6Q8DF"}
{"rt": "0.0", "trial_number": "0", "skipped": "False", "complete": "False", "assignment": "3X87C8JFV7JQ2BSCY8KSFD9F2ILSQK", "start_time": "1.51673825375e+12", "human_length": "1", "nodes_expanded": "999", "instance": "prb58853", "end_time": "1.51673825375e+12", "optimal_length": "16", "subject": "A3Q0XAGQ7TD7MP"}
{"rt": "0.0", "trial_number": "1", "skipped": "False", "complete": "False", "assignment": "3X87C8JFV7JQ2BSCY8KSFD9F2ILSQK", "start_time": "1.51673825375e+12", "human_length": "1", "nodes_expanded": "999", "instance": "prb58853", "end_time": "1.51673825375e+12", "optimal_length": "16", "subject": "A3Q0XAGQ7TD7MP"}
{"rt": "53527.0", "trial_number": "2", "skipped": "False", "complete": "True", "assignment": "3X87C8JFV7JQ2BSCY8KSFD9F2ILSQK", "start_time": "1.51673825375e+12", "human_length": "22", "nodes_expanded": "999", "instance": "prb58853", "end_time": "1.51673830727e+12", "optimal_length": "16", "subject": "A3Q0XAGQ7TD7MP"}
{"rt": "60682.0", "trial_number": "3", "skipped": "False", "complete": "True", "assignment": "3GLB5JMZFY3TNXFGYMKRQ0JDXNTDGZ", "start_time": "1.51794725193e+12", "human_length": "22", "nodes_expanded": "999", "instance": "prb58853", "end_time": "1.51794731261e+12", "optimal_length": "16", "subject": "A3Q0XAGQ7TD7MP"}
{"rt": "19509.0", "trial_number": "0", "skipped": "False", "complete": "False", "assignment": "3WSELTNVR4AZUVYAYCSWZIQW0J4ATB", "start_time": "1.51673820344e+12", "human_length": "12", "nodes_expanded": "999", "instance": "prb58853", "end_time": "1.51673822294e+12", "optimal_length": "16", "subject": "A2TQNX64349OZ9"}
{"rt": "18640.0", "trial_number": "1", "skipped": "False", "complete": "False", "assignment": "3WSELTNVR4AZUVYAYCSWZIQW0J4ATB", "start_time": "1.51673822675e+12", "human_length": "10", "nodes_expanded": "999", "instance": "prb58853", "end_time": "1.51673824539e+12", "optimal_length": "16", "subject": "A2TQNX64349OZ9"}
{"rt": "0.0", "trial_number": "2", "skipped": "False", "complete": "False", "assignment": "3WSELTNVR4AZUVYAYCSWZIQW0J4ATB", "start_time": "1.51673824926e+12", "human_length": "1", "nodes_expanded": "999", "instance": "prb58853", "end_time": "1.51673824926e+12", "optimal_length": "16", "subject": "A2TQNX64349OZ9"}
{"rt": "0.0", "trial_number": "3", "skipped": "False", "complete": "False", "assignment": "3WSELTNVR4AZUVYAYCSWZIQW0J4ATB", "start_time": "1.51673820344e+12", "human_length": "1", "nodes_expanded": "999", "instance": "prb58853", "end_time": "1.51673820344e+12", "optimal_length": "16", "subject": "A2TQNX64349OZ9"}
{"rt": "0.0", "trial_number": "4", "skipped": "False", "complete": "False", "assignment": "3WSELTNVR4AZUVYAYCSWZIQW0J4ATB", "start_time": "1.51673822675e+12", "human_length": "1", "nodes_expanded": "999", "instance": "prb58853", "end_time": "1.51673822675e+12", "optimal_length": "16", "subject": "A2TQNX64349OZ9"}
{"rt": "0.0", "trial_number": "5", "skipped": "False", "complete": "False", "assignment": "3WSELTNVR4AZUVYAYCSWZIQW0J4ATB", "start_time": "1.51673824926e+12", "human_length": "1", "nodes_expanded": "999", "instance": "prb58853", "end_time": "1.51673824926e+12", "optimal_length": "16", "subject": "A2TQNX64349OZ9"}
{"rt": "0.0", "trial_number": "6", "skipped": "False", "complete": "False", "assignment": "3WSELTNVR4AZUVYAYCSWZIQW0J4ATB", "start_time": "1.51673820344e+12", "human_length": "1", "nodes_expanded": "999", "instance": "prb58853", "end_time": "1.51673820344e+12", "optimal_length": "16", "subject": "A2TQNX64349OZ9"}
{"rt": "0.0", "trial_number": "7", "skipped": "False", "complete": "False", "assignment": "3WSELTNVR4AZUVYAYCSWZIQW0J4ATB", "start_time": "1.51673822675e+12", "human_length": "1", "nodes_expanded": "999", "instance": "prb58853", "end_time": "1.51673822675e+12", "optimal_length": "16", "subject": "A2TQNX64349OZ9"}
{"rt": "88925.0", "trial_number": "8", "skipped": "False", "complete": "True", "assignment": "3WSELTNVR4AZUVYAYCSWZIQW0J4ATB", "start_time": "1.51673824926e+12", "human_length": "47", "nodes_expanded": "999", "instance": "prb58853", "end_time": "1.51673833818e+12", "optimal_length": "16", "subject": "A2TQNX64349OZ9"}
{"rt": "67100.0", "trial_number": "0", "skipped": "False", "complete": "False", "assignment": "3IJXV6UZ1YR1KY4G6BFEG1DXP7SRI1", "start_time": "1.516738933e+12", "human_length": "25", "nodes_expanded": "999", "instance": "prb58853", "end_time": "1.5167390001e+12", "optimal_length": "16", "subject": "AEXF5EUX32U0M"}
{"rt": "53031.0", "trial_number": "1", "skipped": "False", "complete": "False", "assignment": "3IJXV6UZ1YR1KY4G6BFEG1DXP7SRI1", "start_time": "1.51673901136e+12", "human_length": "24", "nodes_expanded": "999", "instance": "prb58853", "end_time": "1.51673906439e+12", "optimal_length": "16", "subject": "AEXF5EUX32U0M"}
{"rt": "0.0", "trial_number": "2", "skipped": "False", "complete": "False", "assignment": "3IJXV6UZ1YR1KY4G6BFEG1DXP7SRI1", "start_time": "1.51673907294e+12", "human_length": "1", "nodes_expanded": "999", "instance": "prb58853", "end_time": "1.51673907294e+12", "optimal_length": "16", "subject": "AEXF5EUX32U0M"}
{"rt": "0.0", "trial_number": "3", "skipped": "False", "complete": "False", "assignment": "3IJXV6UZ1YR1KY4G6BFEG1DXP7SRI1", "start_time": "1.516738933e+12", "human_length": "1", "nodes_expanded": "999", "instance": "prb58853", "end_time": "1.516738933e+12", "optimal_length": "16", "subject": "AEXF5EUX32U0M"}
{"rt": "0.0", "trial_number": "4", "skipped": "False", "complete": "False", "assignment": "3IJXV6UZ1YR1KY4G6BFEG1DXP7SRI1", "start_time": "1.51673901136e+12", "human_length": "1", "nodes_expanded": "999", "instance": "prb58853", "end_time": "1.51673901136e+12", "optimal_length": "16", "subject": "AEXF5EUX32U0M"}
{"rt": "0.0", "trial_number": "5", "skipped": "False", "complete": "False", "assignment": "3IJXV6UZ1YR1KY4G6BFEG1DXP7SRI1", "start_time": "1.51673907294e+12", "human_length": "1", "nodes_expanded": "999", "instance": "prb58853", "end_time": "1.51673907294e+12", "optimal_length": "16", "subject": "AEXF5EUX32U0M"}
{"rt": "0.0", "trial_number": "6", "skipped": "False", "complete": "False", "assignment": "3IJXV6UZ1YR1KY4G6BFEG1DXP7SRI1", "start_time": "1.516738933e+12", "human_length": "1", "nodes_expanded": "999", "instance": "prb58853", "end_time": "1.516738933e+12", "optimal_length": "16", "subject": "AEXF5EUX32U0M"}
{"rt": "0.0", "trial_number": "7", "skipped": "False", "complete": "False", "assignment": "3IJXV6UZ1YR1KY4G6BFEG1DXP7SRI1", "start_time": "1.51673901136e+12", "human_length": "1", "nodes_expanded": "999", "instance": "prb58853", "end_time": "1.51673901136e+12", "optimal_length": "16", "subject": "AEXF5EUX32U0M"}
{"rt": "63056.0", "trial_number": "8", "skipped": "True", "complete": "False", "assignment": "3IJXV6UZ1YR1KY4G6BFEG1DXP7SRI1", "start_time": "1.51673907294e+12", "human_length": "161", "nodes_expanded": "999", "instance": "prb58853", "end_time": "1.516739136e+12", "optimal_length": "16", "subject": "AEXF5EUX32U0M"}
{"rt": "83795.0", "trial_number": "0", "skipped": "False", "complete": "False", "assignment": "3X87C8JFV7JQ2BSCY8KSFD9F2ILSQK", "start_time": "1.51674693048e+12", "human_length": "43", "nodes_expanded": "999", "instance": "prb58853", "end_time": "1.51674701427e+12", "optimal_length": "16", "subject": "A21S7MA9DCW95E"}
{"rt": "0.0", "trial_number": "1", "skipped": "False", "complete": "False", "assignment": "3X87C8JFV7JQ2BSCY8KSFD9F2ILSQK", "start_time": "1.51674709493e+12", "human_length": "1", "nodes_expanded": "999", "instance": "prb58853", "end_time": "1.51674709493e+12", "optimal_length": "16", "subject": "A21S7MA9DCW95E"}
{"rt": "0.0", "trial_number": "2", "skipped": "False", "complete": "False", "assignment": "3X87C8JFV7JQ2BSCY8KSFD9F2ILSQK", "start_time": "1.51674693048e+12", "human_length": "1", "nodes_expanded": "999", "instance": "prb58853", "end_time": "1.51674693048e+12", "optimal_length": "16", "subject": "A21S7MA9DCW95E"}
{"rt": "0.0", "trial_number": "3", "skipped": "False", "complete": "False", "assignment": "3X87C8JFV7JQ2BSCY8KSFD9F2ILSQK", "start_time": "1.51674709493e+12", "human_length": "1", "nodes_expanded": "999", "instance": "prb58853", "end_time": "1.51674709493e+12", "optimal_length": "16", "subject": "A21S7MA9DCW95E"}
{"rt": "0.0", "trial_number": "4", "skipped": "False", "complete": "False", "assignment": "3X87C8JFV7JQ2BSCY8KSFD9F2ILSQK", "start_time": "1.51674693048e+12", "human_length": "1", "nodes_expanded": "999", "instance": "prb58853", "end_time": "1.51674693048e+12", "optimal_length": "16", "subject": "A21S7MA9DCW95E"}
{"rt": "62212.0", "trial_number": "5", "skipped": "True", "complete": "False", "assignment": "3X87C8JFV7JQ2BSCY8KSFD9F2ILSQK", "start_time": "1.51674709493e+12", "human_length": "168", "nodes_expanded": "999", "instance": "prb58853", "end_time": "1.51674715714e+12", "optimal_length": "16", "subject": "A21S7MA9DCW95E"}
{"rt": "34924.0", "trial_number": "0", "skipped": "False", "complete": "False", "assignment": "3IJXV6UZ1YR1KY4G6BFEG1DXP7SRI1", "start_time": "1.5167513307e+12", "human_length": "19", "nodes_expanded": "999", "instance": "prb58853", "end_time": "1.51675136563e+12", "optimal_length": "16", "subject": "A2RTJ6BDY0DZVZ"}
{"rt": "43983.0", "trial_number": "1", "skipped": "False", "complete": "False", "assignment": "3IJXV6UZ1YR1KY4G6BFEG1DXP7SRI1", "start_time": "1.51675136771e+12", "human_length": "24", "nodes_expanded": "999", "instance": "prb58853", "end_time": "1.51675141169e+12", "optimal_length": "16", "subject": "A2RTJ6BDY0DZVZ"}
{"rt": "59211.0", "trial_number": "2", "skipped": "False", "complete": "False", "assignment": "3IJXV6UZ1YR1KY4G6BFEG1DXP7SRI1", "start_time": "1.51675141364e+12", "human_length": "30", "nodes_expanded": "999", "instance": "prb58853", "end_time": "1.51675147285e+12", "optimal_length": "16", "subject": "A2RTJ6BDY0DZVZ"}
{"rt": "68917.0", "trial_number": "3", "skipped": "False", "complete": "False", "assignment": "3IJXV6UZ1YR1KY4G6BFEG1DXP7SRI1", "start_time": "1.51675147631e+12", "human_length": "36", "nodes_expanded": "999", "instance": "prb58853", "end_time": "1.51675154523e+12", "optimal_length": "16", "subject": "A2RTJ6BDY0DZVZ"}
{"rt": "61313.0", "trial_number": "4", "skipped": "False", "complete": "False", "assignment": "3IJXV6UZ1YR1KY4G6BFEG1DXP7SRI1", "start_time": "1.51675154722e+12", "human_length": "33", "nodes_expanded": "999", "instance": "prb58853", "end_time": "1.51675160853e+12", "optimal_length": "16", "subject": "A2RTJ6BDY0DZVZ"}
{"rt": "50665.0", "trial_number": "5", "skipped": "False", "complete": "False", "assignment": "3IJXV6UZ1YR1KY4G6BFEG1DXP7SRI1", "start_time": "1.51675161003e+12", "human_length": "17", "nodes_expanded": "999", "instance": "prb58853", "end_time": "1.5167516607e+12", "optimal_length": "16", "subject": "A2RTJ6BDY0DZVZ"}
{"rt": "17943.0", "trial_number": "6", "skipped": "False", "complete": "False", "assignment": "3IJXV6UZ1YR1KY4G6BFEG1DXP7SRI1", "start_time": "1.51675166424e+12", "human_length": "5", "nodes_expanded": "999", "instance": "prb58853", "end_time": "1.51675168218e+12", "optimal_length": "16", "subject": "A2RTJ6BDY0DZVZ"}
{"rt": "83912.0", "trial_number": "7", "skipped": "False", "complete": "False", "assignment": "3IJXV6UZ1YR1KY4G6BFEG1DXP7SRI1", "start_time": "1.51675169667e+12", "human_length": "32", "nodes_expanded": "999", "instance": "prb58853", "end_time": "1.51675178058e+12", "optimal_length": "16", "subject": "A2RTJ6BDY0DZVZ"}
{"rt": "0.0", "trial_number": "8", "skipped": "False", "complete": "False", "assignment": "3IJXV6UZ1YR1KY4G6BFEG1DXP7SRI1", "start_time": "1.51675178395e+12", "human_length": "1", "nodes_expanded": "999", "instance": "prb58853", "end_time": "1.51675178395e+12", "optimal_length": "16", "subject": "A2RTJ6BDY0DZVZ"}
{"rt": "0.0", "trial_number": "9", "skipped": "False", "complete": "False", "assignment": "3IJXV6UZ1YR1KY4G6BFEG1DXP7SRI1", "start_time": "1.5167513307e+12", "human_length": "1", "nodes_expanded": "999", "instance": "prb58853", "end_time": "1.5167513307e+12", "optimal_length": "16", "subject": "A2RTJ6BDY0DZVZ"}
{"rt": "0.0", "trial_number": "10", "skipped": "False", "complete": "False", "assignment": "3IJXV6UZ1YR1KY4G6BFEG1DXP7SRI1", "start_time": "1.51675136771e+12", "human_length": "1", "nodes_expanded": "999", "instance": "prb58853", "end_time": "1.51675136771e+12", "optimal_length": "16", "subject": "A2RTJ6BDY0DZVZ"}
{"rt": "0.0", "trial_number": "11", "skipped": "False", "complete": "False", "assignment": "3IJXV6UZ1YR1KY4G6BFEG1DXP7SRI1", "start_time": "1.51675141364e+12", "human_length": "1", "nodes_expanded": "999", "instance": "prb58853", "end_time": "1.51675141364e+12", "optimal_length": "16", "subject": "A2RTJ6BDY0DZVZ"}
{"rt": "0.0", "trial_number": "12", "skipped": "False", "complete": "False", "assignment": "3IJXV6UZ1YR1KY4G6BFEG1DXP7SRI1", "start_time": "1.51675147631e+12", "human_length": "1", "nodes_expanded": "999", "instance": "prb58853", "end_time": "1.51675147631e+12", "optimal_length": "16", "subject": "A2RTJ6BDY0DZVZ"}
{"rt": "0.0", "trial_number": "13", "skipped": "False", "complete": "False", "assignment": "3IJXV6UZ1YR1KY4G6BFEG1DXP7SRI1", "start_time": "1.51675154722e+12", "human_length": "1", "nodes_expanded": "999", "instance": "prb58853", "end_time": "1.51675154722e+12", "optimal_length": "16", "subject": "A2RTJ6BDY0DZVZ"}
{"rt": "0.0", "trial_number": "14", "skipped": "False", "complete": "False", "assignment": "3IJXV6UZ1YR1KY4G6BFEG1DXP7SRI1", "start_time": "1.51675161003e+12", "human_length": "1", "nodes_expanded": "999", "instance": "prb58853", "end_time": "1.51675161003e+12", "optimal_length": "16", "subject": "A2RTJ6BDY0DZVZ"}
{"rt": "0.0", "trial_number": "15", "skipped": "False", "complete": "False", "assignment": "3IJXV6UZ1YR1KY4G6BFEG1DXP7SRI1", "start_time": "1.51675166424e+12", "human_length": "1", "nodes_expanded": "999", "instance": "prb58853", "end_time": "1.51675166424e+12", "optimal_length": "16", "subject": "A2RTJ6BDY0DZVZ"}
{"rt": "0.0", "trial_number": "16", "skipped": "False", "complete": "False", "assignment": "3IJXV6UZ1YR1KY4G6BFEG1DXP7SRI1", "start_time": "1.51675169667e+12", "human_length": "1", "nodes_expanded": "999", "instance": "prb58853", "end_time": "1.51675169667e+12", "optimal_length": "16", "subject": "A2RTJ6BDY0DZVZ"}
{"rt": "0.0", "trial_number": "17", "skipped": "False", "complete": "False", "assignment": "3IJXV6UZ1YR1KY4G6BFEG1DXP7SRI1", "start_time": "1.51675178395e+12", "human_length": "1", "nodes_expanded": "999", "instance": "prb58853", "end_time": "1.51675178395e+12", "optimal_length": "16", "subject": "A2RTJ6BDY0DZVZ"}
{"rt": "0.0", "trial_number": "18", "skipped": "False", "complete": "False", "assignment": "3IJXV6UZ1YR1KY4G6BFEG1DXP7SRI1", "start_time": "1.5167513307e+12", "human_length": "1", "nodes_expanded": "999", "instance": "prb58853", "end_time": "1.5167513307e+12", "optimal_length": "16", "subject": "A2RTJ6BDY0DZVZ"}
{"rt": "0.0", "trial_number": "19", "skipped": "False", "complete": "False", "assignment": "3IJXV6UZ1YR1KY4G6BFEG1DXP7SRI1", "start_time": "1.51675136771e+12", "human_length": "1", "nodes_expanded": "999", "instance": "prb58853", "end_time": "1.51675136771e+12", "optimal_length": "16", "subject": "A2RTJ6BDY0DZVZ"}
{"rt": "0.0", "trial_number": "20", "skipped": "False", "complete": "False", "assignment": "3IJXV6UZ1YR1KY4G6BFEG1DXP7SRI1", "start_time": "1.51675141364e+12", "human_length": "1", "nodes_expanded": "999", "instance": "prb58853", "end_time": "1.51675141364e+12", "optimal_length": "16", "subject": "A2RTJ6BDY0DZVZ"}
{"rt": "0.0", "trial_number": "21", "skipped": "False", "complete": "False", "assignment": "3IJXV6UZ1YR1KY4G6BFEG1DXP7SRI1", "start_time": "1.51675147631e+12", "human_length": "1", "nodes_expanded": "999", "instance": "prb58853", "end_time": "1.51675147631e+12", "optimal_length": "16", "subject": "A2RTJ6BDY0DZVZ"}
{"rt": "0.0", "trial_number": "22", "skipped": "False", "complete": "False", "assignment": "3IJXV6UZ1YR1KY4G6BFEG1DXP7SRI1", "start_time": "1.51675154722e+12", "human_length": "1", "nodes_expanded": "999", "instance": "prb58853", "end_time": "1.51675154722e+12", "optimal_length": "16", "subject": "A2RTJ6BDY0DZVZ"}
{"rt": "0.0", "trial_number": "23", "skipped": "False", "complete": "False", "assignment": "3IJXV6UZ1YR1KY4G6BFEG1DXP7SRI1", "start_time": "1.51675161003e+12", "human_length": "1", "nodes_expanded": "999", "instance": "prb58853", "end_time": "1.51675161003e+12", "optimal_length": "16", "subject": "A2RTJ6BDY0DZVZ"}
{"rt": "0.0", "trial_number": "24", "skipped": "False", "complete": "False", "assignment": "3IJXV6UZ1YR1KY4G6BFEG1DXP7SRI1", "start_time": "1.51675166424e+12", "human_length": "1", "nodes_expanded": "999", "instance": "prb58853", "end_time": "1.51675166424e+12", "optimal_length": "16", "subject": "A2RTJ6BDY0DZVZ"}
{"rt": "0.0", "trial_number": "25", "skipped": "False", "complete": "False", "assignment": "3IJXV6UZ1YR1KY4G6BFEG1DXP7SRI1", "start_time": "1.51675169667e+12", "human_length": "1", "nodes_expanded": "999", "instance": "prb58853", "end_time": "1.51675169667e+12", "optimal_length": "16", "subject": "A2RTJ6BDY0DZVZ"}
{"rt": "149362.0", "trial_number": "26", "skipped": "True", "complete": "False", "assignment": "3IJXV6UZ1YR1KY4G6BFEG1DXP7SRI1", "start_time": "1.51675178395e+12", "human_length": "530", "nodes_expanded": "999", "instance": "prb58853", "end_time": "1.51675193331e+12", "optimal_length": "16", "subject": "A2RTJ6BDY0DZVZ"}
{"rt": "0.0", "trial_number": "0", "skipped": "False", "complete": "False", "assignment": "3YW4XOSQKRTI0K0Z2YPDTDJVFABU1I", "start_time": "1.51682552986e+12", "human_length": "1", "nodes_expanded": "999", "instance": "prb58853", "end_time": "1.51682552986e+12", "optimal_length": "16", "subject": "A15781PHGW377Y"}
{"rt": "77778.0", "trial_number": "1", "skipped": "False", "complete": "True", "assignment": "3YW4XOSQKRTI0K0Z2YPDTDJVFABU1I", "start_time": "1.51682552986e+12", "human_length": "36", "nodes_expanded": "999", "instance": "prb58853", "end_time": "1.51682560764e+12", "optimal_length": "16", "subject": "A15781PHGW377Y"}
{"rt": "0.0", "trial_number": "0", "skipped": "False", "complete": "False", "assignment": "3IHR8NYAM89M0EPM8U9LH53ZJDTP4U", "start_time": "1.51682479625e+12", "human_length": "1", "nodes_expanded": "999", "instance": "prb58853", "end_time": "1.51682479625e+12", "optimal_length": "16", "subject": "A23437BMZ5T1FH"}
{"rt": "103263.0", "trial_number": "1", "skipped": "False", "complete": "True", "assignment": "3IHR8NYAM89M0EPM8U9LH53ZJDTP4U", "start_time": "1.51682479625e+12", "human_length": "67", "nodes_expanded": "999", "instance": "prb58853", "end_time": "1.51682489951e+12", "optimal_length": "16", "subject": "A23437BMZ5T1FH"}
{"rt": "192657.0", "trial_number": "0", "skipped": "False", "complete": "False", "assignment": "37WLF8U1WQYZ4AWKEQXSIM1ELVEK6W", "start_time": "1.51683063806e+12", "human_length": "92", "nodes_expanded": "999", "instance": "prb58853", "end_time": "1.51683083071e+12", "optimal_length": "16", "subject": "A2EPBSY0VPI38S"}
{"rt": "0.0", "trial_number": "1", "skipped": "False", "complete": "False", "assignment": "37WLF8U1WQYZ4AWKEQXSIM1ELVEK6W", "start_time": "1.51683083841e+12", "human_length": "1", "nodes_expanded": "999", "instance": "prb58853", "end_time": "1.51683083841e+12", "optimal_length": "16", "subject": "A2EPBSY0VPI38S"}
{"rt": "0.0", "trial_number": "2", "skipped": "False", "complete": "False", "assignment": "37WLF8U1WQYZ4AWKEQXSIM1ELVEK6W", "start_time": "1.51683063806e+12", "human_length": "1", "nodes_expanded": "999", "instance": "prb58853", "end_time": "1.51683063806e+12", "optimal_length": "16", "subject": "A2EPBSY0VPI38S"}
{"rt": "239609.0", "trial_number": "3", "skipped": "True", "complete": "False", "assignment": "37WLF8U1WQYZ4AWKEQXSIM1ELVEK6W", "start_time": "1.51683083841e+12", "human_length": "275", "nodes_expanded": "999", "instance": "prb58853", "end_time": "1.51683107802e+12", "optimal_length": "16", "subject": "A2EPBSY0VPI38S"}
{"rt": "109017.0", "trial_number": "0", "skipped": "False", "complete": "True", "assignment": "3YW4XOSQKRTI0K0Z2YPDTDJVFABU1I", "start_time": "1.51683304149e+12", "human_length": "66", "nodes_expanded": "999", "instance": "prb58853", "end_time": "1.51683315051e+12", "optimal_length": "16", "subject": "A1LR0VQIHQUJAM"}
{"rt": "39357.0", "trial_number": "0", "skipped": "False", "complete": "False", "assignment": "3VE8AYVF8N5BS2NU6U3TMN50JMNF8V", "start_time": "1.51673679031e+12", "human_length": "13", "nodes_expanded": "999", "instance": "prb58853", "end_time": "1.51673682966e+12", "optimal_length": "16", "subject": "A18QU0YQB6Q8DF"}
{"rt": "52324.0", "trial_number": "1", "skipped": "True", "complete": "False", "assignment": "3VE8AYVF8N5BS2NU6U3TMN50JMNF8V", "start_time": "1.51673683193e+12", "human_length": "16", "nodes_expanded": "999", "instance": "prb58853", "end_time": "1.51673688426e+12", "optimal_length": "16", "subject": "A18QU0YQB6Q8DF"}
{"rt": "53527.0", "trial_number": "0", "skipped": "False", "complete": "True", "assignment": "3X87C8JFV7JQ2BSCY8KSFD9F2ILSQK", "start_time": "1.51673825375e+12", "human_length": "22", "nodes_expanded": "999", "instance": "prb58853", "end_time": "1.51673830727e+12", "optimal_length": "16", "subject": "A3Q0XAGQ7TD7MP"}
{"rt": "60682.0", "trial_number": "1", "skipped": "False", "complete": "True", "assignment": "3GLB5JMZFY3TNXFGYMKRQ0JDXNTDGZ", "start_time": "1.51794725193e+12", "human_length": "22", "nodes_expanded": "999", "instance": "prb58853", "end_time": "1.51794731261e+12", "optimal_length": "16", "subject": "A3Q0XAGQ7TD7MP"}
{"rt": "19509.0", "trial_number": "0", "skipped": "False", "complete": "False", "assignment": "3WSELTNVR4AZUVYAYCSWZIQW0J4ATB", "start_time": "1.51673820344e+12", "human_length": "12", "nodes_expanded": "999", "instance": "prb58853", "end_time": "1.51673822294e+12", "optimal_length": "16", "subject": "A2TQNX64349OZ9"}
{"rt": "18640.0", "trial_number": "1", "skipped": "False", "complete": "False", "assignment": "3WSELTNVR4AZUVYAYCSWZIQW0J4ATB", "start_time": "1.51673822675e+12", "human_length": "10", "nodes_expanded": "999", "instance": "prb58853", "end_time": "1.51673824539e+12", "optimal_length": "16", "subject": "A2TQNX64349OZ9"}
{"rt": "88925.0", "trial_number": "2", "skipped": "False", "complete": "True", "assignment": "3WSELTNVR4AZUVYAYCSWZIQW0J4ATB", "start_time": "1.51673824926e+12", "human_length": "47", "nodes_expanded": "999", "instance": "prb58853", "end_time": "1.51673833818e+12", "optimal_length": "16", "subject": "A2TQNX64349OZ9"}
{"rt": "67100.0", "trial_number": "0", "skipped": "False", "complete": "False", "assignment": "3IJXV6UZ1YR1KY4G6BFEG1DXP7SRI1", "start_time": "1.516738933e+12", "human_length": "25", "nodes_expanded": "999", "instance": "prb58853", "end_time": "1.5167390001e+12", "optimal_length": "16", "subject": "AEXF5EUX32U0M"}
{"rt": "53031.0", "trial_number": "1", "skipped": "False", "complete": "False", "assignment": "3IJXV6UZ1YR1KY4G6BFEG1DXP7SRI1", "start_time": "1.51673901136e+12", "human_length": "24", "nodes_expanded": "999", "instance": "prb58853", "end_time": "1.51673906439e+12", "optimal_length": "16", "subject": "AEXF5EUX32U0M"}
{"rt": "63056.0", "trial_number": "2", "skipped": "True", "complete": "False", "assignment": "3IJXV6UZ1YR1KY4G6BFEG1DXP7SRI1", "start_time": "1.51673907294e+12", "human_length": "27", "nodes_expanded": "999", "instance": "prb58853", "end_time": "1.516739136e+12", "optimal_length": "16", "subject": "AEXF5EUX32U0M"}
{"rt": "83795.0", "trial_number": "0", "skipped": "False", "complete": "False", "assignment": "3X87C8JFV7JQ2BSCY8KSFD9F2ILSQK", "start_time": "1.51674693048e+12", "human_length": "43", "nodes_expanded": "999", "instance": "prb58853", "end_time": "1.51674701427e+12", "optimal_length": "16", "subject": "A21S7MA9DCW95E"}
{"rt": "62212.0", "trial_number": "1", "skipped": "True", "complete": "False", "assignment": "3X87C8JFV7JQ2BSCY8KSFD9F2ILSQK", "start_time": "1.51674709493e+12", "human_length": "32", "nodes_expanded": "999", "instance": "prb58853", "end_time": "1.51674715714e+12", "optimal_length": "16", "subject": "A21S7MA9DCW95E"}
{"rt": "34924.0", "trial_number": "0", "skipped": "False", "complete": "False", "assignment": "3IJXV6UZ1YR1KY4G6BFEG1DXP7SRI1", "start_time": "1.5167513307e+12", "human_length": "19", "nodes_expanded": "999", "instance": "prb58853", "end_time": "1.51675136563e+12", "optimal_length": "16", "subject": "A2RTJ6BDY0DZVZ"}
{"rt": "43983.0", "trial_number": "1", "skipped": "False", "complete": "False", "assignment": "3IJXV6UZ1YR1KY4G6BFEG1DXP7SRI1", "start_time": "1.51675136771e+12", "human_length": "24", "nodes_expanded": "999", "instance": "prb58853", "end_time": "1.51675141169e+12", "optimal_length": "16", "subject": "A2RTJ6BDY0DZVZ"}
{"rt": "59211.0", "trial_number": "2", "skipped": "False", "complete": "False", "assignment": "3IJXV6UZ1YR1KY4G6BFEG1DXP7SRI1", "start_time": "1.51675141364e+12", "human_length": "30", "nodes_expanded": "999", "instance": "prb58853", "end_time": "1.51675147285e+12", "optimal_length": "16", "subject": "A2RTJ6BDY0DZVZ"}
{"rt": "68917.0", "trial_number": "3", "skipped": "False", "complete": "False", "assignment": "3IJXV6UZ1YR1KY4G6BFEG1DXP7SRI1", "start_time": "1.51675147631e+12", "human_length": "36", "nodes_expanded": "999", "instance": "prb58853", "end_time": "1.51675154523e+12", "optimal_length": "16", "subject": "A2RTJ6BDY0DZVZ"}
{"rt": "61313.0", "trial_number": "4", "skipped": "False", "complete": "False", "assignment": "3IJXV6UZ1YR1KY4G6BFEG1DXP7SRI1", "start_time": "1.51675154722e+12", "human_length": "33", "nodes_expanded": "999", "instance": "prb58853", "end_time": "1.51675160853e+12", "optimal_length": "16", "subject": "A2RTJ6BDY0DZVZ"}
{"rt": "50665.0", "trial_number": "5", "skipped": "False", "complete": "False", "assignment": "3IJXV6UZ1YR1KY4G6BFEG1DXP7SRI1", "start_time": "1.51675161003e+12", "human_length": "17", "nodes_expanded": "999", "instance": "prb58853", "end_time": "1.5167516607e+12", "optimal_length": "16", "subject": "A2RTJ6BDY0DZVZ"}
{"rt": "17943.0", "trial_number": "6", "skipped": "False", "complete": "False", "assignment": "3IJXV6UZ1YR1KY4G6BFEG1DXP7SRI1", "start_time": "1.51675166424e+12", "human_length": "5", "nodes_expanded": "999", "instance": "prb58853", "end_time": "1.51675168218e+12", "optimal_length": "16", "subject": "A2RTJ6BDY0DZVZ"}
{"rt": "83912.0", "trial_number": "7", "skipped": "False", "complete": "False", "assignment": "3IJXV6UZ1YR1KY4G6BFEG1DXP7SRI1", "start_time": "1.51675169667e+12", "human_length": "32", "nodes_expanded": "999", "instance": "prb58853", "end_time": "1.51675178058e+12", "optimal_length": "16", "subject": "A2RTJ6BDY0DZVZ"}
{"rt": "149362.0", "trial_number": "8", "skipped": "True", "complete": "False", "assignment": "3IJXV6UZ1YR1KY4G6BFEG1DXP7SRI1", "start_time": "1.51675178395e+12", "human_length": "66", "nodes_expanded": "999", "instance": "prb58853", "end_time": "1.51675193331e+12", "optimal_length": "16", "subject": "A2RTJ6BDY0DZVZ"}
{"rt": "77778.0", "trial_number": "0", "skipped": "False", "complete": "True", "assignment": "3YW4XOSQKRTI0K0Z2YPDTDJVFABU1I", "start_time": "1.51682552986e+12", "human_length": "36", "nodes_expanded": "999", "instance": "prb58853", "end_time": "1.51682560764e+12", "optimal_length": "16", "subject": "A15781PHGW377Y"}
{"rt": "48462.0", "trial_number": "0", "skipped": "False", "complete": "True", "assignment": "3TS1AR6UQRM7SOIBWPBN8N9589Y7FV", "start_time": "1.51683752133e+12", "human_length": "27", "nodes_expanded": "999", "instance": "prb58853", "end_time": "1.5168375698e+12", "optimal_length": "16", "subject": "A1F4N58CAX8IMK"}
{"rt": "69401.0", "trial_number": "1", "skipped": "False", "complete": "True", "assignment": "35DR22AR5ES6RR89U7EJ1DXW91AX3P", "start_time": "1.51795287455e+12", "human_length": "58", "nodes_expanded": "999", "instance": "prb58853", "end_time": "1.51795294395e+12", "optimal_length": "16", "subject": "A1F4N58CAX8IMK"}
{"rt": "40010.0", "trial_number": "0", "skipped": "False", "complete": "True", "assignment": "3M0BCWMB8W4W5M7WZVX3HDH1M3FBWL", "start_time": "1.51683942791e+12", "human_length": "23", "nodes_expanded": "999", "instance": "prb58853", "end_time": "1.51683946792e+12", "optimal_length": "16", "subject": "A1XDMS0KFSF5JW"}
{"rt": "112193.0", "trial_number": "0", "skipped": "False", "complete": "False", "assignment": "3TS1AR6UQRM7SOIBWPBN8N9589Y7FV", "start_time": "1.51684146959e+12", "human_length": "59", "nodes_expanded": "999", "instance": "prb58853", "end_time": "1.51684158178e+12", "optimal_length": "16", "subject": "A15FXHC1CVNW31"}
{"rt": "41321.0", "trial_number": "1", "skipped": "False", "complete": "True", "assignment": "3TS1AR6UQRM7SOIBWPBN8N9589Y7FV", "start_time": "1.51684158372e+12", "human_length": "27", "nodes_expanded": "999", "instance": "prb58853", "end_time": "1.51684162504e+12", "optimal_length": "16", "subject": "A15FXHC1CVNW31"}
{"rt": "44468.0", "trial_number": "0", "skipped": "True", "complete": "False", "assignment": "31LM9EDVOM0C0BWUVMJXJINN3QPJNI", "start_time": "1.51752437733e+12", "human_length": "6", "nodes_expanded": "999", "instance": "prb58853", "end_time": "1.5175244218e+12", "optimal_length": "16", "subject": "A1NT8BT94ME6F5"}
{"rt": "56761.0", "trial_number": "0", "skipped": "True", "complete": "False", "assignment": "37TD41K0AIHM8AITTQJXV8KY05QCSB", "start_time": "1.51752414053e+12", "human_length": "27", "nodes_expanded": "999", "instance": "prb58853", "end_time": "1.5175241973e+12", "optimal_length": "16", "subject": "A30KYQGABO7JER"}
{"rt": "22445.0", "trial_number": "0", "skipped": "True", "complete": "False", "assignment": "36H9ULYP6320CJJDXY0KBDEE1Z3JFB", "start_time": "1.51753370154e+12", "human_length": "10", "nodes_expanded": "999", "instance": "prb58853", "end_time": "1.51753372398e+12", "optimal_length": "16", "subject": "AN098C29EGJ6"}
{"rt": "34693.0", "trial_number": "0", "skipped": "False", "complete": "False", "assignment": "3TYCR1GOTDRCCQYD1V64UK7OHTBZLQ", "start_time": "1.51753594211e+12", "human_length": "23", "nodes_expanded": "999", "instance": "prb58853", "end_time": "1.51753597681e+12", "optimal_length": "16", "subject": "A13BZCNJ0WR1T7"}
{"rt": "76933.0", "trial_number": "1", "skipped": "True", "complete": "False", "assignment": "3TYCR1GOTDRCCQYD1V64UK7OHTBZLQ", "start_time": "1.51753597988e+12", "human_length": "55", "nodes_expanded": "999", "instance": "prb58853", "end_time": "1.51753605681e+12", "optimal_length": "16", "subject": "A13BZCNJ0WR1T7"}
{"rt": "116725.0", "trial_number": "0", "skipped": "True", "complete": "False", "assignment": "3H0W84IWBLAP4T2UASPNVMF5ZH7ER9", "start_time": "1.51755522124e+12", "human_length": "47", "nodes_expanded": "999", "instance": "prb58853", "end_time": "1.51755533796e+12", "optimal_length": "16", "subject": "A1AKX1C8GCVCTP"}
{"rt": "45814.0", "trial_number": "0", "skipped": "False", "complete": "True", "assignment": "34HJIJKLP64Z5YMIU6IKNXSH7PDV4I", "start_time": "1.51794227409e+12", "human_length": "26", "nodes_expanded": "999", "instance": "prb58853", "end_time": "1.51794231991e+12", "optimal_length": "16", "subject": "A3CTXNQ2GXIQSP"}
{"rt": "65120.0", "trial_number": "0", "skipped": "True", "complete": "False", "assignment": "3U84XHCDIDLGEIRSV37N835DV0K4ZS", "start_time": "1.51794023391e+12", "human_length": "16", "nodes_expanded": "999", "instance": "prb58853", "end_time": "1.51794029903e+12", "optimal_length": "16", "subject": "A8KX1HFH8NE2Q"}
{"rt": "65853.0", "trial_number": "0", "skipped": "False", "complete": "False", "assignment": "3TXD01ZLD5PZSJXIPG8FRBQYTI9U4X", "start_time": "1.51794411382e+12", "human_length": "29", "nodes_expanded": "999", "instance": "prb58853", "end_time": "1.51794417967e+12", "optimal_length": "16", "subject": "A3BPRPN10HJD4B"}
{"rt": "102827.0", "trial_number": "1", "skipped": "False", "complete": "True", "assignment": "3TXD01ZLD5PZSJXIPG8FRBQYTI9U4X", "start_time": "1.51794418494e+12", "human_length": "41", "nodes_expanded": "999", "instance": "prb58853", "end_time": "1.51794428776e+12", "optimal_length": "16", "subject": "A3BPRPN10HJD4B"}
{"rt": "29204.0", "trial_number": "0", "skipped": "True", "complete": "False", "assignment": "30IQTZXKALEAAZ9CBKW0ZFZP6O5X07", "start_time": "1.51794528092e+12", "human_length": "15", "nodes_expanded": "999", "instance": "prb58853", "end_time": "1.51794531012e+12", "optimal_length": "16", "subject": "A23XJ8I86R0O3B"}
{"rt": "49087.0", "trial_number": "0", "skipped": "False", "complete": "True", "assignment": "33PPO7FECWN7JOLBOAKUBCWTC0AIDL", "start_time": "1.51795054727e+12", "human_length": "24", "nodes_expanded": "999", "instance": "prb58853", "end_time": "1.51795059635e+12", "optimal_length": "16", "subject": "AXKM02NVXNGOM"}
{"rt": "75813.0", "trial_number": "0", "skipped": "False", "complete": "True", "assignment": "3PB5A5BD0WED6OE679H5Q89HBDGG71", "start_time": "1.5179531901e+12", "human_length": "48", "nodes_expanded": "999", "instance": "prb58853", "end_time": "1.51795326592e+12", "optimal_length": "16", "subject": "A1USR9JCAMDGM3"}
{"rt": "70679.0", "trial_number": "0", "skipped": "False", "complete": "True", "assignment": "33F859I567LE8WC74WB3GA7E94XBHW", "start_time": "1.51797007614e+12", "human_length": "46", "nodes_expanded": "999", "instance": "prb58853", "end_time": "1.51797014682e+12", "optimal_length": "16", "subject": "A1GQS6USF2JEYG"}
{"rt": "78405.0", "trial_number": "0", "skipped": "False", "complete": "True", "assignment": "3IJXV6UZ1YR1KY4G6BFEG1DXR47RIC", "start_time": "1.51797358499e+12", "human_length": "64", "nodes_expanded": "999", "instance": "prb58853", "end_time": "1.5179736634e+12", "optimal_length": "16", "subject": "A18T3WK7J16C1B"}
{"rt": "31568.0", "trial_number": "0", "skipped": "False", "complete": "True", "assignment": "3FTF2T8WLSQDHTSZ1BJ7Q7MB14SW9H", "start_time": "1.51813573835e+12", "human_length": "25", "nodes_expanded": "999", "instance": "prb58853", "end_time": "1.51813576992e+12", "optimal_length": "16", "subject": "A1IUH9D7N69VS"}
{"rt": "20738.0", "trial_number": "0", "skipped": "False", "complete": "False", "assignment": "3XC1O3LBOTUGQEPEV3HM8W67X4RTLL", "start_time": "1.51813657961e+12", "human_length": "11", "nodes_expanded": "999", "instance": "prb58853", "end_time": "1.51813660035e+12", "optimal_length": "16", "subject": "A1ZTSCPETU3UJW"}
{"rt": "10627.0", "trial_number": "1", "skipped": "False", "complete": "False", "assignment": "3XC1O3LBOTUGQEPEV3HM8W67X4RTLL", "start_time": "1.51813660507e+12", "human_length": "7", "nodes_expanded": "999", "instance": "prb58853", "end_time": "1.51813661569e+12", "optimal_length": "16", "subject": "A1ZTSCPETU3UJW"}
{"rt": "30988.0", "trial_number": "2", "skipped": "False", "complete": "False", "assignment": "3XC1O3LBOTUGQEPEV3HM8W67X4RTLL", "start_time": "1.51813662044e+12", "human_length": "12", "nodes_expanded": "999", "instance": "prb58853", "end_time": "1.51813665143e+12", "optimal_length": "16", "subject": "A1ZTSCPETU3UJW"}
{"rt": "30266.0", "trial_number": "3", "skipped": "False", "complete": "False", "assignment": "3XC1O3LBOTUGQEPEV3HM8W67X4RTLL", "start_time": "1.51813665976e+12", "human_length": "13", "nodes_expanded": "999", "instance": "prb58853", "end_time": "1.51813669002e+12", "optimal_length": "16", "subject": "A1ZTSCPETU3UJW"}
{"rt": "29449.0", "trial_number": "4", "skipped": "True", "complete": "False", "assignment": "3XC1O3LBOTUGQEPEV3HM8W67X4RTLL", "start_time": "1.51813669151e+12", "human_length": "8", "nodes_expanded": "999", "instance": "prb58853", "end_time": "1.51813672096e+12", "optimal_length": "16", "subject": "A1ZTSCPETU3UJW"}
{"rt": "21384.0", "trial_number": "0", "skipped": "True", "complete": "False", "assignment": "3TAYZSBPLMG9ASQRWXURJVBCPLN2SH", "start_time": "1.51813753248e+12", "human_length": "12", "nodes_expanded": "999", "instance": "prb58853", "end_time": "1.51813755387e+12", "optimal_length": "16", "subject": "A2RCYLKY072XXO"}
{"rt": "23738.0", "trial_number": "0", "skipped": "False", "complete": "True", "assignment": "3ZSANO2JCGFTBM23KS9Y3E51YP4FSQ", "start_time": "1.51814398038e+12", "human_length": "26", "nodes_expanded": "999", "instance": "prb58853", "end_time": "1.51814400412e+12", "optimal_length": "16", "subject": "A1F42D4L22K5ND"}
{"rt": "162638.0", "trial_number": "0", "skipped": "False", "complete": "True", "assignment": "3HWRJOOET6A15827PHPSLWK1MOYSEU", "start_time": "1.51814367615e+12", "human_length": "110", "nodes_expanded": "999", "instance": "prb58853", "end_time": "1.51814383879e+12", "optimal_length": "16", "subject": "AO1QGAUZ85T6L"}
{"rt": "29464.0", "trial_number": "0", "skipped": "True", "complete": "False", "assignment": "3XLBSAQ9Z5KDX59BX15UBFPNNHYZ7Q", "start_time": "1.51814680834e+12", "human_length": "25", "nodes_expanded": "999", "instance": "prb58853", "end_time": "1.51814683781e+12", "optimal_length": "16", "subject": "A1HFNOKU591WCY"}
{"rt": "0.0", "trial_number": "0", "skipped": "False", "complete": "False", "assignment": "3RUIQRXJBCWS71H9MUFVM5WQ3SCLLJ", "start_time": "1.51815785454e+12", "human_length": "1", "nodes_expanded": "999", "instance": "prb58853", "end_time": "1.51815785454e+12", "optimal_length": "16", "subject": "A1SJRFJWFXSDH4"}
{"rt": "0.0", "trial_number": "1", "skipped": "False", "complete": "False", "assignment": "3RUIQRXJBCWS71H9MUFVM5WQ3SCLLJ", "start_time": "1.51815785469e+12", "human_length": "1", "nodes_expanded": "999", "instance": "prb58853", "end_time": "1.51815785469e+12", "optimal_length": "16", "subject": "A1SJRFJWFXSDH4"}
{"rt": "0.0", "trial_number": "2", "skipped": "False", "complete": "False", "assignment": "3RUIQRXJBCWS71H9MUFVM5WQ3SCLLJ", "start_time": "1.5181578548e+12", "human_length": "1", "nodes_expanded": "999", "instance": "prb58853", "end_time": "1.5181578548e+12", "optimal_length": "16", "subject": "A1SJRFJWFXSDH4"}
{"rt": "0.0", "trial_number": "3", "skipped": "False", "complete": "False", "assignment": "3RUIQRXJBCWS71H9MUFVM5WQ3SCLLJ", "start_time": "1.51815785495e+12", "human_length": "1", "nodes_expanded": "999", "instance": "prb58853", "end_time": "1.51815785495e+12", "optimal_length": "16", "subject": "A1SJRFJWFXSDH4"}
{"rt": "58543.0", "trial_number": "4", "skipped": "False", "complete": "True", "assignment": "3RUIQRXJBCWS71H9MUFVM5WQ3SCLLJ", "start_time": "1.5181578563e+12", "human_length": "30", "nodes_expanded": "999", "instance": "prb58853", "end_time": "1.51815791484e+12", "optimal_length": "16", "subject": "A1SJRFJWFXSDH4"}
{"rt": "39744.0", "trial_number": "0", "skipped": "True", "complete": "False", "assignment": "3M0BCWMB8W4W5M7WZVX3HDH1P53WB1", "start_time": "1.5181608527e+12", "human_length": "26", "nodes_expanded": "999", "instance": "prb58853", "end_time": "1.51816089245e+12", "optimal_length": "16", "subject": "A53S7J4JGWG38"}
{"rt": "25682.0", "trial_number": "0", "skipped": "False", "complete": "True", "assignment": "3IXEICO793RY7TM78ZBKJDOA7ADT6Q", "start_time": "1.51816765709e+12", "human_length": "25", "nodes_expanded": "999", "instance": "prb58853", "end_time": "1.51816768277e+12", "optimal_length": "16", "subject": "ALH1K6ZAQQMN7"}
