{"rt": "61368.0", "trial_number": "0", "skipped": "False", "complete": "True", "assignment": "3PMBY0YE28B43VMUKKJ6EDF85RV9C8", "start_time": "1.51638655311e+12", "human_length": "35", "nodes_expanded": "999", "instance": "prb57223", "end_time": "1.51638661448e+12", "optimal_length": "16", "subject": "A191V7PT3DQKDP"}
{"rt": "42129.0", "trial_number": "0", "skipped": "False", "complete": "True", "assignment": "3VBEN272ML7ZPMYYVCFGLZ5DV7CGS0", "start_time": "1.51638767976e+12", "human_length": "35", "nodes_expanded": "999", "instance": "prb57223", "end_time": "1.51638772189e+12", "optimal_length": "16", "subject": "A3VZJ2T28HAQ2A"}
{"rt": "263571.0", "trial_number": "0", "skipped": "False", "complete": "True", "assignment": "3TYCR1GOTDRCCQYD1V64UK7OE48LZS", "start_time": "1.51638988666e+12", "human_length": "112", "nodes_expanded": "999", "instance": "prb57223", "end_time": "1.51639015023e+12", "optimal_length": "16", "subject": "A2MYB6MLQW0IGN"}
{"rt": "26430.0", "trial_number": "0", "skipped": "False", "complete": "False", "assignment": "34BBWHLWHBJ6SUL255PK30LEGY5IWG", "start_time": "1.51639187827e+12", "human_length": "25", "nodes_expanded": "999", "instance": "prb57223", "end_time": "1.5163919047e+12", "optimal_length": "16", "subject": "A214HWAW1PYWO8"}
{"rt": "0.0", "trial_number": "1", "skipped": "False", "complete": "False", "assignment": "34BBWHLWHBJ6SUL255PK30LEGY5IWG", "start_time": "1.51639190626e+12", "human_length": "1", "nodes_expanded": "999", "instance": "prb57223", "end_time": "1.51639190626e+12", "optimal_length": "16", "subject": "A214HWAW1PYWO8"}
{"rt": "124128.0", "trial_number": "2", "skipped": "False", "complete": "True", "assignment": "34BBWHLWHBJ6SUL255PK30LEGY5IWG", "start_time": "1.51639191339e+12", "human_length": "19", "nodes_expanded": "999", "instance": "prb57223", "end_time": "1.51639203752e+12", "optimal_length": "16", "subject": "A214HWAW1PYWO8"}
{"rt": "0.0", "trial_number": "0", "skipped": "False", "complete": "False", "assignment": "3VE8AYVF8N5BS2NU6U3TMN50JMNF8V", "start_time": "1.51673714024e+12", "human_length": "1", "nodes_expanded": "999", "instance": "prb57223", "end_time": "1.51673714024e+12", "optimal_length": "16", "subject": "A18QU0YQB6Q8DF"}
{"rt": "0.0", "trial_number": "1", "skipped": "False", "complete": "False", "assignment": "3VE8AYVF8N5BS2NU6U3TMN50JMNF8V", "start_time": "1.51673714024e+12", "human_length": "1", "nodes_expanded": "999", "instance": "prb57223", "end_time": "1.51673714024e+12", "optimal_length": "16", "subject": "A18QU0YQB6Q8DF"}
{"rt": "50659.0", "trial_number": "2", "skipped": "False", "complete": "True", "assignment": "3VE8AYVF8N5BS2NU6U3TMN50JMNF8V", "start_time": "1.51673714024e+12", "human_length": "20", "nodes_expanded": "999", "instance": "prb57223", "end_time": "1.5167371909e+12", "optimal_length": "16", "subject": "A18QU0YQB6Q8DF"}
{"rt": "0.0", "trial_number": "0", "skipped": "False", "complete": "False", "assignment": "3X87C8JFV7JQ2BSCY8KSFD9F2ILSQK", "start_time": "1.51674106237e+12", "human_length": "1", "nodes_expanded": "999", "instance": "prb57223", "end_time": "1.51674106237e+12", "optimal_length": "16", "subject": "A3Q0XAGQ7TD7MP"}
{"rt": "0.0", "trial_number": "1", "skipped": "False", "complete": "False", "assignment": "3X87C8JFV7JQ2BSCY8KSFD9F2ILSQK", "start_time": "1.51674106237e+12", "human_length": "1", "nodes_expanded": "999", "instance": "prb57223", "end_time": "1.51674106237e+12", "optimal_length": "16", "subject": "A3Q0XAGQ7TD7MP"}
{"rt": "25823.0", "trial_number": "2", "skipped": "False", "complete": "False", "assignment": "3X87C8JFV7JQ2BSCY8KSFD9F2ILSQK", "start_time": "1.51674106237e+12", "human_length": "26", "nodes_expanded": "999", "instance": "prb57223", "end_time": "1.51674108819e+12", "optimal_length": "16", "subject": "A3Q0XAGQ7TD7MP"}
{"rt": "107783.0", "trial_number": "3", "skipped": "False", "complete": "True", "assignment": "3GLB5JMZFY3TNXFGYMKRQ0JDXNTDGZ", "start_time": "1.51794637582e+12", "human_length": "46", "nodes_expanded": "999", "instance": "prb57223", "end_time": "1.5179464836e+12", "optimal_length": "16", "subject": "A3Q0XAGQ7TD7MP"}
{"rt": "0.0", "trial_number": "0", "skipped": "False", "complete": "False", "assignment": "3WSELTNVR4AZUVYAYCSWZIQW0J4ATB", "start_time": "1.5167403412e+12", "human_length": "1", "nodes_expanded": "999", "instance": "prb57223", "end_time": "1.5167403412e+12", "optimal_length": "16", "subject": "A2TQNX64349OZ9"}
{"rt": "0.0", "trial_number": "1", "skipped": "False", "complete": "False", "assignment": "3WSELTNVR4AZUVYAYCSWZIQW0J4ATB", "start_time": "1.5167403412e+12", "human_length": "1", "nodes_expanded": "999", "instance": "prb57223", "end_time": "1.5167403412e+12", "optimal_length": "16", "subject": "A2TQNX64349OZ9"}
{"rt": "13052.0", "trial_number": "2", "skipped": "True", "complete": "False", "assignment": "3WSELTNVR4AZUVYAYCSWZIQW0J4ATB", "start_time": "1.5167403412e+12", "human_length": "24", "nodes_expanded": "999", "instance": "prb57223", "end_time": "1.51674035425e+12", "optimal_length": "16", "subject": "A2TQNX64349OZ9"}
{"rt": "0.0", "trial_number": "0", "skipped": "False", "complete": "False", "assignment": "3X87C8JFV7JQ2BSCY8KSFD9F2ILSQK", "start_time": "1.51674740757e+12", "human_length": "1", "nodes_expanded": "999", "instance": "prb57223", "end_time": "1.51674740757e+12", "optimal_length": "16", "subject": "A21S7MA9DCW95E"}
{"rt": "0.0", "trial_number": "1", "skipped": "False", "complete": "False", "assignment": "3X87C8JFV7JQ2BSCY8KSFD9F2ILSQK", "start_time": "1.51674740757e+12", "human_length": "1", "nodes_expanded": "999", "instance": "prb57223", "end_time": "1.51674740757e+12", "optimal_length": "16", "subject": "A21S7MA9DCW95E"}
{"rt": "51750.0", "trial_number": "2", "skipped": "False", "complete": "True", "assignment": "3X87C8JFV7JQ2BSCY8KSFD9F2ILSQK", "start_time": "1.51674740757e+12", "human_length": "35", "nodes_expanded": "999", "instance": "prb57223", "end_time": "1.51674745932e+12", "optimal_length": "16", "subject": "A21S7MA9DCW95E"}
{"rt": "45419.0", "trial_number": "0", "skipped": "False", "complete": "False", "assignment": "3IJXV6UZ1YR1KY4G6BFEG1DXP7SRI1", "start_time": "1.51675046560e+12", "human_length": "21", "nodes_expanded": "999", "instance": "prb57223", "end_time": "1.51675051102e+12", "optimal_length": "16", "subject": "A2RTJ6BDY0DZVZ"}
{"rt": "25337.0", "trial_number": "1", "skipped": "False", "complete": "False", "assignment": "3IJXV6UZ1YR1KY4G6BFEG1DXP7SRI1", "start_time": "1.51675051454e+12", "human_length": "12", "nodes_expanded": "999", "instance": "prb57223", "end_time": "1.51675053988e+12", "optimal_length": "16", "subject": "A2RTJ6BDY0DZVZ"}
{"rt": "0.0", "trial_number": "2", "skipped": "False", "complete": "False", "assignment": "3IJXV6UZ1YR1KY4G6BFEG1DXP7SRI1", "start_time": "1.5167505457e+12", "human_length": "1", "nodes_expanded": "999", "instance": "prb57223", "end_time": "1.5167505457e+12", "optimal_length": "16", "subject": "A2RTJ6BDY0DZVZ"}
{"rt": "0.0", "trial_number": "3", "skipped": "False", "complete": "False", "assignment": "3IJXV6UZ1YR1KY4G6BFEG1DXP7SRI1", "start_time": "1.51675046560e+12", "human_length": "1", "nodes_expanded": "999", "instance": "prb57223", "end_time": "1.51675046560e+12", "optimal_length": "16", "subject": "A2RTJ6BDY0DZVZ"}
{"rt": "0.0", "trial_number": "4", "skipped": "False", "complete": "False", "assignment": "3IJXV6UZ1YR1KY4G6BFEG1DXP7SRI1", "start_time": "1.51675051454e+12", "human_length": "1", "nodes_expanded": "999", "instance": "prb57223", "end_time": "1.51675051454e+12", "optimal_length": "16", "subject": "A2RTJ6BDY0DZVZ"}
{"rt": "0.0", "trial_number": "5", "skipped": "False", "complete": "False", "assignment": "3IJXV6UZ1YR1KY4G6BFEG1DXP7SRI1", "start_time": "1.5167505457e+12", "human_length": "1", "nodes_expanded": "999", "instance": "prb57223", "end_time": "1.5167505457e+12", "optimal_length": "16", "subject": "A2RTJ6BDY0DZVZ"}
{"rt": "0.0", "trial_number": "6", "skipped": "False", "complete": "False", "assignment": "3IJXV6UZ1YR1KY4G6BFEG1DXP7SRI1", "start_time": "1.51675046560e+12", "human_length": "1", "nodes_expanded": "999", "instance": "prb57223", "end_time": "1.51675046560e+12", "optimal_length": "16", "subject": "A2RTJ6BDY0DZVZ"}
{"rt": "0.0", "trial_number": "7", "skipped": "False", "complete": "False", "assignment": "3IJXV6UZ1YR1KY4G6BFEG1DXP7SRI1", "start_time": "1.51675051454e+12", "human_length": "1", "nodes_expanded": "999", "instance": "prb57223", "end_time": "1.51675051454e+12", "optimal_length": "16", "subject": "A2RTJ6BDY0DZVZ"}
{"rt": "34725.0", "trial_number": "8", "skipped": "False", "complete": "True", "assignment": "3IJXV6UZ1YR1KY4G6BFEG1DXP7SRI1", "start_time": "1.5167505457e+12", "human_length": "24", "nodes_expanded": "999", "instance": "prb57223", "end_time": "1.51675058042e+12", "optimal_length": "16", "subject": "A2RTJ6BDY0DZVZ"}
{"rt": "95000.0", "trial_number": "0", "skipped": "False", "complete": "True", "assignment": "3V5Q80FXIYZ5QB5C6ITQBN30WY823U", "start_time": "1.51753325228e+12", "human_length": "53", "nodes_expanded": "999", "instance": "prb57223", "end_time": "1.51753334728e+12", "optimal_length": "16", "subject": "A3NMQ3019X6YE0"}
{"rt": "0.0", "trial_number": "0", "skipped": "False", "complete": "False", "assignment": "3YW4XOSQKRTI0K0Z2YPDTDJVFABU1I", "start_time": "1.51682205471e+12", "human_length": "1", "nodes_expanded": "999", "instance": "prb57223", "end_time": "1.51682205471e+12", "optimal_length": "16", "subject": "A15781PHGW377Y"}
{"rt": "114948.0", "trial_number": "1", "skipped": "False", "complete": "True", "assignment": "3YW4XOSQKRTI0K0Z2YPDTDJVFABU1I", "start_time": "1.51682205471e+12", "human_length": "34", "nodes_expanded": "999", "instance": "prb57223", "end_time": "1.51682216965e+12", "optimal_length": "16", "subject": "A15781PHGW377Y"}
{"rt": "0.0", "trial_number": "0", "skipped": "False", "complete": "False", "assignment": "3X4MXAO0BHWJLTOLVSJTHSM54OHWRG", "start_time": "1.5168234083e+12", "human_length": "1", "nodes_expanded": "999", "instance": "prb57223", "end_time": "1.5168234083e+12", "optimal_length": "16", "subject": "A2IBQA01NR5N76"}
{"rt": "29202.0", "trial_number": "1", "skipped": "False", "complete": "True", "assignment": "3X4MXAO0BHWJLTOLVSJTHSM54OHWRG", "start_time": "1.5168234083e+12", "human_length": "24", "nodes_expanded": "999", "instance": "prb57223", "end_time": "1.5168234375e+12", "optimal_length": "16", "subject": "A2IBQA01NR5N76"}
{"rt": "29202.0", "trial_number": "0", "skipped": "False", "complete": "True", "assignment": "3X4MXAO0BHWJLTOLVSJTHSM54OHWRG", "start_time": "1.5168234083e+12", "human_length": "24", "nodes_expanded": "999", "instance": "prb57223", "end_time": "1.5168234375e+12", "optimal_length": "16", "subject": "A2IBQA01NR5N76"}
{"rt": "0.0", "trial_number": "0", "skipped": "False", "complete": "False", "assignment": "3IHR8NYAM89M0EPM8U9LH53ZJDTP4U", "start_time": "1.51682506266e+12", "human_length": "1", "nodes_expanded": "999", "instance": "prb57223", "end_time": "1.51682506266e+12", "optimal_length": "16", "subject": "A23437BMZ5T1FH"}
{"rt": "41159.0", "trial_number": "1", "skipped": "False", "complete": "True", "assignment": "3IHR8NYAM89M0EPM8U9LH53ZJDTP4U", "start_time": "1.51682506266e+12", "human_length": "36", "nodes_expanded": "999", "instance": "prb57223", "end_time": "1.51682510382e+12", "optimal_length": "16", "subject": "A23437BMZ5T1FH"}
{"rt": "0.0", "trial_number": "0", "skipped": "False", "complete": "False", "assignment": "3YW4XOSQKRTI0K0Z2YPDTDJVFABU1I", "start_time": "1.51683035785e+12", "human_length": "1", "nodes_expanded": "999", "instance": "prb57223", "end_time": "1.51683035785e+12", "optimal_length": "16", "subject": "A1LR0VQIHQUJAM"}
{"rt": "78078.0", "trial_number": "1", "skipped": "False", "complete": "True", "assignment": "3YW4XOSQKRTI0K0Z2YPDTDJVFABU1I", "start_time": "1.51683035785e+12", "human_length": "46", "nodes_expanded": "999", "instance": "prb57223", "end_time": "1.51683043593e+12", "optimal_length": "16", "subject": "A1LR0VQIHQUJAM"}
{"rt": "50659.0", "trial_number": "0", "skipped": "False", "complete": "True", "assignment": "3VE8AYVF8N5BS2NU6U3TMN50JMNF8V", "start_time": "1.51673714024e+12", "human_length": "20", "nodes_expanded": "999", "instance": "prb57223", "end_time": "1.5167371909e+12", "optimal_length": "16", "subject": "A18QU0YQB6Q8DF"}
{"rt": "25823.0", "trial_number": "0", "skipped": "False", "complete": "False", "assignment": "3X87C8JFV7JQ2BSCY8KSFD9F2ILSQK", "start_time": "1.51674106237e+12", "human_length": "12", "nodes_expanded": "999", "instance": "prb57223", "end_time": "1.51674108819e+12", "optimal_length": "16", "subject": "A3Q0XAGQ7TD7MP"}
{"rt": "107783.0", "trial_number": "1", "skipped": "False", "complete": "True", "assignment": "3GLB5JMZFY3TNXFGYMKRQ0JDXNTDGZ", "start_time": "1.51794637582e+12", "human_length": "46", "nodes_expanded": "999", "instance": "prb57223", "end_time": "1.5179464836e+12", "optimal_length": "16", "subject": "A3Q0XAGQ7TD7MP"}
{"rt": "13052.0", "trial_number": "0", "skipped": "True", "complete": "False", "assignment": "3WSELTNVR4AZUVYAYCSWZIQW0J4ATB", "start_time": "1.5167403412e+12", "human_length": "8", "nodes_expanded": "999", "instance": "prb57223", "end_time": "1.51674035425e+12", "optimal_length": "16", "subject": "A2TQNX64349OZ9"}
{"rt": "51750.0", "trial_number": "0", "skipped": "False", "complete": "True", "assignment": "3X87C8JFV7JQ2BSCY8KSFD9F2ILSQK", "start_time": "1.51674740757e+12", "human_length": "35", "nodes_expanded": "999", "instance": "prb57223", "end_time": "1.51674745932e+12", "optimal_length": "16", "subject": "A21S7MA9DCW95E"}
{"rt": "45419.0", "trial_number": "0", "skipped": "False", "complete": "False", "assignment": "3IJXV6UZ1YR1KY4G6BFEG1DXP7SRI1", "start_time": "1.51675046560e+12", "human_length": "21", "nodes_expanded": "999", "instance": "prb57223", "end_time": "1.51675051102e+12", "optimal_length": "16", "subject": "A2RTJ6BDY0DZVZ"}
{"rt": "25337.0", "trial_number": "1", "skipped": "False", "complete": "False", "assignment": "3IJXV6UZ1YR1KY4G6BFEG1DXP7SRI1", "start_time": "1.51675051454e+12", "human_length": "12", "nodes_expanded": "999", "instance": "prb57223", "end_time": "1.51675053988e+12", "optimal_length": "16", "subject": "A2RTJ6BDY0DZVZ"}
{"rt": "34725.0", "trial_number": "2", "skipped": "False", "complete": "True", "assignment": "3IJXV6UZ1YR1KY4G6BFEG1DXP7SRI1", "start_time": "1.5167505457e+12", "human_length": "24", "nodes_expanded": "999", "instance": "prb57223", "end_time": "1.51675058042e+12", "optimal_length": "16", "subject": "A2RTJ6BDY0DZVZ"}
{"rt": "95000.0", "trial_number": "0", "skipped": "False", "complete": "True", "assignment": "3V5Q80FXIYZ5QB5C6ITQBN30WY823U", "start_time": "1.51753325228e+12", "human_length": "53", "nodes_expanded": "999", "instance": "prb57223", "end_time": "1.51753334728e+12", "optimal_length": "16", "subject": "A3NMQ3019X6YE0"}
{"rt": "114948.0", "trial_number": "0", "skipped": "False", "complete": "True", "assignment": "3YW4XOSQKRTI0K0Z2YPDTDJVFABU1I", "start_time": "1.51682205471e+12", "human_length": "34", "nodes_expanded": "999", "instance": "prb57223", "end_time": "1.51682216965e+12", "optimal_length": "16", "subject": "A15781PHGW377Y"}
{"rt": "33420.0", "trial_number": "0", "skipped": "False", "complete": "True", "assignment": "3TS1AR6UQRM7SOIBWPBN8N9589Y7FV", "start_time": "1.51683872525e+12", "human_length": "27", "nodes_expanded": "999", "instance": "prb57223", "end_time": "1.51683875867e+12", "optimal_length": "16", "subject": "A1F4N58CAX8IMK"}
{"rt": "47989.0", "trial_number": "1", "skipped": "False", "complete": "True", "assignment": "35DR22AR5ES6RR89U7EJ1DXW91AX3P", "start_time": "1.51795381284e+12", "human_length": "48", "nodes_expanded": "999", "instance": "prb57223", "end_time": "1.51795386083e+12", "optimal_length": "16", "subject": "A1F4N58CAX8IMK"}
{"rt": "48256.0", "trial_number": "0", "skipped": "True", "complete": "False", "assignment": "31LM9EDVOM0C0BWUVMJXJINN3QPJNI", "start_time": "1.51752429275e+12", "human_length": "9", "nodes_expanded": "999", "instance": "prb57223", "end_time": "1.51752434101e+12", "optimal_length": "16", "subject": "A1NT8BT94ME6F5"}
{"rt": "72493.0", "trial_number": "0", "skipped": "False", "complete": "True", "assignment": "37TD41K0AIHM8AITTQJXV8KY05QCSB", "start_time": "1.51752374728e+12", "human_length": "31", "nodes_expanded": "999", "instance": "prb57223", "end_time": "1.51752381977e+12", "optimal_length": "16", "subject": "A30KYQGABO7JER"}
{"rt": "22591.0", "trial_number": "0", "skipped": "False", "complete": "False", "assignment": "36H9ULYP6320CJJDXY0KBDEE1Z3JFB", "start_time": "1.51753228159e+12", "human_length": "12", "nodes_expanded": "999", "instance": "prb57223", "end_time": "1.51753230418e+12", "optimal_length": "16", "subject": "AN098C29EGJ6"}
{"rt": "50341.0", "trial_number": "1", "skipped": "False", "complete": "False", "assignment": "36H9ULYP6320CJJDXY0KBDEE1Z3JFB", "start_time": "1.51753231065e+12", "human_length": "19", "nodes_expanded": "999", "instance": "prb57223", "end_time": "1.51753236099e+12", "optimal_length": "16", "subject": "AN098C29EGJ6"}
{"rt": "49973.0", "trial_number": "2", "skipped": "True", "complete": "False", "assignment": "36H9ULYP6320CJJDXY0KBDEE1Z3JFB", "start_time": "1.51753236762e+12", "human_length": "21", "nodes_expanded": "999", "instance": "prb57223", "end_time": "1.5175324176e+12", "optimal_length": "16", "subject": "AN098C29EGJ6"}
{"rt": "21418.0", "trial_number": "0", "skipped": "False", "complete": "True", "assignment": "3TYCR1GOTDRCCQYD1V64UK7OHTBZLQ", "start_time": "1.51753744522e+12", "human_length": "22", "nodes_expanded": "999", "instance": "prb57223", "end_time": "1.51753746664e+12", "optimal_length": "16", "subject": "A13BZCNJ0WR1T7"}
{"rt": "39686.0", "trial_number": "0", "skipped": "False", "complete": "False", "assignment": "34HJIJKLP64Z5YMIU6IKNXSH7PDV4I", "start_time": "1.51794149255e+12", "human_length": "17", "nodes_expanded": "999", "instance": "prb57223", "end_time": "1.51794153224e+12", "optimal_length": "16", "subject": "A3CTXNQ2GXIQSP"}
{"rt": "147970.0", "trial_number": "1", "skipped": "False", "complete": "True", "assignment": "34HJIJKLP64Z5YMIU6IKNXSH7PDV4I", "start_time": "1.51794153845e+12", "human_length": "66", "nodes_expanded": "999", "instance": "prb57223", "end_time": "1.51794168642e+12", "optimal_length": "16", "subject": "A3CTXNQ2GXIQSP"}
{"rt": "149677.0", "trial_number": "0", "skipped": "True", "complete": "False", "assignment": "3U84XHCDIDLGEIRSV37N835DV0K4ZS", "start_time": "1.51794103016e+12", "human_length": "67", "nodes_expanded": "999", "instance": "prb57223", "end_time": "1.51794117983e+12", "optimal_length": "16", "subject": "A8KX1HFH8NE2Q"}
{"rt": "47452.0", "trial_number": "0", "skipped": "False", "complete": "True", "assignment": "3TXD01ZLD5PZSJXIPG8FRBQYTI9U4X", "start_time": "1.51794514557e+12", "human_length": "24", "nodes_expanded": "999", "instance": "prb57223", "end_time": "1.51794519303e+12", "optimal_length": "16", "subject": "A3BPRPN10HJD4B"}
{"rt": "9661.0", "trial_number": "0", "skipped": "False", "complete": "False", "assignment": "3STRJBFXOXZ5687WA35LTWTS7QZKTT", "start_time": "1.5179457365e+12", "human_length": "4", "nodes_expanded": "999", "instance": "prb57223", "end_time": "1.51794574616e+12", "optimal_length": "16", "subject": "A3OB6REG5CGHK1"}
{"rt": "27787.0", "trial_number": "1", "skipped": "False", "complete": "True", "assignment": "3STRJBFXOXZ5687WA35LTWTS7QZKTT", "start_time": "1.51794574745e+12", "human_length": "23", "nodes_expanded": "999", "instance": "prb57223", "end_time": "1.51794577524e+12", "optimal_length": "16", "subject": "A3OB6REG5CGHK1"}
{"rt": "119222.0", "trial_number": "0", "skipped": "False", "complete": "True", "assignment": "3JCG6DTRV4YEPVDZ64VNKDUEMPGQQ1", "start_time": "1.51794606427e+12", "human_length": "50", "nodes_expanded": "999", "instance": "prb57223", "end_time": "1.51794618349e+12", "optimal_length": "16", "subject": "A2V7KYLBCBTI3B"}
{"rt": "36243.0", "trial_number": "0", "skipped": "False", "complete": "False", "assignment": "33PPO7FECWN7JOLBOAKUBCWTC0AIDL", "start_time": "1.51795013454e+12", "human_length": "13", "nodes_expanded": "999", "instance": "prb57223", "end_time": "1.51795017078e+12", "optimal_length": "16", "subject": "AXKM02NVXNGOM"}
{"rt": "45721.0", "trial_number": "1", "skipped": "True", "complete": "False", "assignment": "33PPO7FECWN7JOLBOAKUBCWTC0AIDL", "start_time": "1.51795017997e+12", "human_length": "19", "nodes_expanded": "999", "instance": "prb57223", "end_time": "1.51795022569e+12", "optimal_length": "16", "subject": "AXKM02NVXNGOM"}
{"rt": "48537.0", "trial_number": "0", "skipped": "False", "complete": "True", "assignment": "3PB5A5BD0WED6OE679H5Q89HBDGG71", "start_time": "1.51795261005e+12", "human_length": "34", "nodes_expanded": "999", "instance": "prb57223", "end_time": "1.51795265858e+12", "optimal_length": "16", "subject": "A1USR9JCAMDGM3"}
{"rt": "71317.0", "trial_number": "0", "skipped": "True", "complete": "False", "assignment": "33F859I567LE8WC74WB3GA7E94XBHW", "start_time": "1.51797035818e+12", "human_length": "37", "nodes_expanded": "999", "instance": "prb57223", "end_time": "1.5179704295e+12", "optimal_length": "16", "subject": "A1GQS6USF2JEYG"}
{"rt": "19432.0", "trial_number": "0", "skipped": "False", "complete": "True", "assignment": "3IJXV6UZ1YR1KY4G6BFEG1DXR47RIC", "start_time": "1.51797446749e+12", "human_length": "23", "nodes_expanded": "999", "instance": "prb57223", "end_time": "1.51797448692e+12", "optimal_length": "16", "subject": "A18T3WK7J16C1B"}
{"rt": "51002.0", "trial_number": "0", "skipped": "False", "complete": "False", "assignment": "3FTF2T8WLSQDHTSZ1BJ7Q7MB14SW9H", "start_time": "1.51813561474e+12", "human_length": "24", "nodes_expanded": "999", "instance": "prb57223", "end_time": "1.51813566574e+12", "optimal_length": "16", "subject": "A1IUH9D7N69VS"}
{"rt": "70052.0", "trial_number": "1", "skipped": "False", "complete": "True", "assignment": "3FTF2T8WLSQDHTSZ1BJ7Q7MB14SW9H", "start_time": "1.51813566657e+12", "human_length": "50", "nodes_expanded": "999", "instance": "prb57223", "end_time": "1.51813573663e+12", "optimal_length": "16", "subject": "A1IUH9D7N69VS"}
{"rt": "19942.0", "trial_number": "0", "skipped": "True", "complete": "False", "assignment": "3TAYZSBPLMG9ASQRWXURJVBCPLN2SH", "start_time": "1.51813744178e+12", "human_length": "8", "nodes_expanded": "999", "instance": "prb57223", "end_time": "1.51813746172e+12", "optimal_length": "16", "subject": "A2RCYLKY072XXO"}
{"rt": "65006.0", "trial_number": "0", "skipped": "False", "complete": "True", "assignment": "3ZSANO2JCGFTBM23KS9Y3E51YP4FSQ", "start_time": "1.51814230259e+12", "human_length": "24", "nodes_expanded": "999", "instance": "prb57223", "end_time": "1.5181423676e+12", "optimal_length": "16", "subject": "A1F42D4L22K5ND"}
{"rt": "304209.0", "trial_number": "0", "skipped": "False", "complete": "True", "assignment": "3HWRJOOET6A15827PHPSLWK1MOYSEU", "start_time": "1.51814622466e+12", "human_length": "221", "nodes_expanded": "999", "instance": "prb57223", "end_time": "1.51814652887e+12", "optimal_length": "16", "subject": "AO1QGAUZ85T6L"}
{"rt": "76787.0", "trial_number": "0", "skipped": "True", "complete": "False", "assignment": "3XLBSAQ9Z5KDX59BX15UBFPNNHYZ7Q", "start_time": "1.51814550702e+12", "human_length": "56", "nodes_expanded": "999", "instance": "prb57223", "end_time": "1.5181455838e+12", "optimal_length": "16", "subject": "A1HFNOKU591WCY"}
{"rt": "24303.0", "trial_number": "0", "skipped": "False", "complete": "False", "assignment": "37QW5D2ZRHUKW7SGCE3STMOFBMK8SX", "start_time": "1.51815656579e+12", "human_length": "13", "nodes_expanded": "999", "instance": "prb57223", "end_time": "1.51815659009e+12", "optimal_length": "16", "subject": "AMW2XLD9443OH"}
{"rt": "3798.0", "trial_number": "1", "skipped": "False", "complete": "False", "assignment": "37QW5D2ZRHUKW7SGCE3STMOFBMK8SX", "start_time": "1.51815659244e+12", "human_length": "4", "nodes_expanded": "999", "instance": "prb57223", "end_time": "1.51815659624e+12", "optimal_length": "16", "subject": "AMW2XLD9443OH"}
{"rt": "47055.0", "trial_number": "2", "skipped": "False", "complete": "True", "assignment": "37QW5D2ZRHUKW7SGCE3STMOFBMK8SX", "start_time": "1.5181566003e+12", "human_length": "34", "nodes_expanded": "999", "instance": "prb57223", "end_time": "1.51815664736e+12", "optimal_length": "16", "subject": "AMW2XLD9443OH"}
{"rt": "31098.0", "trial_number": "0", "skipped": "True", "complete": "False", "assignment": "3M0BCWMB8W4W5M7WZVX3HDH1P53WB1", "start_time": "1.51815994792e+12", "human_length": "15", "nodes_expanded": "999", "instance": "prb57223", "end_time": "1.51815997902e+12", "optimal_length": "16", "subject": "A53S7J4JGWG38"}
{"rt": "74986.0", "trial_number": "0", "skipped": "False", "complete": "False", "assignment": "3SITXWYCNWHBUMCM90TPJWV8Y7AXBW", "start_time": "1.51816571185e+12", "human_length": "13", "nodes_expanded": "999", "instance": "prb57223", "end_time": "1.51816578684e+12", "optimal_length": "16", "subject": "A28RX7L0QZ993M"}
{"rt": "6944.0", "trial_number": "1", "skipped": "False", "complete": "False", "assignment": "3SITXWYCNWHBUMCM90TPJWV8Y7AXBW", "start_time": "1.51816582688e+12", "human_length": "4", "nodes_expanded": "999", "instance": "prb57223", "end_time": "1.51816583382e+12", "optimal_length": "16", "subject": "A28RX7L0QZ993M"}
{"rt": "16216.0", "trial_number": "2", "skipped": "True", "complete": "False", "assignment": "3SITXWYCNWHBUMCM90TPJWV8Y7AXBW", "start_time": "1.51816584983e+12", "human_length": "5", "nodes_expanded": "999", "instance": "prb57223", "end_time": "1.51816586604e+12", "optimal_length": "16", "subject": "A28RX7L0QZ993M"}
{"rt": "60394.0", "trial_number": "0", "skipped": "False", "complete": "True", "assignment": "3IXEICO793RY7TM78ZBKJDOA7ADT6Q", "start_time": "1.51816811482e+12", "human_length": "42", "nodes_expanded": "999", "instance": "prb57223", "end_time": "1.51816817521e+12", "optimal_length": "16", "subject": "ALH1K6ZAQQMN7"}
