{"rt": "54271.0", "trial_number": "0", "skipped": "False", "complete": "True", "assignment": "3AZHRG4CU5SYU12YRVPCSZALW5003R", "start_time": "1.5163072169e+12", "human_length": "38", "nodes_expanded": "999", "instance": "prb54081", "end_time": "1.51630727117e+12", "optimal_length": "11", "subject": "ARWF605I7RWM7"}
{"rt": "11718.0", "trial_number": "0", "skipped": "False", "complete": "True", "assignment": "3PMBY0YE28B43VMUKKJ6EDF85RV9C8", "start_time": "1.51638705777e+12", "human_length": "13", "nodes_expanded": "999", "instance": "prb54081", "end_time": "1.51638706949e+12", "optimal_length": "11", "subject": "A191V7PT3DQKDP"}
{"rt": "28959.0", "trial_number": "0", "skipped": "False", "complete": "True", "assignment": "3TYCR1GOTDRCCQYD1V64UK7OE48LZS", "start_time": "1.51638928553e+12", "human_length": "15", "nodes_expanded": "999", "instance": "prb54081", "end_time": "1.51638931449e+12", "optimal_length": "11", "subject": "A2MYB6MLQW0IGN"}
{"rt": "12753.0", "trial_number": "0", "skipped": "False", "complete": "True", "assignment": "34BBWHLWHBJ6SUL255PK30LEGY5IWG", "start_time": "1.51639299450e+12", "human_length": "16", "nodes_expanded": "999", "instance": "prb54081", "end_time": "1.51639300726e+12", "optimal_length": "11", "subject": "A214HWAW1PYWO8"}
{"rt": "0.0", "trial_number": "0", "skipped": "False", "complete": "False", "assignment": "3VE8AYVF8N5BS2NU6U3TMN50JMNF8V", "start_time": "1.51673711248e+12", "human_length": "1", "nodes_expanded": "999", "instance": "prb54081", "end_time": "1.51673711248e+12", "optimal_length": "11", "subject": "A18QU0YQB6Q8DF"}
{"rt": "0.0", "trial_number": "1", "skipped": "False", "complete": "False", "assignment": "3VE8AYVF8N5BS2NU6U3TMN50JMNF8V", "start_time": "1.51673711248e+12", "human_length": "1", "nodes_expanded": "999", "instance": "prb54081", "end_time": "1.51673711248e+12", "optimal_length": "11", "subject": "A18QU0YQB6Q8DF"}
{"rt": "25491.0", "trial_number": "2", "skipped": "False", "complete": "True", "assignment": "3VE8AYVF8N5BS2NU6U3TMN50JMNF8V", "start_time": "1.51673711248e+12", "human_length": "12", "nodes_expanded": "999", "instance": "prb54081", "end_time": "1.51673713797e+12", "optimal_length": "11", "subject": "A18QU0YQB6Q8DF"}
{"rt": "0.0", "trial_number": "0", "skipped": "False", "complete": "False", "assignment": "3X87C8JFV7JQ2BSCY8KSFD9F2ILSQK", "start_time": "1.51673858670e+12", "human_length": "1", "nodes_expanded": "999", "instance": "prb54081", "end_time": "1.51673858670e+12", "optimal_length": "11", "subject": "A3Q0XAGQ7TD7MP"}
{"rt": "0.0", "trial_number": "1", "skipped": "False", "complete": "False", "assignment": "3X87C8JFV7JQ2BSCY8KSFD9F2ILSQK", "start_time": "1.51673858670e+12", "human_length": "1", "nodes_expanded": "999", "instance": "prb54081", "end_time": "1.51673858670e+12", "optimal_length": "11", "subject": "A3Q0XAGQ7TD7MP"}
{"rt": "33932.0", "trial_number": "2", "skipped": "False", "complete": "True", "assignment": "3X87C8JFV7JQ2BSCY8KSFD9F2ILSQK", "start_time": "1.51673858670e+12", "human_length": "21", "nodes_expanded": "999", "instance": "prb54081", "end_time": "1.51673862064e+12", "optimal_length": "11", "subject": "A3Q0XAGQ7TD7MP"}
{"rt": "44088.0", "trial_number": "3", "skipped": "False", "complete": "True", "assignment": "3GLB5JMZFY3TNXFGYMKRQ0JDXNTDGZ", "start_time": "1.51794753535e+12", "human_length": "23", "nodes_expanded": "999", "instance": "prb54081", "end_time": "1.51794757944e+12", "optimal_length": "11", "subject": "A3Q0XAGQ7TD7MP"}
{"rt": "23074.0", "trial_number": "0", "skipped": "False", "complete": "False", "assignment": "3WSELTNVR4AZUVYAYCSWZIQW0J4ATB", "start_time": "1.5167376983e+12", "human_length": "13", "nodes_expanded": "999", "instance": "prb54081", "end_time": "1.51673772137e+12", "optimal_length": "11", "subject": "A2TQNX64349OZ9"}
{"rt": "12121.0", "trial_number": "1", "skipped": "False", "complete": "False", "assignment": "3WSELTNVR4AZUVYAYCSWZIQW0J4ATB", "start_time": "1.51673772386e+12", "human_length": "6", "nodes_expanded": "999", "instance": "prb54081", "end_time": "1.51673773598e+12", "optimal_length": "11", "subject": "A2TQNX64349OZ9"}
{"rt": "0.0", "trial_number": "2", "skipped": "False", "complete": "False", "assignment": "3WSELTNVR4AZUVYAYCSWZIQW0J4ATB", "start_time": "1.51673773725e+12", "human_length": "1", "nodes_expanded": "999", "instance": "prb54081", "end_time": "1.51673773725e+12", "optimal_length": "11", "subject": "A2TQNX64349OZ9"}
{"rt": "0.0", "trial_number": "3", "skipped": "False", "complete": "False", "assignment": "3WSELTNVR4AZUVYAYCSWZIQW0J4ATB", "start_time": "1.5167376983e+12", "human_length": "1", "nodes_expanded": "999", "instance": "prb54081", "end_time": "1.5167376983e+12", "optimal_length": "11", "subject": "A2TQNX64349OZ9"}
{"rt": "0.0", "trial_number": "4", "skipped": "False", "complete": "False", "assignment": "3WSELTNVR4AZUVYAYCSWZIQW0J4ATB", "start_time": "1.51673772386e+12", "human_length": "1", "nodes_expanded": "999", "instance": "prb54081", "end_time": "1.51673772386e+12", "optimal_length": "11", "subject": "A2TQNX64349OZ9"}
{"rt": "0.0", "trial_number": "5", "skipped": "False", "complete": "False", "assignment": "3WSELTNVR4AZUVYAYCSWZIQW0J4ATB", "start_time": "1.51673773725e+12", "human_length": "1", "nodes_expanded": "999", "instance": "prb54081", "end_time": "1.51673773725e+12", "optimal_length": "11", "subject": "A2TQNX64349OZ9"}
{"rt": "0.0", "trial_number": "6", "skipped": "False", "complete": "False", "assignment": "3WSELTNVR4AZUVYAYCSWZIQW0J4ATB", "start_time": "1.5167376983e+12", "human_length": "1", "nodes_expanded": "999", "instance": "prb54081", "end_time": "1.5167376983e+12", "optimal_length": "11", "subject": "A2TQNX64349OZ9"}
{"rt": "0.0", "trial_number": "7", "skipped": "False", "complete": "False", "assignment": "3WSELTNVR4AZUVYAYCSWZIQW0J4ATB", "start_time": "1.51673772386e+12", "human_length": "1", "nodes_expanded": "999", "instance": "prb54081", "end_time": "1.51673772386e+12", "optimal_length": "11", "subject": "A2TQNX64349OZ9"}
{"rt": "16497.0", "trial_number": "8", "skipped": "False", "complete": "True", "assignment": "3WSELTNVR4AZUVYAYCSWZIQW0J4ATB", "start_time": "1.51673773725e+12", "human_length": "12", "nodes_expanded": "999", "instance": "prb54081", "end_time": "1.51673775374e+12", "optimal_length": "11", "subject": "A2TQNX64349OZ9"}
{"rt": "0.0", "trial_number": "0", "skipped": "False", "complete": "False", "assignment": "3X87C8JFV7JQ2BSCY8KSFD9F2ILSQK", "start_time": "1.51674848808e+12", "human_length": "1", "nodes_expanded": "999", "instance": "prb54081", "end_time": "1.51674848808e+12", "optimal_length": "11", "subject": "A21S7MA9DCW95E"}
{"rt": "0.0", "trial_number": "1", "skipped": "False", "complete": "False", "assignment": "3X87C8JFV7JQ2BSCY8KSFD9F2ILSQK", "start_time": "1.51674848812e+12", "human_length": "1", "nodes_expanded": "999", "instance": "prb54081", "end_time": "1.51674848812e+12", "optimal_length": "11", "subject": "A21S7MA9DCW95E"}
{"rt": "3312.0", "trial_number": "2", "skipped": "False", "complete": "False", "assignment": "3X87C8JFV7JQ2BSCY8KSFD9F2ILSQK", "start_time": "1.51674848815e+12", "human_length": "2", "nodes_expanded": "999", "instance": "prb54081", "end_time": "1.51674849146e+12", "optimal_length": "11", "subject": "A21S7MA9DCW95E"}
{"rt": "0.0", "trial_number": "3", "skipped": "False", "complete": "False", "assignment": "3X87C8JFV7JQ2BSCY8KSFD9F2ILSQK", "start_time": "1.51674849285e+12", "human_length": "1", "nodes_expanded": "999", "instance": "prb54081", "end_time": "1.51674849285e+12", "optimal_length": "11", "subject": "A21S7MA9DCW95E"}
{"rt": "0.0", "trial_number": "4", "skipped": "False", "complete": "False", "assignment": "3X87C8JFV7JQ2BSCY8KSFD9F2ILSQK", "start_time": "1.51674848808e+12", "human_length": "1", "nodes_expanded": "999", "instance": "prb54081", "end_time": "1.51674848808e+12", "optimal_length": "11", "subject": "A21S7MA9DCW95E"}
{"rt": "0.0", "trial_number": "5", "skipped": "False", "complete": "False", "assignment": "3X87C8JFV7JQ2BSCY8KSFD9F2ILSQK", "start_time": "1.51674848812e+12", "human_length": "1", "nodes_expanded": "999", "instance": "prb54081", "end_time": "1.51674848812e+12", "optimal_length": "11", "subject": "A21S7MA9DCW95E"}
{"rt": "0.0", "trial_number": "6", "skipped": "False", "complete": "False", "assignment": "3X87C8JFV7JQ2BSCY8KSFD9F2ILSQK", "start_time": "1.51674848815e+12", "human_length": "1", "nodes_expanded": "999", "instance": "prb54081", "end_time": "1.51674848815e+12", "optimal_length": "11", "subject": "A21S7MA9DCW95E"}
{"rt": "0.0", "trial_number": "7", "skipped": "False", "complete": "False", "assignment": "3X87C8JFV7JQ2BSCY8KSFD9F2ILSQK", "start_time": "1.51674849285e+12", "human_length": "1", "nodes_expanded": "999", "instance": "prb54081", "end_time": "1.51674849285e+12", "optimal_length": "11", "subject": "A21S7MA9DCW95E"}
{"rt": "0.0", "trial_number": "8", "skipped": "False", "complete": "False", "assignment": "3X87C8JFV7JQ2BSCY8KSFD9F2ILSQK", "start_time": "1.51674848808e+12", "human_length": "1", "nodes_expanded": "999", "instance": "prb54081", "end_time": "1.51674848808e+12", "optimal_length": "11", "subject": "A21S7MA9DCW95E"}
{"rt": "0.0", "trial_number": "9", "skipped": "False", "complete": "False", "assignment": "3X87C8JFV7JQ2BSCY8KSFD9F2ILSQK", "start_time": "1.51674848812e+12", "human_length": "1", "nodes_expanded": "999", "instance": "prb54081", "end_time": "1.51674848812e+12", "optimal_length": "11", "subject": "A21S7MA9DCW95E"}
{"rt": "0.0", "trial_number": "10", "skipped": "False", "complete": "False", "assignment": "3X87C8JFV7JQ2BSCY8KSFD9F2ILSQK", "start_time": "1.51674848815e+12", "human_length": "1", "nodes_expanded": "999", "instance": "prb54081", "end_time": "1.51674848815e+12", "optimal_length": "11", "subject": "A21S7MA9DCW95E"}
{"rt": "36496.0", "trial_number": "11", "skipped": "False", "complete": "True", "assignment": "3X87C8JFV7JQ2BSCY8KSFD9F2ILSQK", "start_time": "1.51674849285e+12", "human_length": "25", "nodes_expanded": "999", "instance": "prb54081", "end_time": "1.51674852934e+12", "optimal_length": "11", "subject": "A21S7MA9DCW95E"}
{"rt": "0.0", "trial_number": "0", "skipped": "False", "complete": "False", "assignment": "3IJXV6UZ1YR1KY4G6BFEG1DXP7SRI1", "start_time": "1.51674916841e+12", "human_length": "1", "nodes_expanded": "999", "instance": "prb54081", "end_time": "1.51674916841e+12", "optimal_length": "11", "subject": "A2RTJ6BDY0DZVZ"}
{"rt": "0.0", "trial_number": "1", "skipped": "False", "complete": "False", "assignment": "3IJXV6UZ1YR1KY4G6BFEG1DXP7SRI1", "start_time": "1.51674916841e+12", "human_length": "1", "nodes_expanded": "999", "instance": "prb54081", "end_time": "1.51674916841e+12", "optimal_length": "11", "subject": "A2RTJ6BDY0DZVZ"}
{"rt": "34920.0", "trial_number": "2", "skipped": "False", "complete": "True", "assignment": "3IJXV6UZ1YR1KY4G6BFEG1DXP7SRI1", "start_time": "1.51674916841e+12", "human_length": "17", "nodes_expanded": "999", "instance": "prb54081", "end_time": "1.51674920333e+12", "optimal_length": "11", "subject": "A2RTJ6BDY0DZVZ"}
{"rt": "0.0", "trial_number": "0", "skipped": "False", "complete": "False", "assignment": "3I2PTA7R3U2SESF4TZBQORI5LSJQKK", "start_time": "1.51675975687e+12", "human_length": "1", "nodes_expanded": "999", "instance": "prb54081", "end_time": "1.51675975687e+12", "optimal_length": "11", "subject": "A3NMQ3019X6YE0"}
{"rt": "0.0", "trial_number": "1", "skipped": "False", "complete": "False", "assignment": "3I2PTA7R3U2SESF4TZBQORI5LSJQKK", "start_time": "1.51675975687e+12", "human_length": "1", "nodes_expanded": "999", "instance": "prb54081", "end_time": "1.51675975687e+12", "optimal_length": "11", "subject": "A3NMQ3019X6YE0"}
{"rt": "51037.0", "trial_number": "2", "skipped": "False", "complete": "True", "assignment": "3I2PTA7R3U2SESF4TZBQORI5LSJQKK", "start_time": "1.51675975687e+12", "human_length": "24", "nodes_expanded": "999", "instance": "prb54081", "end_time": "1.5167598079e+12", "optimal_length": "11", "subject": "A3NMQ3019X6YE0"}
{"rt": "0.0", "trial_number": "0", "skipped": "False", "complete": "False", "assignment": "3X4MXAO0BHWJLTOLVSJTHSM54OHWRG", "start_time": "1.51682338552e+12", "human_length": "1", "nodes_expanded": "999", "instance": "prb54081", "end_time": "1.51682338552e+12", "optimal_length": "11", "subject": "A2IBQA01NR5N76"}
{"rt": "20144.0", "trial_number": "1", "skipped": "False", "complete": "True", "assignment": "3X4MXAO0BHWJLTOLVSJTHSM54OHWRG", "start_time": "1.51682338552e+12", "human_length": "15", "nodes_expanded": "999", "instance": "prb54081", "end_time": "1.51682340566e+12", "optimal_length": "11", "subject": "A2IBQA01NR5N76"}
{"rt": "20144.0", "trial_number": "0", "skipped": "False", "complete": "True", "assignment": "3X4MXAO0BHWJLTOLVSJTHSM54OHWRG", "start_time": "1.51682338552e+12", "human_length": "15", "nodes_expanded": "999", "instance": "prb54081", "end_time": "1.51682340566e+12", "optimal_length": "11", "subject": "A2IBQA01NR5N76"}
{"rt": "0.0", "trial_number": "0", "skipped": "False", "complete": "False", "assignment": "3IHR8NYAM89M0EPM8U9LH53ZJDTP4U", "start_time": "1.51682751832e+12", "human_length": "1", "nodes_expanded": "999", "instance": "prb54081", "end_time": "1.51682751832e+12", "optimal_length": "11", "subject": "A23437BMZ5T1FH"}
{"rt": "26493.0", "trial_number": "1", "skipped": "False", "complete": "True", "assignment": "3IHR8NYAM89M0EPM8U9LH53ZJDTP4U", "start_time": "1.51682751832e+12", "human_length": "20", "nodes_expanded": "999", "instance": "prb54081", "end_time": "1.51682754482e+12", "optimal_length": "11", "subject": "A23437BMZ5T1FH"}
{"rt": "0.0", "trial_number": "0", "skipped": "False", "complete": "False", "assignment": "37WLF8U1WQYZ4AWKEQXSIM1ELVEK6W", "start_time": "1.51683050615e+12", "human_length": "1", "nodes_expanded": "999", "instance": "prb54081", "end_time": "1.51683050615e+12", "optimal_length": "11", "subject": "A2EPBSY0VPI38S"}
{"rt": "129574.0", "trial_number": "1", "skipped": "False", "complete": "True", "assignment": "37WLF8U1WQYZ4AWKEQXSIM1ELVEK6W", "start_time": "1.51683050615e+12", "human_length": "64", "nodes_expanded": "999", "instance": "prb54081", "end_time": "1.51683063572e+12", "optimal_length": "11", "subject": "A2EPBSY0VPI38S"}
{"rt": "32508.0", "trial_number": "0", "skipped": "False", "complete": "False", "assignment": "3YW4XOSQKRTI0K0Z2YPDTDJVFABU1I", "start_time": "1.51683348615e+12", "human_length": "19", "nodes_expanded": "999", "instance": "prb54081", "end_time": "1.51683351866e+12", "optimal_length": "11", "subject": "A1LR0VQIHQUJAM"}
{"rt": "18557.0", "trial_number": "1", "skipped": "False", "complete": "True", "assignment": "3YW4XOSQKRTI0K0Z2YPDTDJVFABU1I", "start_time": "1.51683353765e+12", "human_length": "13", "nodes_expanded": "999", "instance": "prb54081", "end_time": "1.5168335562e+12", "optimal_length": "11", "subject": "A1LR0VQIHQUJAM"}
{"rt": "25491.0", "trial_number": "0", "skipped": "False", "complete": "True", "assignment": "3VE8AYVF8N5BS2NU6U3TMN50JMNF8V", "start_time": "1.51673711248e+12", "human_length": "12", "nodes_expanded": "999", "instance": "prb54081", "end_time": "1.51673713797e+12", "optimal_length": "11", "subject": "A18QU0YQB6Q8DF"}
{"rt": "33932.0", "trial_number": "0", "skipped": "False", "complete": "True", "assignment": "3X87C8JFV7JQ2BSCY8KSFD9F2ILSQK", "start_time": "1.51673858670e+12", "human_length": "21", "nodes_expanded": "999", "instance": "prb54081", "end_time": "1.51673862064e+12", "optimal_length": "11", "subject": "A3Q0XAGQ7TD7MP"}
{"rt": "44088.0", "trial_number": "1", "skipped": "False", "complete": "True", "assignment": "3GLB5JMZFY3TNXFGYMKRQ0JDXNTDGZ", "start_time": "1.51794753535e+12", "human_length": "23", "nodes_expanded": "999", "instance": "prb54081", "end_time": "1.51794757944e+12", "optimal_length": "11", "subject": "A3Q0XAGQ7TD7MP"}
{"rt": "23074.0", "trial_number": "0", "skipped": "False", "complete": "False", "assignment": "3WSELTNVR4AZUVYAYCSWZIQW0J4ATB", "start_time": "1.5167376983e+12", "human_length": "13", "nodes_expanded": "999", "instance": "prb54081", "end_time": "1.51673772137e+12", "optimal_length": "11", "subject": "A2TQNX64349OZ9"}
{"rt": "12121.0", "trial_number": "1", "skipped": "False", "complete": "False", "assignment": "3WSELTNVR4AZUVYAYCSWZIQW0J4ATB", "start_time": "1.51673772386e+12", "human_length": "6", "nodes_expanded": "999", "instance": "prb54081", "end_time": "1.51673773598e+12", "optimal_length": "11", "subject": "A2TQNX64349OZ9"}
{"rt": "16497.0", "trial_number": "2", "skipped": "False", "complete": "True", "assignment": "3WSELTNVR4AZUVYAYCSWZIQW0J4ATB", "start_time": "1.51673773725e+12", "human_length": "12", "nodes_expanded": "999", "instance": "prb54081", "end_time": "1.51673775374e+12", "optimal_length": "11", "subject": "A2TQNX64349OZ9"}
{"rt": "0.0", "trial_number": "0", "skipped": "False", "complete": "False", "assignment": "3X87C8JFV7JQ2BSCY8KSFD9F2ILSQK", "start_time": "1.51674848808e+12", "human_length": "1", "nodes_expanded": "999", "instance": "prb54081", "end_time": "1.51674848808e+12", "optimal_length": "11", "subject": "A21S7MA9DCW95E"}
{"rt": "0.0", "trial_number": "1", "skipped": "False", "complete": "False", "assignment": "3X87C8JFV7JQ2BSCY8KSFD9F2ILSQK", "start_time": "1.51674848812e+12", "human_length": "1", "nodes_expanded": "999", "instance": "prb54081", "end_time": "1.51674848812e+12", "optimal_length": "11", "subject": "A21S7MA9DCW95E"}
{"rt": "3312.0", "trial_number": "2", "skipped": "False", "complete": "False", "assignment": "3X87C8JFV7JQ2BSCY8KSFD9F2ILSQK", "start_time": "1.51674848815e+12", "human_length": "2", "nodes_expanded": "999", "instance": "prb54081", "end_time": "1.51674849146e+12", "optimal_length": "11", "subject": "A21S7MA9DCW95E"}
{"rt": "36496.0", "trial_number": "3", "skipped": "False", "complete": "True", "assignment": "3X87C8JFV7JQ2BSCY8KSFD9F2ILSQK", "start_time": "1.51674849285e+12", "human_length": "25", "nodes_expanded": "999", "instance": "prb54081", "end_time": "1.51674852934e+12", "optimal_length": "11", "subject": "A21S7MA9DCW95E"}
{"rt": "34920.0", "trial_number": "0", "skipped": "False", "complete": "True", "assignment": "3IJXV6UZ1YR1KY4G6BFEG1DXP7SRI1", "start_time": "1.51674916841e+12", "human_length": "17", "nodes_expanded": "999", "instance": "prb54081", "end_time": "1.51674920333e+12", "optimal_length": "11", "subject": "A2RTJ6BDY0DZVZ"}
{"rt": "51037.0", "trial_number": "0", "skipped": "False", "complete": "True", "assignment": "3I2PTA7R3U2SESF4TZBQORI5LSJQKK", "start_time": "1.51675975687e+12", "human_length": "24", "nodes_expanded": "999", "instance": "prb54081", "end_time": "1.5167598079e+12", "optimal_length": "11", "subject": "A3NMQ3019X6YE0"}
{"rt": "38463.0", "trial_number": "0", "skipped": "False", "complete": "True", "assignment": "3TS1AR6UQRM7SOIBWPBN8N9589Y7FV", "start_time": "1.51683788615e+12", "human_length": "27", "nodes_expanded": "999", "instance": "prb54081", "end_time": "1.51683792462e+12", "optimal_length": "11", "subject": "A1F4N58CAX8IMK"}
{"rt": "20109.0", "trial_number": "1", "skipped": "False", "complete": "True", "assignment": "35DR22AR5ES6RR89U7EJ1DXW91AX3P", "start_time": "1.51795479351e+12", "human_length": "21", "nodes_expanded": "999", "instance": "prb54081", "end_time": "1.51795481362e+12", "optimal_length": "11", "subject": "A1F4N58CAX8IMK"}
{"rt": "31693.0", "trial_number": "0", "skipped": "False", "complete": "True", "assignment": "3TS1AR6UQRM7SOIBWPBN8N9589Y7FV", "start_time": "1.51684199162e+12", "human_length": "28", "nodes_expanded": "999", "instance": "prb54081", "end_time": "1.51684202331e+12", "optimal_length": "11", "subject": "A15FXHC1CVNW31"}
{"rt": "31386.0", "trial_number": "0", "skipped": "True", "complete": "False", "assignment": "31LM9EDVOM0C0BWUVMJXJINN3QPJNI", "start_time": "1.51752401067e+12", "human_length": "22", "nodes_expanded": "999", "instance": "prb54081", "end_time": "1.51752404206e+12", "optimal_length": "11", "subject": "A1NT8BT94ME6F5"}
{"rt": "35180.0", "trial_number": "0", "skipped": "False", "complete": "True", "assignment": "37TD41K0AIHM8AITTQJXV8KY05QCSB", "start_time": "1.51752393447e+12", "human_length": "16", "nodes_expanded": "999", "instance": "prb54081", "end_time": "1.51752396965e+12", "optimal_length": "11", "subject": "A30KYQGABO7JER"}
{"rt": "17165.0", "trial_number": "0", "skipped": "False", "complete": "True", "assignment": "3TYCR1GOTDRCCQYD1V64UK7OHTBZLQ", "start_time": "1.51753674117e+12", "human_length": "19", "nodes_expanded": "999", "instance": "prb54081", "end_time": "1.51753675834e+12", "optimal_length": "11", "subject": "A13BZCNJ0WR1T7"}
{"rt": "40359.0", "trial_number": "0", "skipped": "False", "complete": "True", "assignment": "3H0W84IWBLAP4T2UASPNVMF5ZH7ER9", "start_time": "1.51755302223e+12", "human_length": "21", "nodes_expanded": "999", "instance": "prb54081", "end_time": "1.51755306259e+12", "optimal_length": "11", "subject": "A1AKX1C8GCVCTP"}
{"rt": "6437.0", "trial_number": "0", "skipped": "False", "complete": "False", "assignment": "3TPWUS5F8A9FFRZ2DVTYSXNJ6BWWC6", "start_time": "1.51793969487e+12", "human_length": "3", "nodes_expanded": "999", "instance": "prb54081", "end_time": "1.5179397013e+12", "optimal_length": "11", "subject": "A3GXC3VG37CQ3G"}
{"rt": "11914.0", "trial_number": "1", "skipped": "False", "complete": "True", "assignment": "3TPWUS5F8A9FFRZ2DVTYSXNJ6BWWC6", "start_time": "1.51793970522e+12", "human_length": "11", "nodes_expanded": "999", "instance": "prb54081", "end_time": "1.51793971714e+12", "optimal_length": "11", "subject": "A3GXC3VG37CQ3G"}
{"rt": "27575.0", "trial_number": "0", "skipped": "False", "complete": "False", "assignment": "34HJIJKLP64Z5YMIU6IKNXSH7PDV4I", "start_time": "1.51794072379e+12", "human_length": "11", "nodes_expanded": "999", "instance": "prb54081", "end_time": "1.51794075137e+12", "optimal_length": "11", "subject": "A3CTXNQ2GXIQSP"}
{"rt": "39060.0", "trial_number": "1", "skipped": "False", "complete": "True", "assignment": "34HJIJKLP64Z5YMIU6IKNXSH7PDV4I", "start_time": "1.51794075415e+12", "human_length": "22", "nodes_expanded": "999", "instance": "prb54081", "end_time": "1.51794079321e+12", "optimal_length": "11", "subject": "A3CTXNQ2GXIQSP"}
{"rt": "84591.0", "trial_number": "0", "skipped": "False", "complete": "True", "assignment": "3TXD01ZLD5PZSJXIPG8FRBQYTI9U4X", "start_time": "1.51794525729e+12", "human_length": "40", "nodes_expanded": "999", "instance": "prb54081", "end_time": "1.51794534188e+12", "optimal_length": "11", "subject": "A3BPRPN10HJD4B"}
{"rt": "23661.0", "trial_number": "0", "skipped": "False", "complete": "False", "assignment": "3STRJBFXOXZ5687WA35LTWTS7QZKTT", "start_time": "1.51794357588e+12", "human_length": "16", "nodes_expanded": "999", "instance": "prb54081", "end_time": "1.51794359954e+12", "optimal_length": "11", "subject": "A3OB6REG5CGHK1"}
{"rt": "0.0", "trial_number": "1", "skipped": "False", "complete": "False", "assignment": "3STRJBFXOXZ5687WA35LTWTS7QZKTT", "start_time": "1.5179436037e+12", "human_length": "1", "nodes_expanded": "999", "instance": "prb54081", "end_time": "1.5179436037e+12", "optimal_length": "11", "subject": "A3OB6REG5CGHK1"}
{"rt": "27806.0", "trial_number": "2", "skipped": "False", "complete": "True", "assignment": "3STRJBFXOXZ5687WA35LTWTS7QZKTT", "start_time": "1.51794360381e+12", "human_length": "18", "nodes_expanded": "999", "instance": "prb54081", "end_time": "1.51794363161e+12", "optimal_length": "11", "subject": "A3OB6REG5CGHK1"}
{"rt": "21535.0", "trial_number": "0", "skipped": "False", "complete": "True", "assignment": "33PPO7FECWN7JOLBOAKUBCWTC0AIDL", "start_time": "1.51795071685e+12", "human_length": "11", "nodes_expanded": "999", "instance": "prb54081", "end_time": "1.51795073838e+12", "optimal_length": "11", "subject": "AXKM02NVXNGOM"}
{"rt": "34762.0", "trial_number": "0", "skipped": "False", "complete": "False", "assignment": "3HYA4D452SR06NL5QDUSCWSXZI12FF", "start_time": "1.51795017317e+12", "human_length": "19", "nodes_expanded": "999", "instance": "prb54081", "end_time": "1.51795020793e+12", "optimal_length": "11", "subject": "A2OFWHV8IP7HK"}
{"rt": "52642.0", "trial_number": "1", "skipped": "False", "complete": "True", "assignment": "3HYA4D452SR06NL5QDUSCWSXZI12FF", "start_time": "1.51795021172e+12", "human_length": "17", "nodes_expanded": "999", "instance": "prb54081", "end_time": "1.51795026436e+12", "optimal_length": "11", "subject": "A2OFWHV8IP7HK"}
{"rt": "24892.0", "trial_number": "0", "skipped": "False", "complete": "True", "assignment": "3PB5A5BD0WED6OE679H5Q89HBDGG71", "start_time": "1.51795054429e+12", "human_length": "18", "nodes_expanded": "999", "instance": "prb54081", "end_time": "1.51795056918e+12", "optimal_length": "11", "subject": "A1USR9JCAMDGM3"}
{"rt": "35441.0", "trial_number": "0", "skipped": "False", "complete": "True", "assignment": "33F859I567LE8WC74WB3GA7E94XBHW", "start_time": "1.51796736930e+12", "human_length": "29", "nodes_expanded": "999", "instance": "prb54081", "end_time": "1.51796740475e+12", "optimal_length": "11", "subject": "A1GQS6USF2JEYG"}
{"rt": "11359.0", "trial_number": "0", "skipped": "False", "complete": "True", "assignment": "3IJXV6UZ1YR1KY4G6BFEG1DXR47RIC", "start_time": "1.51797286503e+12", "human_length": "12", "nodes_expanded": "999", "instance": "prb54081", "end_time": "1.51797287639e+12", "optimal_length": "11", "subject": "A18T3WK7J16C1B"}
{"rt": "43834.0", "trial_number": "0", "skipped": "False", "complete": "True", "assignment": "3FTF2T8WLSQDHTSZ1BJ7Q7MB14SW9H", "start_time": "1.51813622621e+12", "human_length": "31", "nodes_expanded": "999", "instance": "prb54081", "end_time": "1.51813627004e+12", "optimal_length": "11", "subject": "A1IUH9D7N69VS"}
{"rt": "51635.0", "trial_number": "0", "skipped": "False", "complete": "True", "assignment": "3XC1O3LBOTUGQEPEV3HM8W67X4RTLL", "start_time": "1.51813811737e+12", "human_length": "20", "nodes_expanded": "999", "instance": "prb54081", "end_time": "1.51813816901e+12", "optimal_length": "11", "subject": "A1ZTSCPETU3UJW"}
{"rt": "33437.0", "trial_number": "0", "skipped": "False", "complete": "True", "assignment": "3TAYZSBPLMG9ASQRWXURJVBCPLN2SH", "start_time": "1.5181360108e+12", "human_length": "25", "nodes_expanded": "999", "instance": "prb54081", "end_time": "1.51813604423e+12", "optimal_length": "11", "subject": "A2RCYLKY072XXO"}
{"rt": "25224.0", "trial_number": "0", "skipped": "False", "complete": "True", "assignment": "3ZSANO2JCGFTBM23KS9Y3E51YP4FSQ", "start_time": "1.51814292e+12", "human_length": "20", "nodes_expanded": "999", "instance": "prb54081", "end_time": "1.51814294523e+12", "optimal_length": "11", "subject": "A1F42D4L22K5ND"}
{"rt": "24528.0", "trial_number": "0", "skipped": "False", "complete": "True", "assignment": "3XLBSAQ9Z5KDX59BX15UBFPNNHYZ7Q", "start_time": "1.51814601034e+12", "human_length": "28", "nodes_expanded": "999", "instance": "prb54081", "end_time": "1.51814603487e+12", "optimal_length": "11", "subject": "A1HFNOKU591WCY"}
{"rt": "12689.0", "trial_number": "0", "skipped": "False", "complete": "True", "assignment": "3FUI0JHJPY6UBT1VAI7VUX8S3KH33W", "start_time": "1.51815172257e+12", "human_length": "12", "nodes_expanded": "999", "instance": "prb54081", "end_time": "1.51815173526e+12", "optimal_length": "11", "subject": "A2QIZ31TMHU0GD"}
{"rt": "39399.0", "trial_number": "0", "skipped": "False", "complete": "False", "assignment": "3RUIQRXJBCWS71H9MUFVM5WQ3SCLLJ", "start_time": "1.51815546558e+12", "human_length": "11", "nodes_expanded": "999", "instance": "prb54081", "end_time": "1.51815550498e+12", "optimal_length": "11", "subject": "A1SJRFJWFXSDH4"}
{"rt": "95565.0", "trial_number": "1", "skipped": "True", "complete": "False", "assignment": "3RUIQRXJBCWS71H9MUFVM5WQ3SCLLJ", "start_time": "1.51815551274e+12", "human_length": "17", "nodes_expanded": "999", "instance": "prb54081", "end_time": "1.51815560831e+12", "optimal_length": "11", "subject": "A1SJRFJWFXSDH4"}
{"rt": "27984.0", "trial_number": "0", "skipped": "False", "complete": "True", "assignment": "37QW5D2ZRHUKW7SGCE3STMOFBMK8SX", "start_time": "1.51815946855e+12", "human_length": "19", "nodes_expanded": "999", "instance": "prb54081", "end_time": "1.51815949654e+12", "optimal_length": "11", "subject": "AMW2XLD9443OH"}
{"rt": "47668.0", "trial_number": "0", "skipped": "True", "complete": "False", "assignment": "3M0BCWMB8W4W5M7WZVX3HDH1P53WB1", "start_time": "1.51816042506e+12", "human_length": "28", "nodes_expanded": "999", "instance": "prb54081", "end_time": "1.51816047272e+12", "optimal_length": "11", "subject": "A53S7J4JGWG38"}
{"rt": "34420.0", "trial_number": "0", "skipped": "False", "complete": "True", "assignment": "3IXEICO793RY7TM78ZBKJDOA7ADT6Q", "start_time": "1.5181680793e+12", "human_length": "27", "nodes_expanded": "999", "instance": "prb54081", "end_time": "1.51816811372e+12", "optimal_length": "11", "subject": "ALH1K6ZAQQMN7"}
