{"rt": "27353.0", "trial_number": "0", "skipped": "False", "complete": "True", "assignment": "3AZHRG4CU5SYU12YRVPCSZALW5003R", "start_time": "1.51630718898e+12", "human_length": "29", "nodes_expanded": "999", "instance": "prb55384", "end_time": "1.51630721634e+12", "optimal_length": "14", "subject": "ARWF605I7RWM7"}
{"rt": "66800.0", "trial_number": "0", "skipped": "False", "complete": "True", "assignment": "3ZV9H2YQQEFR2R3JK2IXZUJPXAF3WW", "start_time": "1.51630653015e+12", "human_length": "22", "nodes_expanded": "999", "instance": "prb55384", "end_time": "1.51630659695e+12", "optimal_length": "14", "subject": "A289D98Z4GAZ28"}
{"rt": "23107.0", "trial_number": "0", "skipped": "False", "complete": "True", "assignment": "3PMBY0YE28B43VMUKKJ6EDF85RV9C8", "start_time": "1.51638663026e+12", "human_length": "19", "nodes_expanded": "999", "instance": "prb55384", "end_time": "1.51638665336e+12", "optimal_length": "14", "subject": "A191V7PT3DQKDP"}
{"rt": "41757.0", "trial_number": "0", "skipped": "False", "complete": "True", "assignment": "3TYCR1GOTDRCCQYD1V64UK7OE48LZS", "start_time": "1.5163908369e+12", "human_length": "24", "nodes_expanded": "999", "instance": "prb55384", "end_time": "1.51639087866e+12", "optimal_length": "14", "subject": "A2MYB6MLQW0IGN"}
{"rt": "17854.0", "trial_number": "0", "skipped": "False", "complete": "True", "assignment": "34BBWHLWHBJ6SUL255PK30LEGY5IWG", "start_time": "1.5163924343e+12", "human_length": "21", "nodes_expanded": "999", "instance": "prb55384", "end_time": "1.51639245215e+12", "optimal_length": "14", "subject": "A214HWAW1PYWO8"}
{"rt": "0.0", "trial_number": "0", "skipped": "False", "complete": "False", "assignment": "3VE8AYVF8N5BS2NU6U3TMN50JMNF8V", "start_time": "1.51673830348e+12", "human_length": "1", "nodes_expanded": "999", "instance": "prb55384", "end_time": "1.51673830348e+12", "optimal_length": "14", "subject": "A18QU0YQB6Q8DF"}
{"rt": "0.0", "trial_number": "1", "skipped": "False", "complete": "False", "assignment": "3VE8AYVF8N5BS2NU6U3TMN50JMNF8V", "start_time": "1.51673830348e+12", "human_length": "1", "nodes_expanded": "999", "instance": "prb55384", "end_time": "1.51673830348e+12", "optimal_length": "14", "subject": "A18QU0YQB6Q8DF"}
{"rt": "33538.0", "trial_number": "2", "skipped": "False", "complete": "True", "assignment": "3VE8AYVF8N5BS2NU6U3TMN50JMNF8V", "start_time": "1.51673830348e+12", "human_length": "14", "nodes_expanded": "999", "instance": "prb55384", "end_time": "1.51673833702e+12", "optimal_length": "14", "subject": "A18QU0YQB6Q8DF"}
{"rt": "0.0", "trial_number": "0", "skipped": "False", "complete": "False", "assignment": "3X87C8JFV7JQ2BSCY8KSFD9F2ILSQK", "start_time": "1.5167405946e+12", "human_length": "1", "nodes_expanded": "999", "instance": "prb55384", "end_time": "1.5167405946e+12", "optimal_length": "14", "subject": "A3Q0XAGQ7TD7MP"}
{"rt": "0.0", "trial_number": "1", "skipped": "False", "complete": "False", "assignment": "3X87C8JFV7JQ2BSCY8KSFD9F2ILSQK", "start_time": "1.5167405946e+12", "human_length": "1", "nodes_expanded": "999", "instance": "prb55384", "end_time": "1.5167405946e+12", "optimal_length": "14", "subject": "A3Q0XAGQ7TD7MP"}
{"rt": "32860.0", "trial_number": "2", "skipped": "False", "complete": "True", "assignment": "3X87C8JFV7JQ2BSCY8KSFD9F2ILSQK", "start_time": "1.5167405946e+12", "human_length": "16", "nodes_expanded": "999", "instance": "prb55384", "end_time": "1.51674062746e+12", "optimal_length": "14", "subject": "A3Q0XAGQ7TD7MP"}
{"rt": "26390.0", "trial_number": "3", "skipped": "False", "complete": "True", "assignment": "3GLB5JMZFY3TNXFGYMKRQ0JDXNTDGZ", "start_time": "1.51794820316e+12", "human_length": "16", "nodes_expanded": "999", "instance": "prb55384", "end_time": "1.51794822955e+12", "optimal_length": "14", "subject": "A3Q0XAGQ7TD7MP"}
{"rt": "0.0", "trial_number": "0", "skipped": "False", "complete": "False", "assignment": "3WSELTNVR4AZUVYAYCSWZIQW0J4ATB", "start_time": "1.51673694961e+12", "human_length": "1", "nodes_expanded": "999", "instance": "prb55384", "end_time": "1.51673694961e+12", "optimal_length": "14", "subject": "A2TQNX64349OZ9"}
{"rt": "0.0", "trial_number": "1", "skipped": "False", "complete": "False", "assignment": "3WSELTNVR4AZUVYAYCSWZIQW0J4ATB", "start_time": "1.51673694961e+12", "human_length": "1", "nodes_expanded": "999", "instance": "prb55384", "end_time": "1.51673694961e+12", "optimal_length": "14", "subject": "A2TQNX64349OZ9"}
{"rt": "93506.0", "trial_number": "2", "skipped": "False", "complete": "True", "assignment": "3WSELTNVR4AZUVYAYCSWZIQW0J4ATB", "start_time": "1.51673694961e+12", "human_length": "28", "nodes_expanded": "999", "instance": "prb55384", "end_time": "1.51673704312e+12", "optimal_length": "14", "subject": "A2TQNX64349OZ9"}
{"rt": "0.0", "trial_number": "0", "skipped": "False", "complete": "False", "assignment": "3I2PTA7R3U2SESF4TZBQORI5LSJQKK", "start_time": "1.51675819808e+12", "human_length": "1", "nodes_expanded": "999", "instance": "prb55384", "end_time": "1.51675819808e+12", "optimal_length": "14", "subject": "A3NMQ3019X6YE0"}
{"rt": "0.0", "trial_number": "1", "skipped": "False", "complete": "False", "assignment": "3I2PTA7R3U2SESF4TZBQORI5LSJQKK", "start_time": "1.51675819808e+12", "human_length": "1", "nodes_expanded": "999", "instance": "prb55384", "end_time": "1.51675819808e+12", "optimal_length": "14", "subject": "A3NMQ3019X6YE0"}
{"rt": "80817.0", "trial_number": "2", "skipped": "False", "complete": "True", "assignment": "3I2PTA7R3U2SESF4TZBQORI5LSJQKK", "start_time": "1.51675819808e+12", "human_length": "27", "nodes_expanded": "999", "instance": "prb55384", "end_time": "1.5167582789e+12", "optimal_length": "14", "subject": "A3NMQ3019X6YE0"}
{"rt": "41717.0", "trial_number": "3", "skipped": "False", "complete": "True", "assignment": "3V5Q80FXIYZ5QB5C6ITQBN30WY823U", "start_time": "1.51753336042e+12", "human_length": "22", "nodes_expanded": "999", "instance": "prb55384", "end_time": "1.51753340213e+12", "optimal_length": "14", "subject": "A3NMQ3019X6YE0"}
{"rt": "0.0", "trial_number": "0", "skipped": "False", "complete": "False", "assignment": "3X4MXAO0BHWJLTOLVSJTHSM54OHWRG", "start_time": "1.51682512839e+12", "human_length": "1", "nodes_expanded": "999", "instance": "prb55384", "end_time": "1.51682512839e+12", "optimal_length": "14", "subject": "A2IBQA01NR5N76"}
{"rt": "19842.0", "trial_number": "1", "skipped": "False", "complete": "True", "assignment": "3X4MXAO0BHWJLTOLVSJTHSM54OHWRG", "start_time": "1.51682512839e+12", "human_length": "15", "nodes_expanded": "999", "instance": "prb55384", "end_time": "1.51682514823e+12", "optimal_length": "14", "subject": "A2IBQA01NR5N76"}
{"rt": "0.0", "trial_number": "0", "skipped": "False", "complete": "False", "assignment": "3IHR8NYAM89M0EPM8U9LH53ZJDTP4U", "start_time": "1.51682625006e+12", "human_length": "1", "nodes_expanded": "999", "instance": "prb55384", "end_time": "1.51682625006e+12", "optimal_length": "14", "subject": "A23437BMZ5T1FH"}
{"rt": "19997.0", "trial_number": "1", "skipped": "False", "complete": "True", "assignment": "3IHR8NYAM89M0EPM8U9LH53ZJDTP4U", "start_time": "1.51682625006e+12", "human_length": "22", "nodes_expanded": "999", "instance": "prb55384", "end_time": "1.51682627006e+12", "optimal_length": "14", "subject": "A23437BMZ5T1FH"}
{"rt": "56290.0", "trial_number": "0", "skipped": "False", "complete": "True", "assignment": "3YW4XOSQKRTI0K0Z2YPDTDJVFABU1I", "start_time": "1.51683289336e+12", "human_length": "22", "nodes_expanded": "999", "instance": "prb55384", "end_time": "1.51683294965e+12", "optimal_length": "14", "subject": "A1LR0VQIHQUJAM"}
{"rt": "33538.0", "trial_number": "0", "skipped": "False", "complete": "True", "assignment": "3VE8AYVF8N5BS2NU6U3TMN50JMNF8V", "start_time": "1.51673830348e+12", "human_length": "14", "nodes_expanded": "999", "instance": "prb55384", "end_time": "1.51673833702e+12", "optimal_length": "14", "subject": "A18QU0YQB6Q8DF"}
{"rt": "32860.0", "trial_number": "0", "skipped": "False", "complete": "True", "assignment": "3X87C8JFV7JQ2BSCY8KSFD9F2ILSQK", "start_time": "1.5167405946e+12", "human_length": "16", "nodes_expanded": "999", "instance": "prb55384", "end_time": "1.51674062746e+12", "optimal_length": "14", "subject": "A3Q0XAGQ7TD7MP"}
{"rt": "26390.0", "trial_number": "1", "skipped": "False", "complete": "True", "assignment": "3GLB5JMZFY3TNXFGYMKRQ0JDXNTDGZ", "start_time": "1.51794820316e+12", "human_length": "16", "nodes_expanded": "999", "instance": "prb55384", "end_time": "1.51794822955e+12", "optimal_length": "14", "subject": "A3Q0XAGQ7TD7MP"}
{"rt": "93506.0", "trial_number": "0", "skipped": "False", "complete": "True", "assignment": "3WSELTNVR4AZUVYAYCSWZIQW0J4ATB", "start_time": "1.51673694961e+12", "human_length": "28", "nodes_expanded": "999", "instance": "prb55384", "end_time": "1.51673704312e+12", "optimal_length": "14", "subject": "A2TQNX64349OZ9"}
{"rt": "80817.0", "trial_number": "0", "skipped": "False", "complete": "True", "assignment": "3I2PTA7R3U2SESF4TZBQORI5LSJQKK", "start_time": "1.51675819808e+12", "human_length": "27", "nodes_expanded": "999", "instance": "prb55384", "end_time": "1.5167582789e+12", "optimal_length": "14", "subject": "A3NMQ3019X6YE0"}
{"rt": "41717.0", "trial_number": "1", "skipped": "False", "complete": "True", "assignment": "3V5Q80FXIYZ5QB5C6ITQBN30WY823U", "start_time": "1.51753336042e+12", "human_length": "22", "nodes_expanded": "999", "instance": "prb55384", "end_time": "1.51753340213e+12", "optimal_length": "14", "subject": "A3NMQ3019X6YE0"}
{"rt": "56699.0", "trial_number": "0", "skipped": "False", "complete": "True", "assignment": "3TS1AR6UQRM7SOIBWPBN8N9589Y7FV", "start_time": "1.51684023577e+12", "human_length": "45", "nodes_expanded": "999", "instance": "prb55384", "end_time": "1.51684029247e+12", "optimal_length": "14", "subject": "A1F4N58CAX8IMK"}
{"rt": "93023.0", "trial_number": "1", "skipped": "True", "complete": "False", "assignment": "35DR22AR5ES6RR89U7EJ1DXW91AX3P", "start_time": "1.51795316032e+12", "human_length": "53", "nodes_expanded": "999", "instance": "prb55384", "end_time": "1.51795325334e+12", "optimal_length": "14", "subject": "A1F4N58CAX8IMK"}
{"rt": "23806.0", "trial_number": "0", "skipped": "False", "complete": "True", "assignment": "3M0BCWMB8W4W5M7WZVX3HDH1M3FBWL", "start_time": "1.51683873818e+12", "human_length": "14", "nodes_expanded": "999", "instance": "prb55384", "end_time": "1.51683876198e+12", "optimal_length": "14", "subject": "A1XDMS0KFSF5JW"}
{"rt": "36242.0", "trial_number": "0", "skipped": "False", "complete": "True", "assignment": "3TS1AR6UQRM7SOIBWPBN8N9589Y7FV", "start_time": "1.51684353404e+12", "human_length": "16", "nodes_expanded": "999", "instance": "prb55384", "end_time": "1.51684357028e+12", "optimal_length": "14", "subject": "A15FXHC1CVNW31"}
{"rt": "15096.0", "trial_number": "0", "skipped": "True", "complete": "False", "assignment": "31LM9EDVOM0C0BWUVMJXJINN3QPJNI", "start_time": "1.51752509423e+12", "human_length": "7", "nodes_expanded": "999", "instance": "prb55384", "end_time": "1.51752510933e+12", "optimal_length": "14", "subject": "A1NT8BT94ME6F5"}
{"rt": "47361.0", "trial_number": "0", "skipped": "False", "complete": "True", "assignment": "36H9ULYP6320CJJDXY0KBDEE1Z3JFB", "start_time": "1.51753291222e+12", "human_length": "22", "nodes_expanded": "999", "instance": "prb55384", "end_time": "1.51753295958e+12", "optimal_length": "14", "subject": "AN098C29EGJ6"}
{"rt": "7195.0", "trial_number": "0", "skipped": "True", "complete": "False", "assignment": "3TYCR1GOTDRCCQYD1V64UK7OHTBZLQ", "start_time": "1.51753703514e+12", "human_length": "7", "nodes_expanded": "999", "instance": "prb55384", "end_time": "1.51753704234e+12", "optimal_length": "14", "subject": "A13BZCNJ0WR1T7"}
{"rt": "55075.0", "trial_number": "0", "skipped": "False", "complete": "False", "assignment": "3H0W84IWBLAP4T2UASPNVMF5ZH7ER9", "start_time": "1.51755246406e+12", "human_length": "31", "nodes_expanded": "999", "instance": "prb55384", "end_time": "1.51755251914e+12", "optimal_length": "14", "subject": "A1AKX1C8GCVCTP"}
{"rt": "53717.0", "trial_number": "1", "skipped": "True", "complete": "False", "assignment": "3H0W84IWBLAP4T2UASPNVMF5ZH7ER9", "start_time": "1.51755254171e+12", "human_length": "18", "nodes_expanded": "999", "instance": "prb55384", "end_time": "1.51755259543e+12", "optimal_length": "14", "subject": "A1AKX1C8GCVCTP"}
{"rt": "58178.0", "trial_number": "0", "skipped": "False", "complete": "False", "assignment": "3TPWUS5F8A9FFRZ2DVTYSXNJ6BWWC6", "start_time": "1.51793941256e+12", "human_length": "11", "nodes_expanded": "999", "instance": "prb55384", "end_time": "1.51793947074e+12", "optimal_length": "14", "subject": "A3GXC3VG37CQ3G"}
{"rt": "13972.0", "trial_number": "1", "skipped": "False", "complete": "False", "assignment": "3TPWUS5F8A9FFRZ2DVTYSXNJ6BWWC6", "start_time": "1.51793947264e+12", "human_length": "4", "nodes_expanded": "999", "instance": "prb55384", "end_time": "1.51793948662e+12", "optimal_length": "14", "subject": "A3GXC3VG37CQ3G"}
{"rt": "19839.0", "trial_number": "2", "skipped": "False", "complete": "False", "assignment": "3TPWUS5F8A9FFRZ2DVTYSXNJ6BWWC6", "start_time": "1.51793949806e+12", "human_length": "7", "nodes_expanded": "999", "instance": "prb55384", "end_time": "1.5179395179e+12", "optimal_length": "14", "subject": "A3GXC3VG37CQ3G"}
{"rt": "68444.0", "trial_number": "3", "skipped": "False", "complete": "True", "assignment": "3TPWUS5F8A9FFRZ2DVTYSXNJ6BWWC6", "start_time": "1.51793955698e+12", "human_length": "19", "nodes_expanded": "999", "instance": "prb55384", "end_time": "1.51793962542e+12", "optimal_length": "14", "subject": "A3GXC3VG37CQ3G"}
{"rt": "33801.0", "trial_number": "0", "skipped": "False", "complete": "True", "assignment": "34HJIJKLP64Z5YMIU6IKNXSH7PDV4I", "start_time": "1.51794215315e+12", "human_length": "19", "nodes_expanded": "999", "instance": "prb55384", "end_time": "1.51794218695e+12", "optimal_length": "14", "subject": "A3CTXNQ2GXIQSP"}
{"rt": "59235.0", "trial_number": "0", "skipped": "False", "complete": "True", "assignment": "3TXD01ZLD5PZSJXIPG8FRBQYTI9U4X", "start_time": "1.5179451941e+12", "human_length": "29", "nodes_expanded": "999", "instance": "prb55384", "end_time": "1.51794525334e+12", "optimal_length": "14", "subject": "A3BPRPN10HJD4B"}
{"rt": "23423.0", "trial_number": "0", "skipped": "False", "complete": "True", "assignment": "30IQTZXKALEAAZ9CBKW0ZFZP6O5X07", "start_time": "1.51794592670e+12", "human_length": "14", "nodes_expanded": "999", "instance": "prb55384", "end_time": "1.51794595013e+12", "optimal_length": "14", "subject": "A23XJ8I86R0O3B"}
{"rt": "25584.0", "trial_number": "0", "skipped": "False", "complete": "True", "assignment": "3STRJBFXOXZ5687WA35LTWTS7QZKTT", "start_time": "1.51794348019e+12", "human_length": "19", "nodes_expanded": "999", "instance": "prb55384", "end_time": "1.51794350578e+12", "optimal_length": "14", "subject": "A3OB6REG5CGHK1"}
{"rt": "30159.0", "trial_number": "0", "skipped": "False", "complete": "False", "assignment": "3JCG6DTRV4YEPVDZ64VNKDUEMPGQQ1", "start_time": "1.51794725526e+12", "human_length": "11", "nodes_expanded": "999", "instance": "prb55384", "end_time": "1.51794728542e+12", "optimal_length": "14", "subject": "A2V7KYLBCBTI3B"}
{"rt": "25392.0", "trial_number": "1", "skipped": "True", "complete": "False", "assignment": "3JCG6DTRV4YEPVDZ64VNKDUEMPGQQ1", "start_time": "1.517947289e+12", "human_length": "10", "nodes_expanded": "999", "instance": "prb55384", "end_time": "1.51794731439e+12", "optimal_length": "14", "subject": "A2V7KYLBCBTI3B"}
{"rt": "45427.0", "trial_number": "0", "skipped": "False", "complete": "True", "assignment": "33PPO7FECWN7JOLBOAKUBCWTC0AIDL", "start_time": "1.51795029785e+12", "human_length": "15", "nodes_expanded": "999", "instance": "prb55384", "end_time": "1.51795034328e+12", "optimal_length": "14", "subject": "AXKM02NVXNGOM"}
{"rt": "29159.0", "trial_number": "0", "skipped": "False", "complete": "True", "assignment": "3PB5A5BD0WED6OE679H5Q89HBDGG71", "start_time": "1.51795360837e+12", "human_length": "21", "nodes_expanded": "999", "instance": "prb55384", "end_time": "1.51795363753e+12", "optimal_length": "14", "subject": "A1USR9JCAMDGM3"}
{"rt": "56190.0", "trial_number": "0", "skipped": "False", "complete": "True", "assignment": "3R5F3LQFV3SKIB1AENMWM1BICT5OZB", "start_time": "1.51795753373e+12", "human_length": "26", "nodes_expanded": "999", "instance": "prb55384", "end_time": "1.51795758992e+12", "optimal_length": "14", "subject": "A1N1EF0MIRSEZZ"}
{"rt": "33496.0", "trial_number": "0", "skipped": "False", "complete": "False", "assignment": "33F859I567LE8WC74WB3GA7E94XBHW", "start_time": "1.51796906596e+12", "human_length": "19", "nodes_expanded": "999", "instance": "prb55384", "end_time": "1.51796909946e+12", "optimal_length": "14", "subject": "A1GQS6USF2JEYG"}
{"rt": "2202.0", "trial_number": "1", "skipped": "False", "complete": "False", "assignment": "33F859I567LE8WC74WB3GA7E94XBHW", "start_time": "1.51796910139e+12", "human_length": "2", "nodes_expanded": "999", "instance": "prb55384", "end_time": "1.5179691036e+12", "optimal_length": "14", "subject": "A1GQS6USF2JEYG"}
{"rt": "34163.0", "trial_number": "2", "skipped": "False", "complete": "True", "assignment": "33F859I567LE8WC74WB3GA7E94XBHW", "start_time": "1.5179691237e+12", "human_length": "19", "nodes_expanded": "999", "instance": "prb55384", "end_time": "1.51796915786e+12", "optimal_length": "14", "subject": "A1GQS6USF2JEYG"}
{"rt": "19038.0", "trial_number": "0", "skipped": "False", "complete": "True", "assignment": "3IJXV6UZ1YR1KY4G6BFEG1DXR47RIC", "start_time": "1.51797169779e+12", "human_length": "18", "nodes_expanded": "999", "instance": "prb55384", "end_time": "1.51797171683e+12", "optimal_length": "14", "subject": "A18T3WK7J16C1B"}
{"rt": "19670.0", "trial_number": "0", "skipped": "False", "complete": "True", "assignment": "3FTF2T8WLSQDHTSZ1BJ7Q7MB14SW9H", "start_time": "1.51813603401e+12", "human_length": "14", "nodes_expanded": "999", "instance": "prb55384", "end_time": "1.51813605368e+12", "optimal_length": "14", "subject": "A1IUH9D7N69VS"}
{"rt": "25203.0", "trial_number": "0", "skipped": "True", "complete": "False", "assignment": "3XC1O3LBOTUGQEPEV3HM8W67X4RTLL", "start_time": "1.51813912169e+12", "human_length": "11", "nodes_expanded": "999", "instance": "prb55384", "end_time": "1.51813914689e+12", "optimal_length": "14", "subject": "A1ZTSCPETU3UJW"}
{"rt": "39749.0", "trial_number": "0", "skipped": "False", "complete": "True", "assignment": "3TAYZSBPLMG9ASQRWXURJVBCPLN2SH", "start_time": "1.51813748823e+12", "human_length": "26", "nodes_expanded": "999", "instance": "prb55384", "end_time": "1.51813752798e+12", "optimal_length": "14", "subject": "A2RCYLKY072XXO"}
{"rt": "18711.0", "trial_number": "0", "skipped": "False", "complete": "True", "assignment": "3ZSANO2JCGFTBM23KS9Y3E51YP4FSQ", "start_time": "1.51814264927e+12", "human_length": "18", "nodes_expanded": "999", "instance": "prb55384", "end_time": "1.51814266798e+12", "optimal_length": "14", "subject": "A1F42D4L22K5ND"}
{"rt": "22554.0", "trial_number": "0", "skipped": "False", "complete": "True", "assignment": "3VE8AYVF8N5BS2NU6U3TMN50MV38FP", "start_time": "1.51814472584e+12", "human_length": "14", "nodes_expanded": "999", "instance": "prb55384", "end_time": "1.51814474839e+12", "optimal_length": "14", "subject": "A1JN13098RIE78"}
{"rt": "102023.0", "trial_number": "0", "skipped": "False", "complete": "True", "assignment": "3HWRJOOET6A15827PHPSLWK1MOYSEU", "start_time": "1.51814403248e+12", "human_length": "50", "nodes_expanded": "999", "instance": "prb55384", "end_time": "1.5181441345e+12", "optimal_length": "14", "subject": "AO1QGAUZ85T6L"}
{"rt": "12638.0", "trial_number": "0", "skipped": "False", "complete": "False", "assignment": "3TMFV4NEP9MD3O9PWJDTQBR0HZYW8I", "start_time": "1.5181468248e+12", "human_length": "6", "nodes_expanded": "999", "instance": "prb55384", "end_time": "1.51814683744e+12", "optimal_length": "14", "subject": "A3GOOI75XOF24V"}
{"rt": "17395.0", "trial_number": "1", "skipped": "False", "complete": "False", "assignment": "3TMFV4NEP9MD3O9PWJDTQBR0HZYW8I", "start_time": "1.51814684499e+12", "human_length": "5", "nodes_expanded": "999", "instance": "prb55384", "end_time": "1.51814686239e+12", "optimal_length": "14", "subject": "A3GOOI75XOF24V"}
{"rt": "76630.0", "trial_number": "2", "skipped": "False", "complete": "True", "assignment": "3TMFV4NEP9MD3O9PWJDTQBR0HZYW8I", "start_time": "1.51814686963e+12", "human_length": "40", "nodes_expanded": "999", "instance": "prb55384", "end_time": "1.51814694626e+12", "optimal_length": "14", "subject": "A3GOOI75XOF24V"}
{"rt": "40722.0", "trial_number": "0", "skipped": "False", "complete": "True", "assignment": "3XLBSAQ9Z5KDX59BX15UBFPNNHYZ7Q", "start_time": "1.51814671109e+12", "human_length": "33", "nodes_expanded": "999", "instance": "prb55384", "end_time": "1.51814675181e+12", "optimal_length": "14", "subject": "A1HFNOKU591WCY"}
{"rt": "27855.0", "trial_number": "0", "skipped": "False", "complete": "True", "assignment": "3RUIQRXJBCWS71H9MUFVM5WQ3SCLLJ", "start_time": "1.51815818341e+12", "human_length": "16", "nodes_expanded": "999", "instance": "prb55384", "end_time": "1.51815821127e+12", "optimal_length": "14", "subject": "A1SJRFJWFXSDH4"}
{"rt": "26903.0", "trial_number": "0", "skipped": "False", "complete": "True", "assignment": "3M0BCWMB8W4W5M7WZVX3HDH1P53WB1", "start_time": "1.51816061056e+12", "human_length": "15", "nodes_expanded": "999", "instance": "prb55384", "end_time": "1.51816063746e+12", "optimal_length": "14", "subject": "A53S7J4JGWG38"}
{"rt": "80495.0", "trial_number": "0", "skipped": "True", "complete": "False", "assignment": "3SITXWYCNWHBUMCM90TPJWV8Y7AXBW", "start_time": "1.51816365425e+12", "human_length": "17", "nodes_expanded": "999", "instance": "prb55384", "end_time": "1.51816373475e+12", "optimal_length": "14", "subject": "A28RX7L0QZ993M"}
{"rt": "21663.0", "trial_number": "0", "skipped": "False", "complete": "True", "assignment": "3IXEICO793RY7TM78ZBKJDOA7ADT6Q", "start_time": "1.51816925735e+12", "human_length": "16", "nodes_expanded": "999", "instance": "prb55384", "end_time": "1.51816927901e+12", "optimal_length": "14", "subject": "ALH1K6ZAQQMN7"}
