{"rt": "81352.0", "trial_number": "0", "skipped": "False", "complete": "True", "assignment": "3AZHRG4CU5SYU12YRVPCSZALW5003R", "start_time": "1.51630645947e+12", "human_length": "67", "nodes_expanded": "999", "instance": "prb54506", "end_time": "1.51630654082e+12", "optimal_length": "16", "subject": "ARWF605I7RWM7"}
{"rt": "28249.0", "trial_number": "0", "skipped": "False", "complete": "True", "assignment": "3PMBY0YE28B43VMUKKJ6EDF85RV9C8", "start_time": "1.51638629086e+12", "human_length": "25", "nodes_expanded": "999", "instance": "prb54506", "end_time": "1.51638631911e+12", "optimal_length": "16", "subject": "A191V7PT3DQKDP"}
{"rt": "117077.0", "trial_number": "0", "skipped": "False", "complete": "False", "assignment": "34BBWHLWHBJ6SUL255PK30LEGY5IWG", "start_time": "1.51639080463e+12", "human_length": "69", "nodes_expanded": "999", "instance": "prb54506", "end_time": "1.51639092170e+12", "optimal_length": "16", "subject": "A214HWAW1PYWO8"}
{"rt": "0.0", "trial_number": "1", "skipped": "False", "complete": "False", "assignment": "34BBWHLWHBJ6SUL255PK30LEGY5IWG", "start_time": "1.51639092783e+12", "human_length": "1", "nodes_expanded": "999", "instance": "prb54506", "end_time": "1.51639092783e+12", "optimal_length": "16", "subject": "A214HWAW1PYWO8"}
{"rt": "8166.0", "trial_number": "2", "skipped": "False", "complete": "False", "assignment": "34BBWHLWHBJ6SUL255PK30LEGY5IWG", "start_time": "1.51639092783e+12", "human_length": "6", "nodes_expanded": "999", "instance": "prb54506", "end_time": "1.516390936e+12", "optimal_length": "16", "subject": "A214HWAW1PYWO8"}
{"rt": "29255.0", "trial_number": "3", "skipped": "False", "complete": "True", "assignment": "34BBWHLWHBJ6SUL255PK30LEGY5IWG", "start_time": "1.51639094787e+12", "human_length": "25", "nodes_expanded": "999", "instance": "prb54506", "end_time": "1.51639097712e+12", "optimal_length": "16", "subject": "A214HWAW1PYWO8"}
{"rt": "51072.0", "trial_number": "0", "skipped": "False", "complete": "False", "assignment": "3TYCR1GOTDRCCQYD1V64UK7OE48LZS", "start_time": "1.51639630343e+12", "human_length": "33", "nodes_expanded": "999", "instance": "prb54506", "end_time": "1.5163963545e+12", "optimal_length": "16", "subject": "A16SJ5D3DKUEXJ"}
{"rt": "33516.0", "trial_number": "1", "skipped": "True", "complete": "False", "assignment": "3TYCR1GOTDRCCQYD1V64UK7OE48LZS", "start_time": "1.51639635689e+12", "human_length": "19", "nodes_expanded": "999", "instance": "prb54506", "end_time": "1.5163963904e+12", "optimal_length": "16", "subject": "A16SJ5D3DKUEXJ"}
{"rt": "0.0", "trial_number": "0", "skipped": "False", "complete": "False", "assignment": "3VE8AYVF8N5BS2NU6U3TMN50JMNF8V", "start_time": "1.51673780921e+12", "human_length": "1", "nodes_expanded": "999", "instance": "prb54506", "end_time": "1.51673780921e+12", "optimal_length": "16", "subject": "A18QU0YQB6Q8DF"}
{"rt": "0.0", "trial_number": "1", "skipped": "False", "complete": "False", "assignment": "3VE8AYVF8N5BS2NU6U3TMN50JMNF8V", "start_time": "1.51673780921e+12", "human_length": "1", "nodes_expanded": "999", "instance": "prb54506", "end_time": "1.51673780921e+12", "optimal_length": "16", "subject": "A18QU0YQB6Q8DF"}
{"rt": "31176.0", "trial_number": "2", "skipped": "True", "complete": "False", "assignment": "3VE8AYVF8N5BS2NU6U3TMN50JMNF8V", "start_time": "1.51673780921e+12", "human_length": "42", "nodes_expanded": "999", "instance": "prb54506", "end_time": "1.51673784038e+12", "optimal_length": "16", "subject": "A18QU0YQB6Q8DF"}
{"rt": "91598.0", "trial_number": "0", "skipped": "False", "complete": "False", "assignment": "3X87C8JFV7JQ2BSCY8KSFD9F2ILSQK", "start_time": "1.51673916038e+12", "human_length": "27", "nodes_expanded": "999", "instance": "prb54506", "end_time": "1.51673925198e+12", "optimal_length": "16", "subject": "A3Q0XAGQ7TD7MP"}
{"rt": "58621.0", "trial_number": "1", "skipped": "False", "complete": "False", "assignment": "3X87C8JFV7JQ2BSCY8KSFD9F2ILSQK", "start_time": "1.51673925763e+12", "human_length": "16", "nodes_expanded": "999", "instance": "prb54506", "end_time": "1.51673931625e+12", "optimal_length": "16", "subject": "A3Q0XAGQ7TD7MP"}
{"rt": "0.0", "trial_number": "2", "skipped": "False", "complete": "False", "assignment": "3X87C8JFV7JQ2BSCY8KSFD9F2ILSQK", "start_time": "1.51673931859e+12", "human_length": "1", "nodes_expanded": "999", "instance": "prb54506", "end_time": "1.51673931859e+12", "optimal_length": "16", "subject": "A3Q0XAGQ7TD7MP"}
{"rt": "0.0", "trial_number": "3", "skipped": "False", "complete": "False", "assignment": "3X87C8JFV7JQ2BSCY8KSFD9F2ILSQK", "start_time": "1.51673916038e+12", "human_length": "1", "nodes_expanded": "999", "instance": "prb54506", "end_time": "1.51673916038e+12", "optimal_length": "16", "subject": "A3Q0XAGQ7TD7MP"}
{"rt": "0.0", "trial_number": "4", "skipped": "False", "complete": "False", "assignment": "3X87C8JFV7JQ2BSCY8KSFD9F2ILSQK", "start_time": "1.51673925763e+12", "human_length": "1", "nodes_expanded": "999", "instance": "prb54506", "end_time": "1.51673925763e+12", "optimal_length": "16", "subject": "A3Q0XAGQ7TD7MP"}
{"rt": "0.0", "trial_number": "5", "skipped": "False", "complete": "False", "assignment": "3X87C8JFV7JQ2BSCY8KSFD9F2ILSQK", "start_time": "1.51673931859e+12", "human_length": "1", "nodes_expanded": "999", "instance": "prb54506", "end_time": "1.51673931859e+12", "optimal_length": "16", "subject": "A3Q0XAGQ7TD7MP"}
{"rt": "0.0", "trial_number": "6", "skipped": "False", "complete": "False", "assignment": "3X87C8JFV7JQ2BSCY8KSFD9F2ILSQK", "start_time": "1.51673916038e+12", "human_length": "1", "nodes_expanded": "999", "instance": "prb54506", "end_time": "1.51673916038e+12", "optimal_length": "16", "subject": "A3Q0XAGQ7TD7MP"}
{"rt": "0.0", "trial_number": "7", "skipped": "False", "complete": "False", "assignment": "3X87C8JFV7JQ2BSCY8KSFD9F2ILSQK", "start_time": "1.51673925763e+12", "human_length": "1", "nodes_expanded": "999", "instance": "prb54506", "end_time": "1.51673925763e+12", "optimal_length": "16", "subject": "A3Q0XAGQ7TD7MP"}
{"rt": "23439.0", "trial_number": "8", "skipped": "False", "complete": "False", "assignment": "3X87C8JFV7JQ2BSCY8KSFD9F2ILSQK", "start_time": "1.51673931859e+12", "human_length": "79", "nodes_expanded": "999", "instance": "prb54506", "end_time": "1.51673934203e+12", "optimal_length": "16", "subject": "A3Q0XAGQ7TD7MP"}
{"rt": "52225.0", "trial_number": "9", "skipped": "True", "complete": "False", "assignment": "3GLB5JMZFY3TNXFGYMKRQ0JDXNTDGZ", "start_time": "1.51794716222e+12", "human_length": "23", "nodes_expanded": "999", "instance": "prb54506", "end_time": "1.51794721444e+12", "optimal_length": "16", "subject": "A3Q0XAGQ7TD7MP"}
{"rt": "42047.0", "trial_number": "0", "skipped": "False", "complete": "False", "assignment": "3WSELTNVR4AZUVYAYCSWZIQW0J4ATB", "start_time": "1.51673797744e+12", "human_length": "28", "nodes_expanded": "999", "instance": "prb54506", "end_time": "1.51673801949e+12", "optimal_length": "16", "subject": "A2TQNX64349OZ9"}
{"rt": "14125.0", "trial_number": "1", "skipped": "False", "complete": "False", "assignment": "3WSELTNVR4AZUVYAYCSWZIQW0J4ATB", "start_time": "1.51673802179e+12", "human_length": "10", "nodes_expanded": "999", "instance": "prb54506", "end_time": "1.51673803592e+12", "optimal_length": "16", "subject": "A2TQNX64349OZ9"}
{"rt": "23589.0", "trial_number": "2", "skipped": "False", "complete": "False", "assignment": "3WSELTNVR4AZUVYAYCSWZIQW0J4ATB", "start_time": "1.51673803756e+12", "human_length": "16", "nodes_expanded": "999", "instance": "prb54506", "end_time": "1.51673806115e+12", "optimal_length": "16", "subject": "A2TQNX64349OZ9"}
{"rt": "16786.0", "trial_number": "3", "skipped": "False", "complete": "False", "assignment": "3WSELTNVR4AZUVYAYCSWZIQW0J4ATB", "start_time": "1.51673806408e+12", "human_length": "10", "nodes_expanded": "999", "instance": "prb54506", "end_time": "1.51673808087e+12", "optimal_length": "16", "subject": "A2TQNX64349OZ9"}
{"rt": "21351.0", "trial_number": "4", "skipped": "False", "complete": "False", "assignment": "3WSELTNVR4AZUVYAYCSWZIQW0J4ATB", "start_time": "1.51673808504e+12", "human_length": "12", "nodes_expanded": "999", "instance": "prb54506", "end_time": "1.51673810639e+12", "optimal_length": "16", "subject": "A2TQNX64349OZ9"}
{"rt": "29580.0", "trial_number": "5", "skipped": "False", "complete": "False", "assignment": "3WSELTNVR4AZUVYAYCSWZIQW0J4ATB", "start_time": "1.51673810873e+12", "human_length": "20", "nodes_expanded": "999", "instance": "prb54506", "end_time": "1.51673813831e+12", "optimal_length": "16", "subject": "A2TQNX64349OZ9"}
{"rt": "15575.0", "trial_number": "6", "skipped": "False", "complete": "False", "assignment": "3WSELTNVR4AZUVYAYCSWZIQW0J4ATB", "start_time": "1.5167381403e+12", "human_length": "7", "nodes_expanded": "999", "instance": "prb54506", "end_time": "1.51673815588e+12", "optimal_length": "16", "subject": "A2TQNX64349OZ9"}
{"rt": "0.0", "trial_number": "7", "skipped": "False", "complete": "False", "assignment": "3WSELTNVR4AZUVYAYCSWZIQW0J4ATB", "start_time": "1.5167381569e+12", "human_length": "1", "nodes_expanded": "999", "instance": "prb54506", "end_time": "1.5167381569e+12", "optimal_length": "16", "subject": "A2TQNX64349OZ9"}
{"rt": "0.0", "trial_number": "8", "skipped": "False", "complete": "False", "assignment": "3WSELTNVR4AZUVYAYCSWZIQW0J4ATB", "start_time": "1.51673797744e+12", "human_length": "1", "nodes_expanded": "999", "instance": "prb54506", "end_time": "1.51673797744e+12", "optimal_length": "16", "subject": "A2TQNX64349OZ9"}
{"rt": "0.0", "trial_number": "9", "skipped": "False", "complete": "False", "assignment": "3WSELTNVR4AZUVYAYCSWZIQW0J4ATB", "start_time": "1.51673802179e+12", "human_length": "1", "nodes_expanded": "999", "instance": "prb54506", "end_time": "1.51673802179e+12", "optimal_length": "16", "subject": "A2TQNX64349OZ9"}
{"rt": "0.0", "trial_number": "10", "skipped": "False", "complete": "False", "assignment": "3WSELTNVR4AZUVYAYCSWZIQW0J4ATB", "start_time": "1.51673803756e+12", "human_length": "1", "nodes_expanded": "999", "instance": "prb54506", "end_time": "1.51673803756e+12", "optimal_length": "16", "subject": "A2TQNX64349OZ9"}
{"rt": "0.0", "trial_number": "11", "skipped": "False", "complete": "False", "assignment": "3WSELTNVR4AZUVYAYCSWZIQW0J4ATB", "start_time": "1.51673806408e+12", "human_length": "1", "nodes_expanded": "999", "instance": "prb54506", "end_time": "1.51673806408e+12", "optimal_length": "16", "subject": "A2TQNX64349OZ9"}
{"rt": "0.0", "trial_number": "12", "skipped": "False", "complete": "False", "assignment": "3WSELTNVR4AZUVYAYCSWZIQW0J4ATB", "start_time": "1.51673808504e+12", "human_length": "1", "nodes_expanded": "999", "instance": "prb54506", "end_time": "1.51673808504e+12", "optimal_length": "16", "subject": "A2TQNX64349OZ9"}
{"rt": "0.0", "trial_number": "13", "skipped": "False", "complete": "False", "assignment": "3WSELTNVR4AZUVYAYCSWZIQW0J4ATB", "start_time": "1.51673810873e+12", "human_length": "1", "nodes_expanded": "999", "instance": "prb54506", "end_time": "1.51673810873e+12", "optimal_length": "16", "subject": "A2TQNX64349OZ9"}
{"rt": "0.0", "trial_number": "14", "skipped": "False", "complete": "False", "assignment": "3WSELTNVR4AZUVYAYCSWZIQW0J4ATB", "start_time": "1.5167381403e+12", "human_length": "1", "nodes_expanded": "999", "instance": "prb54506", "end_time": "1.5167381403e+12", "optimal_length": "16", "subject": "A2TQNX64349OZ9"}
{"rt": "0.0", "trial_number": "15", "skipped": "False", "complete": "False", "assignment": "3WSELTNVR4AZUVYAYCSWZIQW0J4ATB", "start_time": "1.5167381569e+12", "human_length": "1", "nodes_expanded": "999", "instance": "prb54506", "end_time": "1.5167381569e+12", "optimal_length": "16", "subject": "A2TQNX64349OZ9"}
{"rt": "0.0", "trial_number": "16", "skipped": "False", "complete": "False", "assignment": "3WSELTNVR4AZUVYAYCSWZIQW0J4ATB", "start_time": "1.51673797744e+12", "human_length": "1", "nodes_expanded": "999", "instance": "prb54506", "end_time": "1.51673797744e+12", "optimal_length": "16", "subject": "A2TQNX64349OZ9"}
{"rt": "0.0", "trial_number": "17", "skipped": "False", "complete": "False", "assignment": "3WSELTNVR4AZUVYAYCSWZIQW0J4ATB", "start_time": "1.51673802179e+12", "human_length": "1", "nodes_expanded": "999", "instance": "prb54506", "end_time": "1.51673802179e+12", "optimal_length": "16", "subject": "A2TQNX64349OZ9"}
{"rt": "0.0", "trial_number": "18", "skipped": "False", "complete": "False", "assignment": "3WSELTNVR4AZUVYAYCSWZIQW0J4ATB", "start_time": "1.51673803756e+12", "human_length": "1", "nodes_expanded": "999", "instance": "prb54506", "end_time": "1.51673803756e+12", "optimal_length": "16", "subject": "A2TQNX64349OZ9"}
{"rt": "0.0", "trial_number": "19", "skipped": "False", "complete": "False", "assignment": "3WSELTNVR4AZUVYAYCSWZIQW0J4ATB", "start_time": "1.51673806408e+12", "human_length": "1", "nodes_expanded": "999", "instance": "prb54506", "end_time": "1.51673806408e+12", "optimal_length": "16", "subject": "A2TQNX64349OZ9"}
{"rt": "0.0", "trial_number": "20", "skipped": "False", "complete": "False", "assignment": "3WSELTNVR4AZUVYAYCSWZIQW0J4ATB", "start_time": "1.51673808504e+12", "human_length": "1", "nodes_expanded": "999", "instance": "prb54506", "end_time": "1.51673808504e+12", "optimal_length": "16", "subject": "A2TQNX64349OZ9"}
{"rt": "0.0", "trial_number": "21", "skipped": "False", "complete": "False", "assignment": "3WSELTNVR4AZUVYAYCSWZIQW0J4ATB", "start_time": "1.51673810873e+12", "human_length": "1", "nodes_expanded": "999", "instance": "prb54506", "end_time": "1.51673810873e+12", "optimal_length": "16", "subject": "A2TQNX64349OZ9"}
{"rt": "0.0", "trial_number": "22", "skipped": "False", "complete": "False", "assignment": "3WSELTNVR4AZUVYAYCSWZIQW0J4ATB", "start_time": "1.5167381403e+12", "human_length": "1", "nodes_expanded": "999", "instance": "prb54506", "end_time": "1.5167381403e+12", "optimal_length": "16", "subject": "A2TQNX64349OZ9"}
{"rt": "29503.0", "trial_number": "23", "skipped": "False", "complete": "True", "assignment": "3WSELTNVR4AZUVYAYCSWZIQW0J4ATB", "start_time": "1.5167381569e+12", "human_length": "20", "nodes_expanded": "999", "instance": "prb54506", "end_time": "1.5167381864e+12", "optimal_length": "16", "subject": "A2TQNX64349OZ9"}
{"rt": "0.0", "trial_number": "0", "skipped": "False", "complete": "False", "assignment": "3I2PTA7R3U2SESF4TZBQORI5LSJQKK", "start_time": "1.51676084236e+12", "human_length": "1", "nodes_expanded": "999", "instance": "prb54506", "end_time": "1.51676084236e+12", "optimal_length": "16", "subject": "A3NMQ3019X6YE0"}
{"rt": "0.0", "trial_number": "1", "skipped": "False", "complete": "False", "assignment": "3I2PTA7R3U2SESF4TZBQORI5LSJQKK", "start_time": "1.51676084236e+12", "human_length": "1", "nodes_expanded": "999", "instance": "prb54506", "end_time": "1.51676084236e+12", "optimal_length": "16", "subject": "A3NMQ3019X6YE0"}
{"rt": "227465.0", "trial_number": "2", "skipped": "False", "complete": "False", "assignment": "3I2PTA7R3U2SESF4TZBQORI5LSJQKK", "start_time": "1.51676084236e+12", "human_length": "328", "nodes_expanded": "999", "instance": "prb54506", "end_time": "1.51676106983e+12", "optimal_length": "16", "subject": "A3NMQ3019X6YE0"}
{"rt": "67485.0", "trial_number": "3", "skipped": "False", "complete": "False", "assignment": "3V5Q80FXIYZ5QB5C6ITQBN30WY823U", "start_time": "1.51753357189e+12", "human_length": "38", "nodes_expanded": "999", "instance": "prb54506", "end_time": "1.51753363938e+12", "optimal_length": "16", "subject": "A3NMQ3019X6YE0"}
{"rt": "125695.0", "trial_number": "4", "skipped": "True", "complete": "False", "assignment": "3V5Q80FXIYZ5QB5C6ITQBN30WY823U", "start_time": "1.51753364196e+12", "human_length": "71", "nodes_expanded": "999", "instance": "prb54506", "end_time": "1.51753376765e+12", "optimal_length": "16", "subject": "A3NMQ3019X6YE0"}
{"rt": "0.0", "trial_number": "0", "skipped": "False", "complete": "False", "assignment": "3IHR8NYAM89M0EPM8U9LH53ZJDTP4U", "start_time": "1.51682720169e+12", "human_length": "1", "nodes_expanded": "999", "instance": "prb54506", "end_time": "1.51682720169e+12", "optimal_length": "16", "subject": "A23437BMZ5T1FH"}
{"rt": "76265.0", "trial_number": "1", "skipped": "True", "complete": "False", "assignment": "3IHR8NYAM89M0EPM8U9LH53ZJDTP4U", "start_time": "1.51682720169e+12", "human_length": "95", "nodes_expanded": "999", "instance": "prb54506", "end_time": "1.51682727795e+12", "optimal_length": "16", "subject": "A23437BMZ5T1FH"}
{"rt": "138078.0", "trial_number": "0", "skipped": "True", "complete": "False", "assignment": "3YW4XOSQKRTI0K0Z2YPDTDJVFABU1I", "start_time": "1.51683319906e+12", "human_length": "81", "nodes_expanded": "999", "instance": "prb54506", "end_time": "1.51683333714e+12", "optimal_length": "16", "subject": "A1LR0VQIHQUJAM"}
{"rt": "31176.0", "trial_number": "0", "skipped": "True", "complete": "False", "assignment": "3VE8AYVF8N5BS2NU6U3TMN50JMNF8V", "start_time": "1.51673780921e+12", "human_length": "16", "nodes_expanded": "999", "instance": "prb54506", "end_time": "1.51673784038e+12", "optimal_length": "16", "subject": "A18QU0YQB6Q8DF"}
{"rt": "91598.0", "trial_number": "0", "skipped": "False", "complete": "False", "assignment": "3X87C8JFV7JQ2BSCY8KSFD9F2ILSQK", "start_time": "1.51673916038e+12", "human_length": "27", "nodes_expanded": "999", "instance": "prb54506", "end_time": "1.51673925198e+12", "optimal_length": "16", "subject": "A3Q0XAGQ7TD7MP"}
{"rt": "58621.0", "trial_number": "1", "skipped": "False", "complete": "False", "assignment": "3X87C8JFV7JQ2BSCY8KSFD9F2ILSQK", "start_time": "1.51673925763e+12", "human_length": "16", "nodes_expanded": "999", "instance": "prb54506", "end_time": "1.51673931625e+12", "optimal_length": "16", "subject": "A3Q0XAGQ7TD7MP"}
{"rt": "23439.0", "trial_number": "2", "skipped": "False", "complete": "False", "assignment": "3X87C8JFV7JQ2BSCY8KSFD9F2ILSQK", "start_time": "1.51673931859e+12", "human_length": "6", "nodes_expanded": "999", "instance": "prb54506", "end_time": "1.51673934203e+12", "optimal_length": "16", "subject": "A3Q0XAGQ7TD7MP"}
{"rt": "52225.0", "trial_number": "3", "skipped": "True", "complete": "False", "assignment": "3GLB5JMZFY3TNXFGYMKRQ0JDXNTDGZ", "start_time": "1.51794716222e+12", "human_length": "23", "nodes_expanded": "999", "instance": "prb54506", "end_time": "1.51794721444e+12", "optimal_length": "16", "subject": "A3Q0XAGQ7TD7MP"}
{"rt": "42047.0", "trial_number": "0", "skipped": "False", "complete": "False", "assignment": "3WSELTNVR4AZUVYAYCSWZIQW0J4ATB", "start_time": "1.51673797744e+12", "human_length": "28", "nodes_expanded": "999", "instance": "prb54506", "end_time": "1.51673801949e+12", "optimal_length": "16", "subject": "A2TQNX64349OZ9"}
{"rt": "14125.0", "trial_number": "1", "skipped": "False", "complete": "False", "assignment": "3WSELTNVR4AZUVYAYCSWZIQW0J4ATB", "start_time": "1.51673802179e+12", "human_length": "10", "nodes_expanded": "999", "instance": "prb54506", "end_time": "1.51673803592e+12", "optimal_length": "16", "subject": "A2TQNX64349OZ9"}
{"rt": "23589.0", "trial_number": "2", "skipped": "False", "complete": "False", "assignment": "3WSELTNVR4AZUVYAYCSWZIQW0J4ATB", "start_time": "1.51673803756e+12", "human_length": "16", "nodes_expanded": "999", "instance": "prb54506", "end_time": "1.51673806115e+12", "optimal_length": "16", "subject": "A2TQNX64349OZ9"}
{"rt": "16786.0", "trial_number": "3", "skipped": "False", "complete": "False", "assignment": "3WSELTNVR4AZUVYAYCSWZIQW0J4ATB", "start_time": "1.51673806408e+12", "human_length": "10", "nodes_expanded": "999", "instance": "prb54506", "end_time": "1.51673808087e+12", "optimal_length": "16", "subject": "A2TQNX64349OZ9"}
{"rt": "21351.0", "trial_number": "4", "skipped": "False", "complete": "False", "assignment": "3WSELTNVR4AZUVYAYCSWZIQW0J4ATB", "start_time": "1.51673808504e+12", "human_length": "12", "nodes_expanded": "999", "instance": "prb54506", "end_time": "1.51673810639e+12", "optimal_length": "16", "subject": "A2TQNX64349OZ9"}
{"rt": "29580.0", "trial_number": "5", "skipped": "False", "complete": "False", "assignment": "3WSELTNVR4AZUVYAYCSWZIQW0J4ATB", "start_time": "1.51673810873e+12", "human_length": "20", "nodes_expanded": "999", "instance": "prb54506", "end_time": "1.51673813831e+12", "optimal_length": "16", "subject": "A2TQNX64349OZ9"}
{"rt": "15575.0", "trial_number": "6", "skipped": "False", "complete": "False", "assignment": "3WSELTNVR4AZUVYAYCSWZIQW0J4ATB", "start_time": "1.5167381403e+12", "human_length": "7", "nodes_expanded": "999", "instance": "prb54506", "end_time": "1.51673815588e+12", "optimal_length": "16", "subject": "A2TQNX64349OZ9"}
{"rt": "29503.0", "trial_number": "7", "skipped": "False", "complete": "True", "assignment": "3WSELTNVR4AZUVYAYCSWZIQW0J4ATB", "start_time": "1.5167381569e+12", "human_length": "20", "nodes_expanded": "999", "instance": "prb54506", "end_time": "1.5167381864e+12", "optimal_length": "16", "subject": "A2TQNX64349OZ9"}
{"rt": "227465.0", "trial_number": "0", "skipped": "False", "complete": "False", "assignment": "3I2PTA7R3U2SESF4TZBQORI5LSJQKK", "start_time": "1.51676084236e+12", "human_length": "114", "nodes_expanded": "999", "instance": "prb54506", "end_time": "1.51676106983e+12", "optimal_length": "16", "subject": "A3NMQ3019X6YE0"}
{"rt": "67485.0", "trial_number": "1", "skipped": "False", "complete": "False", "assignment": "3V5Q80FXIYZ5QB5C6ITQBN30WY823U", "start_time": "1.51753357189e+12", "human_length": "38", "nodes_expanded": "999", "instance": "prb54506", "end_time": "1.51753363938e+12", "optimal_length": "16", "subject": "A3NMQ3019X6YE0"}
{"rt": "125695.0", "trial_number": "2", "skipped": "True", "complete": "False", "assignment": "3V5Q80FXIYZ5QB5C6ITQBN30WY823U", "start_time": "1.51753364196e+12", "human_length": "71", "nodes_expanded": "999", "instance": "prb54506", "end_time": "1.51753376765e+12", "optimal_length": "16", "subject": "A3NMQ3019X6YE0"}
{"rt": "129215.0", "trial_number": "0", "skipped": "False", "complete": "False", "assignment": "3TS1AR6UQRM7SOIBWPBN8N9589Y7FV", "start_time": "1.51683729747e+12", "human_length": "73", "nodes_expanded": "999", "instance": "prb54506", "end_time": "1.51683742668e+12", "optimal_length": "16", "subject": "A1F4N58CAX8IMK"}
{"rt": "71400.0", "trial_number": "1", "skipped": "True", "complete": "False", "assignment": "35DR22AR5ES6RR89U7EJ1DXW91AX3P", "start_time": "1.51795233616e+12", "human_length": "60", "nodes_expanded": "999", "instance": "prb54506", "end_time": "1.51795240756e+12", "optimal_length": "16", "subject": "A1F4N58CAX8IMK"}
{"rt": "29363.0", "trial_number": "0", "skipped": "False", "complete": "False", "assignment": "31LM9EDVOM0C0BWUVMJXJINN3QPJNI", "start_time": "1.51752339508e+12", "human_length": "24", "nodes_expanded": "999", "instance": "prb54506", "end_time": "1.51752342444e+12", "optimal_length": "16", "subject": "A1NT8BT94ME6F5"}
{"rt": "18731.0", "trial_number": "1", "skipped": "False", "complete": "False", "assignment": "31LM9EDVOM0C0BWUVMJXJINN3QPJNI", "start_time": "1.51752342999e+12", "human_length": "8", "nodes_expanded": "999", "instance": "prb54506", "end_time": "1.51752344872e+12", "optimal_length": "16", "subject": "A1NT8BT94ME6F5"}
{"rt": "13727.0", "trial_number": "2", "skipped": "False", "complete": "False", "assignment": "31LM9EDVOM0C0BWUVMJXJINN3QPJNI", "start_time": "1.51752344972e+12", "human_length": "10", "nodes_expanded": "999", "instance": "prb54506", "end_time": "1.51752346345e+12", "optimal_length": "16", "subject": "A1NT8BT94ME6F5"}
{"rt": "9068.0", "trial_number": "3", "skipped": "False", "complete": "False", "assignment": "31LM9EDVOM0C0BWUVMJXJINN3QPJNI", "start_time": "1.51752346502e+12", "human_length": "8", "nodes_expanded": "999", "instance": "prb54506", "end_time": "1.51752347409e+12", "optimal_length": "16", "subject": "A1NT8BT94ME6F5"}
{"rt": "17150.0", "trial_number": "4", "skipped": "False", "complete": "False", "assignment": "31LM9EDVOM0C0BWUVMJXJINN3QPJNI", "start_time": "1.51752347732e+12", "human_length": "11", "nodes_expanded": "999", "instance": "prb54506", "end_time": "1.51752349447e+12", "optimal_length": "16", "subject": "A1NT8BT94ME6F5"}
{"rt": "8473.0", "trial_number": "5", "skipped": "True", "complete": "False", "assignment": "31LM9EDVOM0C0BWUVMJXJINN3QPJNI", "start_time": "1.51752349662e+12", "human_length": "8", "nodes_expanded": "999", "instance": "prb54506", "end_time": "1.51752350509e+12", "optimal_length": "16", "subject": "A1NT8BT94ME6F5"}
{"rt": "93524.0", "trial_number": "0", "skipped": "True", "complete": "False", "assignment": "37TD41K0AIHM8AITTQJXV8KY05QCSB", "start_time": "1.51752580476e+12", "human_length": "53", "nodes_expanded": "999", "instance": "prb54506", "end_time": "1.51752589829e+12", "optimal_length": "16", "subject": "A30KYQGABO7JER"}
{"rt": "75021.0", "trial_number": "0", "skipped": "True", "complete": "False", "assignment": "3TYCR1GOTDRCCQYD1V64UK7OHTBZLQ", "start_time": "1.51753630786e+12", "human_length": "48", "nodes_expanded": "999", "instance": "prb54506", "end_time": "1.51753638288e+12", "optimal_length": "16", "subject": "A13BZCNJ0WR1T7"}
{"rt": "3744851.0", "trial_number": "0", "skipped": "True", "complete": "False", "assignment": "3O6CYIULEE9B1LG2ZMEYM39PDJKUWB", "start_time": "1.51753926952e+12", "human_length": "63", "nodes_expanded": "999", "instance": "prb54506", "end_time": "1.51754301437e+12", "optimal_length": "16", "subject": "A1EY7WONSYGBVY"}
{"rt": "47675.0", "trial_number": "0", "skipped": "True", "complete": "False", "assignment": "3H0W84IWBLAP4T2UASPNVMF5ZH7ER9", "start_time": "1.51755510393e+12", "human_length": "35", "nodes_expanded": "999", "instance": "prb54506", "end_time": "1.51755515161e+12", "optimal_length": "16", "subject": "A1AKX1C8GCVCTP"}
{"rt": "11768.0", "trial_number": "0", "skipped": "False", "complete": "False", "assignment": "3TPWUS5F8A9FFRZ2DVTYSXNJ6BWWC6", "start_time": "1.51794088226e+12", "human_length": "6", "nodes_expanded": "999", "instance": "prb54506", "end_time": "1.51794089403e+12", "optimal_length": "16", "subject": "A3GXC3VG37CQ3G"}
{"rt": "9795.0", "trial_number": "1", "skipped": "False", "complete": "False", "assignment": "3TPWUS5F8A9FFRZ2DVTYSXNJ6BWWC6", "start_time": "1.51794089777e+12", "human_length": "8", "nodes_expanded": "999", "instance": "prb54506", "end_time": "1.51794090756e+12", "optimal_length": "16", "subject": "A3GXC3VG37CQ3G"}
{"rt": "16246.0", "trial_number": "2", "skipped": "False", "complete": "False", "assignment": "3TPWUS5F8A9FFRZ2DVTYSXNJ6BWWC6", "start_time": "1.51794091332e+12", "human_length": "8", "nodes_expanded": "999", "instance": "prb54506", "end_time": "1.51794092957e+12", "optimal_length": "16", "subject": "A3GXC3VG37CQ3G"}
{"rt": "13979.0", "trial_number": "3", "skipped": "False", "complete": "False", "assignment": "3TPWUS5F8A9FFRZ2DVTYSXNJ6BWWC6", "start_time": "1.51794093288e+12", "human_length": "5", "nodes_expanded": "999", "instance": "prb54506", "end_time": "1.51794094686e+12", "optimal_length": "16", "subject": "A3GXC3VG37CQ3G"}
{"rt": "42002.0", "trial_number": "4", "skipped": "False", "complete": "False", "assignment": "3TPWUS5F8A9FFRZ2DVTYSXNJ6BWWC6", "start_time": "1.51794095462e+12", "human_length": "17", "nodes_expanded": "999", "instance": "prb54506", "end_time": "1.51794099662e+12", "optimal_length": "16", "subject": "A3GXC3VG37CQ3G"}
{"rt": "0.0", "trial_number": "5", "skipped": "False", "complete": "False", "assignment": "3TPWUS5F8A9FFRZ2DVTYSXNJ6BWWC6", "start_time": "1.51794100592e+12", "human_length": "1", "nodes_expanded": "999", "instance": "prb54506", "end_time": "1.51794100592e+12", "optimal_length": "16", "subject": "A3GXC3VG37CQ3G"}
{"rt": "5203.0", "trial_number": "6", "skipped": "False", "complete": "False", "assignment": "3TPWUS5F8A9FFRZ2DVTYSXNJ6BWWC6", "start_time": "1.51794100593e+12", "human_length": "3", "nodes_expanded": "999", "instance": "prb54506", "end_time": "1.51794101114e+12", "optimal_length": "16", "subject": "A3GXC3VG37CQ3G"}
{"rt": "36574.0", "trial_number": "7", "skipped": "False", "complete": "False", "assignment": "3TPWUS5F8A9FFRZ2DVTYSXNJ6BWWC6", "start_time": "1.5179410269e+12", "human_length": "7", "nodes_expanded": "999", "instance": "prb54506", "end_time": "1.51794106347e+12", "optimal_length": "16", "subject": "A3GXC3VG37CQ3G"}
{"rt": "45538.0", "trial_number": "8", "skipped": "False", "complete": "False", "assignment": "3TPWUS5F8A9FFRZ2DVTYSXNJ6BWWC6", "start_time": "1.51794106818e+12", "human_length": "19", "nodes_expanded": "999", "instance": "prb54506", "end_time": "1.51794111372e+12", "optimal_length": "16", "subject": "A3GXC3VG37CQ3G"}
{"rt": "29641.0", "trial_number": "9", "skipped": "False", "complete": "False", "assignment": "3TPWUS5F8A9FFRZ2DVTYSXNJ6BWWC6", "start_time": "1.51794112326e+12", "human_length": "9", "nodes_expanded": "999", "instance": "prb54506", "end_time": "1.5179411529e+12", "optimal_length": "16", "subject": "A3GXC3VG37CQ3G"}
{"rt": "31830.0", "trial_number": "10", "skipped": "False", "complete": "True", "assignment": "3TPWUS5F8A9FFRZ2DVTYSXNJ6BWWC6", "start_time": "1.51794116417e+12", "human_length": "22", "nodes_expanded": "999", "instance": "prb54506", "end_time": "1.517941196e+12", "optimal_length": "16", "subject": "A3GXC3VG37CQ3G"}
{"rt": "27562.0", "trial_number": "0", "skipped": "False", "complete": "False", "assignment": "34HJIJKLP64Z5YMIU6IKNXSH7PDV4I", "start_time": "1.51794079398e+12", "human_length": "10", "nodes_expanded": "999", "instance": "prb54506", "end_time": "1.51794082154e+12", "optimal_length": "16", "subject": "A3CTXNQ2GXIQSP"}
{"rt": "40308.0", "trial_number": "1", "skipped": "False", "complete": "False", "assignment": "34HJIJKLP64Z5YMIU6IKNXSH7PDV4I", "start_time": "1.51794082691e+12", "human_length": "16", "nodes_expanded": "999", "instance": "prb54506", "end_time": "1.51794086721e+12", "optimal_length": "16", "subject": "A3CTXNQ2GXIQSP"}
{"rt": "74010.0", "trial_number": "2", "skipped": "False", "complete": "True", "assignment": "34HJIJKLP64Z5YMIU6IKNXSH7PDV4I", "start_time": "1.51794087163e+12", "human_length": "33", "nodes_expanded": "999", "instance": "prb54506", "end_time": "1.51794094564e+12", "optimal_length": "16", "subject": "A3CTXNQ2GXIQSP"}
{"rt": "64932.0", "trial_number": "0", "skipped": "False", "complete": "False", "assignment": "3U84XHCDIDLGEIRSV37N835DV0K4ZS", "start_time": "1.51794087600e+12", "human_length": "25", "nodes_expanded": "999", "instance": "prb54506", "end_time": "1.51794094094e+12", "optimal_length": "16", "subject": "A8KX1HFH8NE2Q"}
{"rt": "78647.0", "trial_number": "1", "skipped": "True", "complete": "False", "assignment": "3U84XHCDIDLGEIRSV37N835DV0K4ZS", "start_time": "1.51794094898e+12", "human_length": "29", "nodes_expanded": "999", "instance": "prb54506", "end_time": "1.51794102763e+12", "optimal_length": "16", "subject": "A8KX1HFH8NE2Q"}
{"rt": "7592.0", "trial_number": "0", "skipped": "False", "complete": "False", "assignment": "3STRJBFXOXZ5687WA35LTWTS7QZKTT", "start_time": "1.51794602091e+12", "human_length": "6", "nodes_expanded": "999", "instance": "prb54506", "end_time": "1.51794602851e+12", "optimal_length": "16", "subject": "A3OB6REG5CGHK1"}
{"rt": "10469.0", "trial_number": "1", "skipped": "False", "complete": "False", "assignment": "3STRJBFXOXZ5687WA35LTWTS7QZKTT", "start_time": "1.51794602997e+12", "human_length": "7", "nodes_expanded": "999", "instance": "prb54506", "end_time": "1.51794604044e+12", "optimal_length": "16", "subject": "A3OB6REG5CGHK1"}
{"rt": "0.0", "trial_number": "2", "skipped": "False", "complete": "False", "assignment": "3STRJBFXOXZ5687WA35LTWTS7QZKTT", "start_time": "1.51794604621e+12", "human_length": "1", "nodes_expanded": "999", "instance": "prb54506", "end_time": "1.51794604621e+12", "optimal_length": "16", "subject": "A3OB6REG5CGHK1"}
{"rt": "0.0", "trial_number": "3", "skipped": "False", "complete": "False", "assignment": "3STRJBFXOXZ5687WA35LTWTS7QZKTT", "start_time": "1.51794604622e+12", "human_length": "1", "nodes_expanded": "999", "instance": "prb54506", "end_time": "1.51794604622e+12", "optimal_length": "16", "subject": "A3OB6REG5CGHK1"}
{"rt": "0.0", "trial_number": "4", "skipped": "False", "complete": "False", "assignment": "3STRJBFXOXZ5687WA35LTWTS7QZKTT", "start_time": "1.51794604624e+12", "human_length": "1", "nodes_expanded": "999", "instance": "prb54506", "end_time": "1.51794604624e+12", "optimal_length": "16", "subject": "A3OB6REG5CGHK1"}
{"rt": "2794.0", "trial_number": "5", "skipped": "False", "complete": "False", "assignment": "3STRJBFXOXZ5687WA35LTWTS7QZKTT", "start_time": "1.51794604625e+12", "human_length": "2", "nodes_expanded": "999", "instance": "prb54506", "end_time": "1.51794604904e+12", "optimal_length": "16", "subject": "A3OB6REG5CGHK1"}
{"rt": "27608.0", "trial_number": "6", "skipped": "True", "complete": "False", "assignment": "3STRJBFXOXZ5687WA35LTWTS7QZKTT", "start_time": "1.51794605082e+12", "human_length": "12", "nodes_expanded": "999", "instance": "prb54506", "end_time": "1.51794607843e+12", "optimal_length": "16", "subject": "A3OB6REG5CGHK1"}
{"rt": "52010.0", "trial_number": "0", "skipped": "False", "complete": "False", "assignment": "3JCG6DTRV4YEPVDZ64VNKDUEMPGQQ1", "start_time": "1.51794672281e+12", "human_length": "21", "nodes_expanded": "999", "instance": "prb54506", "end_time": "1.51794677482e+12", "optimal_length": "16", "subject": "A2V7KYLBCBTI3B"}
{"rt": "24939.0", "trial_number": "1", "skipped": "True", "complete": "False", "assignment": "3JCG6DTRV4YEPVDZ64VNKDUEMPGQQ1", "start_time": "1.51794678301e+12", "human_length": "7", "nodes_expanded": "999", "instance": "prb54506", "end_time": "1.51794680794e+12", "optimal_length": "16", "subject": "A2V7KYLBCBTI3B"}
{"rt": "76998.0", "trial_number": "0", "skipped": "False", "complete": "False", "assignment": "33PPO7FECWN7JOLBOAKUBCWTC0AIDL", "start_time": "1.51794843722e+12", "human_length": "33", "nodes_expanded": "999", "instance": "prb54506", "end_time": "1.51794851422e+12", "optimal_length": "16", "subject": "AXKM02NVXNGOM"}
{"rt": "69396.0", "trial_number": "1", "skipped": "False", "complete": "False", "assignment": "33PPO7FECWN7JOLBOAKUBCWTC0AIDL", "start_time": "1.51794852494e+12", "human_length": "20", "nodes_expanded": "999", "instance": "prb54506", "end_time": "1.51794859433e+12", "optimal_length": "16", "subject": "AXKM02NVXNGOM"}
{"rt": "59015.0", "trial_number": "2", "skipped": "False", "complete": "True", "assignment": "33PPO7FECWN7JOLBOAKUBCWTC0AIDL", "start_time": "1.51794859717e+12", "human_length": "25", "nodes_expanded": "999", "instance": "prb54506", "end_time": "1.51794865619e+12", "optimal_length": "16", "subject": "AXKM02NVXNGOM"}
{"rt": "0.0", "trial_number": "0", "skipped": "False", "complete": "False", "assignment": "3HYA4D452SR06NL5QDUSCWSXZI12FF", "start_time": "1.51795113672e+12", "human_length": "1", "nodes_expanded": "999", "instance": "prb54506", "end_time": "1.51795113672e+12", "optimal_length": "16", "subject": "A2OFWHV8IP7HK"}
{"rt": "6929.0", "trial_number": "1", "skipped": "False", "complete": "False", "assignment": "3HYA4D452SR06NL5QDUSCWSXZI12FF", "start_time": "1.51795113675e+12", "human_length": "2", "nodes_expanded": "999", "instance": "prb54506", "end_time": "1.51795114368e+12", "optimal_length": "16", "subject": "A2OFWHV8IP7HK"}
{"rt": "26863.0", "trial_number": "2", "skipped": "False", "complete": "False", "assignment": "3HYA4D452SR06NL5QDUSCWSXZI12FF", "start_time": "1.51795114566e+12", "human_length": "16", "nodes_expanded": "999", "instance": "prb54506", "end_time": "1.51795117252e+12", "optimal_length": "16", "subject": "A2OFWHV8IP7HK"}
{"rt": "0.0", "trial_number": "3", "skipped": "False", "complete": "False", "assignment": "3HYA4D452SR06NL5QDUSCWSXZI12FF", "start_time": "1.51795120328e+12", "human_length": "1", "nodes_expanded": "999", "instance": "prb54506", "end_time": "1.51795120328e+12", "optimal_length": "16", "subject": "A2OFWHV8IP7HK"}
{"rt": "0.0", "trial_number": "4", "skipped": "False", "complete": "False", "assignment": "3HYA4D452SR06NL5QDUSCWSXZI12FF", "start_time": "1.51795120334e+12", "human_length": "1", "nodes_expanded": "999", "instance": "prb54506", "end_time": "1.51795120334e+12", "optimal_length": "16", "subject": "A2OFWHV8IP7HK"}
{"rt": "0.0", "trial_number": "5", "skipped": "False", "complete": "False", "assignment": "3HYA4D452SR06NL5QDUSCWSXZI12FF", "start_time": "1.51795120336e+12", "human_length": "1", "nodes_expanded": "999", "instance": "prb54506", "end_time": "1.51795120336e+12", "optimal_length": "16", "subject": "A2OFWHV8IP7HK"}
{"rt": "0.0", "trial_number": "6", "skipped": "False", "complete": "False", "assignment": "3HYA4D452SR06NL5QDUSCWSXZI12FF", "start_time": "1.51795120337e+12", "human_length": "1", "nodes_expanded": "999", "instance": "prb54506", "end_time": "1.51795120337e+12", "optimal_length": "16", "subject": "A2OFWHV8IP7HK"}
{"rt": "0.0", "trial_number": "7", "skipped": "False", "complete": "False", "assignment": "3HYA4D452SR06NL5QDUSCWSXZI12FF", "start_time": "1.51795120338e+12", "human_length": "1", "nodes_expanded": "999", "instance": "prb54506", "end_time": "1.51795120338e+12", "optimal_length": "16", "subject": "A2OFWHV8IP7HK"}
{"rt": "77662.0", "trial_number": "8", "skipped": "True", "complete": "False", "assignment": "3HYA4D452SR06NL5QDUSCWSXZI12FF", "start_time": "1.51795122178e+12", "human_length": "31", "nodes_expanded": "999", "instance": "prb54506", "end_time": "1.51795129944e+12", "optimal_length": "16", "subject": "A2OFWHV8IP7HK"}
{"rt": "196067.0", "trial_number": "0", "skipped": "False", "complete": "True", "assignment": "3PB5A5BD0WED6OE679H5Q89HBDGG71", "start_time": "1.51795222944e+12", "human_length": "100", "nodes_expanded": "999", "instance": "prb54506", "end_time": "1.51795242551e+12", "optimal_length": "16", "subject": "A1USR9JCAMDGM3"}
{"rt": "41160.0", "trial_number": "0", "skipped": "False", "complete": "True", "assignment": "3R5F3LQFV3SKIB1AENMWM1BICT5OZB", "start_time": "1.51795825217e+12", "human_length": "29", "nodes_expanded": "999", "instance": "prb54506", "end_time": "1.51795829333e+12", "optimal_length": "16", "subject": "A1N1EF0MIRSEZZ"}
{"rt": "11597.0", "trial_number": "0", "skipped": "False", "complete": "False", "assignment": "33F859I567LE8WC74WB3GA7E94XBHW", "start_time": "1.51796718385e+12", "human_length": "8", "nodes_expanded": "999", "instance": "prb54506", "end_time": "1.51796719545e+12", "optimal_length": "16", "subject": "A1GQS6USF2JEYG"}
{"rt": "21292.0", "trial_number": "1", "skipped": "False", "complete": "False", "assignment": "33F859I567LE8WC74WB3GA7E94XBHW", "start_time": "1.51796719884e+12", "human_length": "12", "nodes_expanded": "999", "instance": "prb54506", "end_time": "1.51796722014e+12", "optimal_length": "16", "subject": "A1GQS6USF2JEYG"}
{"rt": "0.0", "trial_number": "2", "skipped": "False", "complete": "False", "assignment": "33F859I567LE8WC74WB3GA7E94XBHW", "start_time": "1.51796722292e+12", "human_length": "1", "nodes_expanded": "999", "instance": "prb54506", "end_time": "1.51796722292e+12", "optimal_length": "16", "subject": "A1GQS6USF2JEYG"}
{"rt": "20385.0", "trial_number": "3", "skipped": "False", "complete": "False", "assignment": "33F859I567LE8WC74WB3GA7E94XBHW", "start_time": "1.51796725149e+12", "human_length": "11", "nodes_expanded": "999", "instance": "prb54506", "end_time": "1.51796727187e+12", "optimal_length": "16", "subject": "A1GQS6USF2JEYG"}
{"rt": "93709.0", "trial_number": "4", "skipped": "False", "complete": "True", "assignment": "33F859I567LE8WC74WB3GA7E94XBHW", "start_time": "1.51796727359e+12", "human_length": "44", "nodes_expanded": "999", "instance": "prb54506", "end_time": "1.5179673673e+12", "optimal_length": "16", "subject": "A1GQS6USF2JEYG"}
{"rt": "161061.0", "trial_number": "0", "skipped": "False", "complete": "True", "assignment": "3IJXV6UZ1YR1KY4G6BFEG1DXR47RIC", "start_time": "1.51797251724e+12", "human_length": "125", "nodes_expanded": "999", "instance": "prb54506", "end_time": "1.51797267831e+12", "optimal_length": "16", "subject": "A18T3WK7J16C1B"}
{"rt": "66490.0", "trial_number": "0", "skipped": "False", "complete": "True", "assignment": "3FTF2T8WLSQDHTSZ1BJ7Q7MB14SW9H", "start_time": "1.51813792847e+12", "human_length": "35", "nodes_expanded": "999", "instance": "prb54506", "end_time": "1.51813799496e+12", "optimal_length": "16", "subject": "A1IUH9D7N69VS"}
{"rt": "86499.0", "trial_number": "0", "skipped": "True", "complete": "False", "assignment": "3XC1O3LBOTUGQEPEV3HM8W67X4RTLL", "start_time": "1.51813844856e+12", "human_length": "51", "nodes_expanded": "999", "instance": "prb54506", "end_time": "1.51813853506e+12", "optimal_length": "16", "subject": "A1ZTSCPETU3UJW"}
{"rt": "48777.0", "trial_number": "0", "skipped": "True", "complete": "False", "assignment": "3TAYZSBPLMG9ASQRWXURJVBCPLN2SH", "start_time": "1.51813638072e+12", "human_length": "22", "nodes_expanded": "999", "instance": "prb54506", "end_time": "1.5181364295e+12", "optimal_length": "16", "subject": "A2RCYLKY072XXO"}
{"rt": "48358.0", "trial_number": "0", "skipped": "False", "complete": "False", "assignment": "3ZSANO2JCGFTBM23KS9Y3E51YP4FSQ", "start_time": "1.51814165891e+12", "human_length": "40", "nodes_expanded": "999", "instance": "prb54506", "end_time": "1.51814170727e+12", "optimal_length": "16", "subject": "A1F42D4L22K5ND"}
{"rt": "21348.0", "trial_number": "1", "skipped": "True", "complete": "False", "assignment": "3ZSANO2JCGFTBM23KS9Y3E51YP4FSQ", "start_time": "1.51814171246e+12", "human_length": "14", "nodes_expanded": "999", "instance": "prb54506", "end_time": "1.51814173381e+12", "optimal_length": "16", "subject": "A1F42D4L22K5ND"}
{"rt": "15187.0", "trial_number": "0", "skipped": "False", "complete": "False", "assignment": "3TMFV4NEP9MD3O9PWJDTQBR0HZYW8I", "start_time": "1.51814542745e+12", "human_length": "8", "nodes_expanded": "999", "instance": "prb54506", "end_time": "1.51814544264e+12", "optimal_length": "16", "subject": "A3GOOI75XOF24V"}
{"rt": "82769.0", "trial_number": "1", "skipped": "False", "complete": "False", "assignment": "3TMFV4NEP9MD3O9PWJDTQBR0HZYW8I", "start_time": "1.51814545422e+12", "human_length": "49", "nodes_expanded": "999", "instance": "prb54506", "end_time": "1.51814553699e+12", "optimal_length": "16", "subject": "A3GOOI75XOF24V"}
{"rt": "183539.0", "trial_number": "2", "skipped": "False", "complete": "True", "assignment": "3TMFV4NEP9MD3O9PWJDTQBR0HZYW8I", "start_time": "1.51814554268e+12", "human_length": "50", "nodes_expanded": "999", "instance": "prb54506", "end_time": "1.51814572622e+12", "optimal_length": "16", "subject": "A3GOOI75XOF24V"}
{"rt": "19264.0", "trial_number": "0", "skipped": "True", "complete": "False", "assignment": "3XLBSAQ9Z5KDX59BX15UBFPNNHYZ7Q", "start_time": "1.51814610762e+12", "human_length": "18", "nodes_expanded": "999", "instance": "prb54506", "end_time": "1.51814612688e+12", "optimal_length": "16", "subject": "A1HFNOKU591WCY"}
{"rt": "39587.0", "trial_number": "0", "skipped": "False", "complete": "True", "assignment": "3FUI0JHJPY6UBT1VAI7VUX8S3KH33W", "start_time": "1.51815213793e+12", "human_length": "35", "nodes_expanded": "999", "instance": "prb54506", "end_time": "1.51815217752e+12", "optimal_length": "16", "subject": "A2QIZ31TMHU0GD"}
{"rt": "53087.0", "trial_number": "0", "skipped": "False", "complete": "False", "assignment": "3RUIQRXJBCWS71H9MUFVM5WQ3SCLLJ", "start_time": "1.51815723491e+12", "human_length": "29", "nodes_expanded": "999", "instance": "prb54506", "end_time": "1.518157288e+12", "optimal_length": "16", "subject": "A1SJRFJWFXSDH4"}
{"rt": "73464.0", "trial_number": "1", "skipped": "True", "complete": "False", "assignment": "3RUIQRXJBCWS71H9MUFVM5WQ3SCLLJ", "start_time": "1.51815729355e+12", "human_length": "32", "nodes_expanded": "999", "instance": "prb54506", "end_time": "1.51815736702e+12", "optimal_length": "16", "subject": "A1SJRFJWFXSDH4"}
{"rt": "31983.0", "trial_number": "0", "skipped": "False", "complete": "False", "assignment": "37QW5D2ZRHUKW7SGCE3STMOFBMK8SX", "start_time": "1.51815748687e+12", "human_length": "15", "nodes_expanded": "999", "instance": "prb54506", "end_time": "1.51815751886e+12", "optimal_length": "16", "subject": "AMW2XLD9443OH"}
{"rt": "25771.0", "trial_number": "1", "skipped": "False", "complete": "False", "assignment": "37QW5D2ZRHUKW7SGCE3STMOFBMK8SX", "start_time": "1.51815753374e+12", "human_length": "7", "nodes_expanded": "999", "instance": "prb54506", "end_time": "1.51815755951e+12", "optimal_length": "16", "subject": "AMW2XLD9443OH"}
{"rt": "72483.0", "trial_number": "2", "skipped": "False", "complete": "False", "assignment": "37QW5D2ZRHUKW7SGCE3STMOFBMK8SX", "start_time": "1.51815756888e+12", "human_length": "45", "nodes_expanded": "999", "instance": "prb54506", "end_time": "1.51815764136e+12", "optimal_length": "16", "subject": "AMW2XLD9443OH"}
{"rt": "41954.0", "trial_number": "3", "skipped": "False", "complete": "False", "assignment": "37QW5D2ZRHUKW7SGCE3STMOFBMK8SX", "start_time": "1.51815771817e+12", "human_length": "10", "nodes_expanded": "999", "instance": "prb54506", "end_time": "1.51815776012e+12", "optimal_length": "16", "subject": "AMW2XLD9443OH"}
{"rt": "44680.0", "trial_number": "4", "skipped": "False", "complete": "False", "assignment": "37QW5D2ZRHUKW7SGCE3STMOFBMK8SX", "start_time": "1.51815777912e+12", "human_length": "15", "nodes_expanded": "999", "instance": "prb54506", "end_time": "1.5181578238e+12", "optimal_length": "16", "subject": "AMW2XLD9443OH"}
{"rt": "156074.0", "trial_number": "5", "skipped": "True", "complete": "False", "assignment": "37QW5D2ZRHUKW7SGCE3STMOFBMK8SX", "start_time": "1.51815784703e+12", "human_length": "73", "nodes_expanded": "999", "instance": "prb54506", "end_time": "1.5181580031e+12", "optimal_length": "16", "subject": "AMW2XLD9443OH"}
{"rt": "32691.0", "trial_number": "0", "skipped": "False", "complete": "False", "assignment": "3M0BCWMB8W4W5M7WZVX3HDH1P53WB1", "start_time": "1.51815961648e+12", "human_length": "26", "nodes_expanded": "999", "instance": "prb54506", "end_time": "1.51815964917e+12", "optimal_length": "16", "subject": "A53S7J4JGWG38"}
{"rt": "34008.0", "trial_number": "1", "skipped": "False", "complete": "False", "assignment": "3M0BCWMB8W4W5M7WZVX3HDH1P53WB1", "start_time": "1.51815965254e+12", "human_length": "14", "nodes_expanded": "999", "instance": "prb54506", "end_time": "1.51815968654e+12", "optimal_length": "16", "subject": "A53S7J4JGWG38"}
{"rt": "30698.0", "trial_number": "2", "skipped": "False", "complete": "False", "assignment": "3M0BCWMB8W4W5M7WZVX3HDH1P53WB1", "start_time": "1.5181596911e+12", "human_length": "17", "nodes_expanded": "999", "instance": "prb54506", "end_time": "1.5181597218e+12", "optimal_length": "16", "subject": "A53S7J4JGWG38"}
{"rt": "29798.0", "trial_number": "3", "skipped": "True", "complete": "False", "assignment": "3M0BCWMB8W4W5M7WZVX3HDH1P53WB1", "start_time": "1.51815972606e+12", "human_length": "15", "nodes_expanded": "999", "instance": "prb54506", "end_time": "1.51815975586e+12", "optimal_length": "16", "subject": "A53S7J4JGWG38"}
{"rt": "124012.0", "trial_number": "0", "skipped": "False", "complete": "True", "assignment": "3IXEICO793RY7TM78ZBKJDOA7ADT6Q", "start_time": "1.51816894552e+12", "human_length": "81", "nodes_expanded": "999", "instance": "prb54506", "end_time": "1.51816906953e+12", "optimal_length": "16", "subject": "ALH1K6ZAQQMN7"}
