{"rt": "30288.0", "trial_number": "0", "skipped": "False", "complete": "True", "assignment": "3AZHRG4CU5SYU12YRVPCSZALW5003R", "start_time": "1.51630780787e+12", "human_length": "39", "nodes_expanded": "999", "instance": "prb68514", "end_time": "1.51630783816e+12", "optimal_length": "14", "subject": "ARWF605I7RWM7"}
{"rt": "19353.0", "trial_number": "0", "skipped": "False", "complete": "True", "assignment": "3PMBY0YE28B43VMUKKJ6EDF85RV9C8", "start_time": "1.51638750693e+12", "human_length": "17", "nodes_expanded": "999", "instance": "prb68514", "end_time": "1.51638752628e+12", "optimal_length": "14", "subject": "A191V7PT3DQKDP"}
{"rt": "39131.0", "trial_number": "0", "skipped": "False", "complete": "True", "assignment": "3TYCR1GOTDRCCQYD1V64UK7OE48LZS", "start_time": "1.51639049106e+12", "human_length": "23", "nodes_expanded": "999", "instance": "prb68514", "end_time": "1.51639053019e+12", "optimal_length": "14", "subject": "A2MYB6MLQW0IGN"}
{"rt": "65118.0", "trial_number": "0", "skipped": "False", "complete": "True", "assignment": "34BBWHLWHBJ6SUL255PK30LEGY5IWG", "start_time": "1.516393976e+12", "human_length": "16", "nodes_expanded": "999", "instance": "prb68514", "end_time": "1.51639404112e+12", "optimal_length": "14", "subject": "A214HWAW1PYWO8"}
{"rt": "64062.0", "trial_number": "0", "skipped": "False", "complete": "False", "assignment": "3VE8AYVF8N5BS2NU6U3TMN50JMNF8V", "start_time": "1.51673670697e+12", "human_length": "25", "nodes_expanded": "999", "instance": "prb68514", "end_time": "1.51673677103e+12", "optimal_length": "14", "subject": "A18QU0YQB6Q8DF"}
{"rt": "0.0", "trial_number": "1", "skipped": "False", "complete": "False", "assignment": "3VE8AYVF8N5BS2NU6U3TMN50JMNF8V", "start_time": "1.51673677424e+12", "human_length": "1", "nodes_expanded": "999", "instance": "prb68514", "end_time": "1.51673677424e+12", "optimal_length": "14", "subject": "A18QU0YQB6Q8DF"}
{"rt": "0.0", "trial_number": "2", "skipped": "False", "complete": "False", "assignment": "3VE8AYVF8N5BS2NU6U3TMN50JMNF8V", "start_time": "1.51673670697e+12", "human_length": "1", "nodes_expanded": "999", "instance": "prb68514", "end_time": "1.51673670697e+12", "optimal_length": "14", "subject": "A18QU0YQB6Q8DF"}
{"rt": "0.0", "trial_number": "3", "skipped": "False", "complete": "False", "assignment": "3VE8AYVF8N5BS2NU6U3TMN50JMNF8V", "start_time": "1.51673677424e+12", "human_length": "1", "nodes_expanded": "999", "instance": "prb68514", "end_time": "1.51673677424e+12", "optimal_length": "14", "subject": "A18QU0YQB6Q8DF"}
{"rt": "0.0", "trial_number": "4", "skipped": "False", "complete": "False", "assignment": "3VE8AYVF8N5BS2NU6U3TMN50JMNF8V", "start_time": "1.51673670697e+12", "human_length": "1", "nodes_expanded": "999", "instance": "prb68514", "end_time": "1.51673670697e+12", "optimal_length": "14", "subject": "A18QU0YQB6Q8DF"}
{"rt": "9565.0", "trial_number": "5", "skipped": "True", "complete": "False", "assignment": "3VE8AYVF8N5BS2NU6U3TMN50JMNF8V", "start_time": "1.51673677424e+12", "human_length": "58", "nodes_expanded": "999", "instance": "prb68514", "end_time": "1.51673678381e+12", "optimal_length": "14", "subject": "A18QU0YQB6Q8DF"}
{"rt": "0.0", "trial_number": "0", "skipped": "False", "complete": "False", "assignment": "3X87C8JFV7JQ2BSCY8KSFD9F2ILSQK", "start_time": "1.51674011896e+12", "human_length": "1", "nodes_expanded": "999", "instance": "prb68514", "end_time": "1.51674011896e+12", "optimal_length": "14", "subject": "A3Q0XAGQ7TD7MP"}
{"rt": "0.0", "trial_number": "1", "skipped": "False", "complete": "False", "assignment": "3X87C8JFV7JQ2BSCY8KSFD9F2ILSQK", "start_time": "1.51674011896e+12", "human_length": "1", "nodes_expanded": "999", "instance": "prb68514", "end_time": "1.51674011896e+12", "optimal_length": "14", "subject": "A3Q0XAGQ7TD7MP"}
{"rt": "75906.0", "trial_number": "2", "skipped": "False", "complete": "True", "assignment": "3X87C8JFV7JQ2BSCY8KSFD9F2ILSQK", "start_time": "1.51674011896e+12", "human_length": "33", "nodes_expanded": "999", "instance": "prb68514", "end_time": "1.51674019487e+12", "optimal_length": "14", "subject": "A3Q0XAGQ7TD7MP"}
{"rt": "35332.0", "trial_number": "3", "skipped": "False", "complete": "True", "assignment": "3GLB5JMZFY3TNXFGYMKRQ0JDXNTDGZ", "start_time": "1.51794591992e+12", "human_length": "18", "nodes_expanded": "999", "instance": "prb68514", "end_time": "1.51794595525e+12", "optimal_length": "14", "subject": "A3Q0XAGQ7TD7MP"}
{"rt": "0.0", "trial_number": "0", "skipped": "False", "complete": "False", "assignment": "3WSELTNVR4AZUVYAYCSWZIQW0J4ATB", "start_time": "1.51673790632e+12", "human_length": "1", "nodes_expanded": "999", "instance": "prb68514", "end_time": "1.51673790632e+12", "optimal_length": "14", "subject": "A2TQNX64349OZ9"}
{"rt": "0.0", "trial_number": "1", "skipped": "False", "complete": "False", "assignment": "3WSELTNVR4AZUVYAYCSWZIQW0J4ATB", "start_time": "1.51673790632e+12", "human_length": "1", "nodes_expanded": "999", "instance": "prb68514", "end_time": "1.51673790632e+12", "optimal_length": "14", "subject": "A2TQNX64349OZ9"}
{"rt": "17926.0", "trial_number": "2", "skipped": "False", "complete": "True", "assignment": "3WSELTNVR4AZUVYAYCSWZIQW0J4ATB", "start_time": "1.51673790632e+12", "human_length": "18", "nodes_expanded": "999", "instance": "prb68514", "end_time": "1.51673792424e+12", "optimal_length": "14", "subject": "A2TQNX64349OZ9"}
{"rt": "0.0", "trial_number": "0", "skipped": "False", "complete": "False", "assignment": "3X87C8JFV7JQ2BSCY8KSFD9F2ILSQK", "start_time": "1.51674444624e+12", "human_length": "1", "nodes_expanded": "999", "instance": "prb68514", "end_time": "1.51674444624e+12", "optimal_length": "14", "subject": "A21S7MA9DCW95E"}
{"rt": "0.0", "trial_number": "1", "skipped": "False", "complete": "False", "assignment": "3X87C8JFV7JQ2BSCY8KSFD9F2ILSQK", "start_time": "1.51674444624e+12", "human_length": "1", "nodes_expanded": "999", "instance": "prb68514", "end_time": "1.51674444624e+12", "optimal_length": "14", "subject": "A21S7MA9DCW95E"}
{"rt": "60302.0", "trial_number": "2", "skipped": "False", "complete": "True", "assignment": "3X87C8JFV7JQ2BSCY8KSFD9F2ILSQK", "start_time": "1.51674444624e+12", "human_length": "24", "nodes_expanded": "999", "instance": "prb68514", "end_time": "1.51674450654e+12", "optimal_length": "14", "subject": "A21S7MA9DCW95E"}
{"rt": "48769.0", "trial_number": "0", "skipped": "False", "complete": "False", "assignment": "3IJXV6UZ1YR1KY4G6BFEG1DXP7SRI1", "start_time": "1.51675009263e+12", "human_length": "32", "nodes_expanded": "999", "instance": "prb68514", "end_time": "1.5167501414e+12", "optimal_length": "14", "subject": "A2RTJ6BDY0DZVZ"}
{"rt": "0.0", "trial_number": "1", "skipped": "False", "complete": "False", "assignment": "3IJXV6UZ1YR1KY4G6BFEG1DXP7SRI1", "start_time": "1.51675014361e+12", "human_length": "1", "nodes_expanded": "999", "instance": "prb68514", "end_time": "1.51675014361e+12", "optimal_length": "14", "subject": "A2RTJ6BDY0DZVZ"}
{"rt": "0.0", "trial_number": "2", "skipped": "False", "complete": "False", "assignment": "3IJXV6UZ1YR1KY4G6BFEG1DXP7SRI1", "start_time": "1.51675009263e+12", "human_length": "1", "nodes_expanded": "999", "instance": "prb68514", "end_time": "1.51675009263e+12", "optimal_length": "14", "subject": "A2RTJ6BDY0DZVZ"}
{"rt": "0.0", "trial_number": "3", "skipped": "False", "complete": "False", "assignment": "3IJXV6UZ1YR1KY4G6BFEG1DXP7SRI1", "start_time": "1.51675014361e+12", "human_length": "1", "nodes_expanded": "999", "instance": "prb68514", "end_time": "1.51675014361e+12", "optimal_length": "14", "subject": "A2RTJ6BDY0DZVZ"}
{"rt": "0.0", "trial_number": "4", "skipped": "False", "complete": "False", "assignment": "3IJXV6UZ1YR1KY4G6BFEG1DXP7SRI1", "start_time": "1.51675009263e+12", "human_length": "1", "nodes_expanded": "999", "instance": "prb68514", "end_time": "1.51675009263e+12", "optimal_length": "14", "subject": "A2RTJ6BDY0DZVZ"}
{"rt": "34518.0", "trial_number": "5", "skipped": "False", "complete": "True", "assignment": "3IJXV6UZ1YR1KY4G6BFEG1DXP7SRI1", "start_time": "1.51675014361e+12", "human_length": "17", "nodes_expanded": "999", "instance": "prb68514", "end_time": "1.51675017813e+12", "optimal_length": "14", "subject": "A2RTJ6BDY0DZVZ"}
{"rt": "0.0", "trial_number": "0", "skipped": "False", "complete": "False", "assignment": "3I2PTA7R3U2SESF4TZBQORI5LSJQKK", "start_time": "1.51675980898e+12", "human_length": "1", "nodes_expanded": "999", "instance": "prb68514", "end_time": "1.51675980898e+12", "optimal_length": "14", "subject": "A3NMQ3019X6YE0"}
{"rt": "0.0", "trial_number": "1", "skipped": "False", "complete": "False", "assignment": "3I2PTA7R3U2SESF4TZBQORI5LSJQKK", "start_time": "1.51675980898e+12", "human_length": "1", "nodes_expanded": "999", "instance": "prb68514", "end_time": "1.51675980898e+12", "optimal_length": "14", "subject": "A3NMQ3019X6YE0"}
{"rt": "129624.0", "trial_number": "2", "skipped": "False", "complete": "True", "assignment": "3I2PTA7R3U2SESF4TZBQORI5LSJQKK", "start_time": "1.51675980898e+12", "human_length": "65", "nodes_expanded": "999", "instance": "prb68514", "end_time": "1.51675993860e+12", "optimal_length": "14", "subject": "A3NMQ3019X6YE0"}
{"rt": "101065.0", "trial_number": "3", "skipped": "False", "complete": "True", "assignment": "3V5Q80FXIYZ5QB5C6ITQBN30WY823U", "start_time": "1.51753304246e+12", "human_length": "53", "nodes_expanded": "999", "instance": "prb68514", "end_time": "1.51753314352e+12", "optimal_length": "14", "subject": "A3NMQ3019X6YE0"}
{"rt": "0.0", "trial_number": "0", "skipped": "False", "complete": "False", "assignment": "3X4MXAO0BHWJLTOLVSJTHSM54OHWRG", "start_time": "1.51682270256e+12", "human_length": "1", "nodes_expanded": "999", "instance": "prb68514", "end_time": "1.51682270256e+12", "optimal_length": "14", "subject": "A2IBQA01NR5N76"}
{"rt": "54619.0", "trial_number": "1", "skipped": "False", "complete": "True", "assignment": "3X4MXAO0BHWJLTOLVSJTHSM54OHWRG", "start_time": "1.51682270256e+12", "human_length": "39", "nodes_expanded": "999", "instance": "prb68514", "end_time": "1.51682275718e+12", "optimal_length": "14", "subject": "A2IBQA01NR5N76"}
{"rt": "54619.0", "trial_number": "0", "skipped": "False", "complete": "True", "assignment": "3X4MXAO0BHWJLTOLVSJTHSM54OHWRG", "start_time": "1.51682270256e+12", "human_length": "39", "nodes_expanded": "999", "instance": "prb68514", "end_time": "1.51682275718e+12", "optimal_length": "14", "subject": "A2IBQA01NR5N76"}
{"rt": "0.0", "trial_number": "0", "skipped": "False", "complete": "False", "assignment": "3IHR8NYAM89M0EPM8U9LH53ZJDTP4U", "start_time": "1.51682606218e+12", "human_length": "1", "nodes_expanded": "999", "instance": "prb68514", "end_time": "1.51682606218e+12", "optimal_length": "14", "subject": "A23437BMZ5T1FH"}
{"rt": "16212.0", "trial_number": "1", "skipped": "True", "complete": "False", "assignment": "3IHR8NYAM89M0EPM8U9LH53ZJDTP4U", "start_time": "1.51682606218e+12", "human_length": "29", "nodes_expanded": "999", "instance": "prb68514", "end_time": "1.5168260784e+12", "optimal_length": "14", "subject": "A23437BMZ5T1FH"}
{"rt": "126074.0", "trial_number": "0", "skipped": "False", "complete": "True", "assignment": "37WLF8U1WQYZ4AWKEQXSIM1ELVEK6W", "start_time": "1.51683248791e+12", "human_length": "66", "nodes_expanded": "999", "instance": "prb68514", "end_time": "1.51683261398e+12", "optimal_length": "14", "subject": "A2EPBSY0VPI38S"}
{"rt": "26226.0", "trial_number": "0", "skipped": "False", "complete": "True", "assignment": "3YW4XOSQKRTI0K0Z2YPDTDJVFABU1I", "start_time": "1.51683242596e+12", "human_length": "27", "nodes_expanded": "999", "instance": "prb68514", "end_time": "1.51683245218e+12", "optimal_length": "14", "subject": "A1LR0VQIHQUJAM"}
{"rt": "64062.0", "trial_number": "0", "skipped": "False", "complete": "False", "assignment": "3VE8AYVF8N5BS2NU6U3TMN50JMNF8V", "start_time": "1.51673670697e+12", "human_length": "25", "nodes_expanded": "999", "instance": "prb68514", "end_time": "1.51673677103e+12", "optimal_length": "14", "subject": "A18QU0YQB6Q8DF"}
{"rt": "12383.0", "trial_number": "1", "skipped": "True", "complete": "False", "assignment": "3VE8AYVF8N5BS2NU6U3TMN50JMNF8V", "start_time": "1.51673677424e+12", "human_length": "7", "nodes_expanded": "999", "instance": "prb68514", "end_time": "1.51673678663e+12", "optimal_length": "14", "subject": "A18QU0YQB6Q8DF"}
{"rt": "75906.0", "trial_number": "0", "skipped": "False", "complete": "True", "assignment": "3X87C8JFV7JQ2BSCY8KSFD9F2ILSQK", "start_time": "1.51674011896e+12", "human_length": "33", "nodes_expanded": "999", "instance": "prb68514", "end_time": "1.51674019487e+12", "optimal_length": "14", "subject": "A3Q0XAGQ7TD7MP"}
{"rt": "35332.0", "trial_number": "1", "skipped": "False", "complete": "True", "assignment": "3GLB5JMZFY3TNXFGYMKRQ0JDXNTDGZ", "start_time": "1.51794591992e+12", "human_length": "18", "nodes_expanded": "999", "instance": "prb68514", "end_time": "1.51794595525e+12", "optimal_length": "14", "subject": "A3Q0XAGQ7TD7MP"}
{"rt": "17926.0", "trial_number": "0", "skipped": "False", "complete": "True", "assignment": "3WSELTNVR4AZUVYAYCSWZIQW0J4ATB", "start_time": "1.51673790632e+12", "human_length": "18", "nodes_expanded": "999", "instance": "prb68514", "end_time": "1.51673792424e+12", "optimal_length": "14", "subject": "A2TQNX64349OZ9"}
{"rt": "60302.0", "trial_number": "0", "skipped": "False", "complete": "True", "assignment": "3X87C8JFV7JQ2BSCY8KSFD9F2ILSQK", "start_time": "1.51674444624e+12", "human_length": "24", "nodes_expanded": "999", "instance": "prb68514", "end_time": "1.51674450654e+12", "optimal_length": "14", "subject": "A21S7MA9DCW95E"}
{"rt": "48769.0", "trial_number": "0", "skipped": "False", "complete": "False", "assignment": "3IJXV6UZ1YR1KY4G6BFEG1DXP7SRI1", "start_time": "1.51675009263e+12", "human_length": "32", "nodes_expanded": "999", "instance": "prb68514", "end_time": "1.5167501414e+12", "optimal_length": "14", "subject": "A2RTJ6BDY0DZVZ"}
{"rt": "34518.0", "trial_number": "1", "skipped": "False", "complete": "True", "assignment": "3IJXV6UZ1YR1KY4G6BFEG1DXP7SRI1", "start_time": "1.51675014361e+12", "human_length": "17", "nodes_expanded": "999", "instance": "prb68514", "end_time": "1.51675017813e+12", "optimal_length": "14", "subject": "A2RTJ6BDY0DZVZ"}
{"rt": "129624.0", "trial_number": "0", "skipped": "False", "complete": "True", "assignment": "3I2PTA7R3U2SESF4TZBQORI5LSJQKK", "start_time": "1.51675980898e+12", "human_length": "65", "nodes_expanded": "999", "instance": "prb68514", "end_time": "1.51675993860e+12", "optimal_length": "14", "subject": "A3NMQ3019X6YE0"}
{"rt": "101065.0", "trial_number": "1", "skipped": "False", "complete": "True", "assignment": "3V5Q80FXIYZ5QB5C6ITQBN30WY823U", "start_time": "1.51753304246e+12", "human_length": "53", "nodes_expanded": "999", "instance": "prb68514", "end_time": "1.51753314352e+12", "optimal_length": "14", "subject": "A3NMQ3019X6YE0"}
{"rt": "20143.0", "trial_number": "0", "skipped": "False", "complete": "True", "assignment": "3TS1AR6UQRM7SOIBWPBN8N9589Y7FV", "start_time": "1.51684044636e+12", "human_length": "21", "nodes_expanded": "999", "instance": "prb68514", "end_time": "1.5168404665e+12", "optimal_length": "14", "subject": "A1F4N58CAX8IMK"}
{"rt": "19461.0", "trial_number": "1", "skipped": "False", "complete": "True", "assignment": "35DR22AR5ES6RR89U7EJ1DXW91AX3P", "start_time": "1.51795377676e+12", "human_length": "16", "nodes_expanded": "999", "instance": "prb68514", "end_time": "1.51795379622e+12", "optimal_length": "14", "subject": "A1F4N58CAX8IMK"}
{"rt": "33127.0", "trial_number": "0", "skipped": "False", "complete": "True", "assignment": "3M0BCWMB8W4W5M7WZVX3HDH1M3FBWL", "start_time": "1.51683919218e+12", "human_length": "16", "nodes_expanded": "999", "instance": "prb68514", "end_time": "1.51683922531e+12", "optimal_length": "14", "subject": "A1XDMS0KFSF5JW"}
{"rt": "78329.0", "trial_number": "0", "skipped": "False", "complete": "True", "assignment": "3TS1AR6UQRM7SOIBWPBN8N9589Y7FV", "start_time": "1.51684287334e+12", "human_length": "35", "nodes_expanded": "999", "instance": "prb68514", "end_time": "1.51684295167e+12", "optimal_length": "14", "subject": "A15FXHC1CVNW31"}
{"rt": "29976.0", "trial_number": "0", "skipped": "False", "complete": "True", "assignment": "31LM9EDVOM0C0BWUVMJXJINN3QPJNI", "start_time": "1.51752323879e+12", "human_length": "25", "nodes_expanded": "999", "instance": "prb68514", "end_time": "1.51752326877e+12", "optimal_length": "14", "subject": "A1NT8BT94ME6F5"}
{"rt": "47219.0", "trial_number": "0", "skipped": "False", "complete": "True", "assignment": "37TD41K0AIHM8AITTQJXV8KY05QCSB", "start_time": "1.51752314812e+12", "human_length": "24", "nodes_expanded": "999", "instance": "prb68514", "end_time": "1.51752319534e+12", "optimal_length": "14", "subject": "A30KYQGABO7JER"}
{"rt": "48062.0", "trial_number": "0", "skipped": "False", "complete": "True", "assignment": "3TYCR1GOTDRCCQYD1V64UK7OHTBZLQ", "start_time": "1.51753662339e+12", "human_length": "40", "nodes_expanded": "999", "instance": "prb68514", "end_time": "1.51753667145e+12", "optimal_length": "14", "subject": "A13BZCNJ0WR1T7"}
{"rt": "39139.0", "trial_number": "0", "skipped": "False", "complete": "False", "assignment": "3H0W84IWBLAP4T2UASPNVMF5ZH7ER9", "start_time": "1.51755291819e+12", "human_length": "19", "nodes_expanded": "999", "instance": "prb68514", "end_time": "1.51755295733e+12", "optimal_length": "14", "subject": "A1AKX1C8GCVCTP"}
{"rt": "11157.0", "trial_number": "1", "skipped": "False", "complete": "False", "assignment": "3H0W84IWBLAP4T2UASPNVMF5ZH7ER9", "start_time": "1.51755296024e+12", "human_length": "9", "nodes_expanded": "999", "instance": "prb68514", "end_time": "1.5175529714e+12", "optimal_length": "14", "subject": "A1AKX1C8GCVCTP"}
{"rt": "34150.0", "trial_number": "2", "skipped": "False", "complete": "True", "assignment": "3H0W84IWBLAP4T2UASPNVMF5ZH7ER9", "start_time": "1.51755298216e+12", "human_length": "19", "nodes_expanded": "999", "instance": "prb68514", "end_time": "1.51755301631e+12", "optimal_length": "14", "subject": "A1AKX1C8GCVCTP"}
{"rt": "50365.0", "trial_number": "0", "skipped": "False", "complete": "True", "assignment": "3TPWUS5F8A9FFRZ2DVTYSXNJ6BWWC6", "start_time": "1.51794038475e+12", "human_length": "31", "nodes_expanded": "999", "instance": "prb68514", "end_time": "1.51794043512e+12", "optimal_length": "14", "subject": "A3GXC3VG37CQ3G"}
{"rt": "59256.0", "trial_number": "0", "skipped": "False", "complete": "False", "assignment": "3IAS3U3I0GOAT69PLB8WT61CKJ22BO", "start_time": "1.51793993204e+12", "human_length": "34", "nodes_expanded": "999", "instance": "prb68514", "end_time": "1.5179399913e+12", "optimal_length": "14", "subject": "A2C84POENS2UNY"}
{"rt": "71280.0", "trial_number": "1", "skipped": "True", "complete": "False", "assignment": "3IAS3U3I0GOAT69PLB8WT61CKJ22BO", "start_time": "1.51793999438e+12", "human_length": "22", "nodes_expanded": "999", "instance": "prb68514", "end_time": "1.51794006566e+12", "optimal_length": "14", "subject": "A2C84POENS2UNY"}
{"rt": "29455.0", "trial_number": "0", "skipped": "False", "complete": "True", "assignment": "34HJIJKLP64Z5YMIU6IKNXSH7PDV4I", "start_time": "1.51794179742e+12", "human_length": "19", "nodes_expanded": "999", "instance": "prb68514", "end_time": "1.51794182687e+12", "optimal_length": "14", "subject": "A3CTXNQ2GXIQSP"}
{"rt": "76606.0", "trial_number": "0", "skipped": "False", "complete": "True", "assignment": "3TXD01ZLD5PZSJXIPG8FRBQYTI9U4X", "start_time": "1.51794183425e+12", "human_length": "34", "nodes_expanded": "999", "instance": "prb68514", "end_time": "1.51794191085e+12", "optimal_length": "14", "subject": "A3BPRPN10HJD4B"}
{"rt": "59570.0", "trial_number": "0", "skipped": "False", "complete": "False", "assignment": "30IQTZXKALEAAZ9CBKW0ZFZP6O5X07", "start_time": "1.51794559856e+12", "human_length": "31", "nodes_expanded": "999", "instance": "prb68514", "end_time": "1.51794565813e+12", "optimal_length": "14", "subject": "A23XJ8I86R0O3B"}
{"rt": "23658.0", "trial_number": "1", "skipped": "True", "complete": "False", "assignment": "30IQTZXKALEAAZ9CBKW0ZFZP6O5X07", "start_time": "1.51794566959e+12", "human_length": "15", "nodes_expanded": "999", "instance": "prb68514", "end_time": "1.51794569324e+12", "optimal_length": "14", "subject": "A23XJ8I86R0O3B"}
{"rt": "13603.0", "trial_number": "0", "skipped": "False", "complete": "False", "assignment": "3STRJBFXOXZ5687WA35LTWTS7QZKTT", "start_time": "1.51794585231e+12", "human_length": "9", "nodes_expanded": "999", "instance": "prb68514", "end_time": "1.51794586591e+12", "optimal_length": "14", "subject": "A3OB6REG5CGHK1"}
{"rt": "21845.0", "trial_number": "1", "skipped": "False", "complete": "True", "assignment": "3STRJBFXOXZ5687WA35LTWTS7QZKTT", "start_time": "1.51794586796e+12", "human_length": "16", "nodes_expanded": "999", "instance": "prb68514", "end_time": "1.5179458898e+12", "optimal_length": "14", "subject": "A3OB6REG5CGHK1"}
{"rt": "40249.0", "trial_number": "0", "skipped": "False", "complete": "False", "assignment": "3JCG6DTRV4YEPVDZ64VNKDUEMPGQQ1", "start_time": "1.51794709891e+12", "human_length": "8", "nodes_expanded": "999", "instance": "prb68514", "end_time": "1.51794713916e+12", "optimal_length": "14", "subject": "A2V7KYLBCBTI3B"}
{"rt": "40016.0", "trial_number": "1", "skipped": "False", "complete": "True", "assignment": "3JCG6DTRV4YEPVDZ64VNKDUEMPGQQ1", "start_time": "1.5179471488e+12", "human_length": "16", "nodes_expanded": "999", "instance": "prb68514", "end_time": "1.51794718882e+12", "optimal_length": "14", "subject": "A2V7KYLBCBTI3B"}
{"rt": "40700.0", "trial_number": "0", "skipped": "False", "complete": "True", "assignment": "33PPO7FECWN7JOLBOAKUBCWTC0AIDL", "start_time": "1.51795080778e+12", "human_length": "20", "nodes_expanded": "999", "instance": "prb68514", "end_time": "1.51795084848e+12", "optimal_length": "14", "subject": "AXKM02NVXNGOM"}
{"rt": "52311.0", "trial_number": "0", "skipped": "False", "complete": "True", "assignment": "3PB5A5BD0WED6OE679H5Q89HBDGG71", "start_time": "1.51795111941e+12", "human_length": "29", "nodes_expanded": "999", "instance": "prb68514", "end_time": "1.51795117172e+12", "optimal_length": "14", "subject": "A1USR9JCAMDGM3"}
{"rt": "0.0", "trial_number": "0", "skipped": "False", "complete": "False", "assignment": "3R5F3LQFV3SKIB1AENMWM1BICT5OZB", "start_time": "1.5179527384e+12", "human_length": "1", "nodes_expanded": "999", "instance": "prb68514", "end_time": "1.5179527384e+12", "optimal_length": "14", "subject": "A2YLK83DQ6PA5Y"}
{"rt": "0.0", "trial_number": "1", "skipped": "False", "complete": "False", "assignment": "3R5F3LQFV3SKIB1AENMWM1BICT5OZB", "start_time": "1.5179527384e+12", "human_length": "1", "nodes_expanded": "999", "instance": "prb68514", "end_time": "1.5179527384e+12", "optimal_length": "14", "subject": "A2YLK83DQ6PA5Y"}
{"rt": "0.0", "trial_number": "2", "skipped": "False", "complete": "False", "assignment": "3R5F3LQFV3SKIB1AENMWM1BICT5OZB", "start_time": "1.51795273841e+12", "human_length": "1", "nodes_expanded": "999", "instance": "prb68514", "end_time": "1.51795273841e+12", "optimal_length": "14", "subject": "A2YLK83DQ6PA5Y"}
{"rt": "0.0", "trial_number": "3", "skipped": "False", "complete": "False", "assignment": "3R5F3LQFV3SKIB1AENMWM1BICT5OZB", "start_time": "1.51795273842e+12", "human_length": "1", "nodes_expanded": "999", "instance": "prb68514", "end_time": "1.51795273842e+12", "optimal_length": "14", "subject": "A2YLK83DQ6PA5Y"}
{"rt": "12855.0", "trial_number": "4", "skipped": "False", "complete": "False", "assignment": "3R5F3LQFV3SKIB1AENMWM1BICT5OZB", "start_time": "1.5179527396e+12", "human_length": "4", "nodes_expanded": "999", "instance": "prb68514", "end_time": "1.51795275245e+12", "optimal_length": "14", "subject": "A2YLK83DQ6PA5Y"}
{"rt": "0.0", "trial_number": "5", "skipped": "False", "complete": "False", "assignment": "3R5F3LQFV3SKIB1AENMWM1BICT5OZB", "start_time": "1.51795277577e+12", "human_length": "1", "nodes_expanded": "999", "instance": "prb68514", "end_time": "1.51795277577e+12", "optimal_length": "14", "subject": "A2YLK83DQ6PA5Y"}
{"rt": "19638.0", "trial_number": "6", "skipped": "True", "complete": "False", "assignment": "3R5F3LQFV3SKIB1AENMWM1BICT5OZB", "start_time": "1.51795277577e+12", "human_length": "6", "nodes_expanded": "999", "instance": "prb68514", "end_time": "1.51795279541e+12", "optimal_length": "14", "subject": "A2YLK83DQ6PA5Y"}
{"rt": "30416.0", "trial_number": "0", "skipped": "True", "complete": "False", "assignment": "3R5F3LQFV3SKIB1AENMWM1BICT5OZB", "start_time": "1.51795720614e+12", "human_length": "24", "nodes_expanded": "999", "instance": "prb68514", "end_time": "1.51795723656e+12", "optimal_length": "14", "subject": "A1N1EF0MIRSEZZ"}
{"rt": "48671.0", "trial_number": "0", "skipped": "False", "complete": "True", "assignment": "33F859I567LE8WC74WB3GA7E94XBHW", "start_time": "1.51796876604e+12", "human_length": "41", "nodes_expanded": "999", "instance": "prb68514", "end_time": "1.51796881471e+12", "optimal_length": "14", "subject": "A1GQS6USF2JEYG"}
{"rt": "36014.0", "trial_number": "0", "skipped": "False", "complete": "True", "assignment": "3IJXV6UZ1YR1KY4G6BFEG1DXR47RIC", "start_time": "1.51797159418e+12", "human_length": "35", "nodes_expanded": "999", "instance": "prb68514", "end_time": "1.51797163019e+12", "optimal_length": "14", "subject": "A18T3WK7J16C1B"}
{"rt": "20527.0", "trial_number": "0", "skipped": "False", "complete": "True", "assignment": "3FTF2T8WLSQDHTSZ1BJ7Q7MB14SW9H", "start_time": "1.51813750941e+12", "human_length": "16", "nodes_expanded": "999", "instance": "prb68514", "end_time": "1.51813752994e+12", "optimal_length": "14", "subject": "A1IUH9D7N69VS"}
{"rt": "22063.0", "trial_number": "0", "skipped": "True", "complete": "False", "assignment": "3XC1O3LBOTUGQEPEV3HM8W67X4RTLL", "start_time": "1.51813889729e+12", "human_length": "13", "nodes_expanded": "999", "instance": "prb68514", "end_time": "1.51813891935e+12", "optimal_length": "14", "subject": "A1ZTSCPETU3UJW"}
{"rt": "27233.0", "trial_number": "0", "skipped": "True", "complete": "False", "assignment": "3TAYZSBPLMG9ASQRWXURJVBCPLN2SH", "start_time": "1.51813677806e+12", "human_length": "14", "nodes_expanded": "999", "instance": "prb68514", "end_time": "1.51813680529e+12", "optimal_length": "14", "subject": "A2RCYLKY072XXO"}
{"rt": "32224.0", "trial_number": "0", "skipped": "False", "complete": "False", "assignment": "3SB5N7Y3O4CZODEMMAWWBTZU4C90GB", "start_time": "1.51813905054e+12", "human_length": "24", "nodes_expanded": "999", "instance": "prb68514", "end_time": "1.51813908277e+12", "optimal_length": "14", "subject": "A1RVMADIZE3BXK"}
{"rt": "45877.0", "trial_number": "1", "skipped": "False", "complete": "False", "assignment": "3SB5N7Y3O4CZODEMMAWWBTZU4C90GB", "start_time": "1.5181390907e+12", "human_length": "31", "nodes_expanded": "999", "instance": "prb68514", "end_time": "1.51813913657e+12", "optimal_length": "14", "subject": "A1RVMADIZE3BXK"}
{"rt": "15886.0", "trial_number": "2", "skipped": "False", "complete": "False", "assignment": "3SB5N7Y3O4CZODEMMAWWBTZU4C90GB", "start_time": "1.51813913982e+12", "human_length": "5", "nodes_expanded": "999", "instance": "prb68514", "end_time": "1.51813915571e+12", "optimal_length": "14", "subject": "A1RVMADIZE3BXK"}
{"rt": "67606.0", "trial_number": "3", "skipped": "False", "complete": "False", "assignment": "3SB5N7Y3O4CZODEMMAWWBTZU4C90GB", "start_time": "1.51813916191e+12", "human_length": "35", "nodes_expanded": "999", "instance": "prb68514", "end_time": "1.51813922952e+12", "optimal_length": "14", "subject": "A1RVMADIZE3BXK"}
{"rt": "24665.0", "trial_number": "4", "skipped": "False", "complete": "True", "assignment": "3SB5N7Y3O4CZODEMMAWWBTZU4C90GB", "start_time": "1.5181392319e+12", "human_length": "15", "nodes_expanded": "999", "instance": "prb68514", "end_time": "1.51813925657e+12", "optimal_length": "14", "subject": "A1RVMADIZE3BXK"}
{"rt": "46717.0", "trial_number": "0", "skipped": "False", "complete": "True", "assignment": "3ZSANO2JCGFTBM23KS9Y3E51YP4FSQ", "start_time": "1.51814196886e+12", "human_length": "43", "nodes_expanded": "999", "instance": "prb68514", "end_time": "1.51814201558e+12", "optimal_length": "14", "subject": "A1F42D4L22K5ND"}
{"rt": "207026.0", "trial_number": "0", "skipped": "False", "complete": "True", "assignment": "3TMFV4NEP9MD3O9PWJDTQBR0HZYW8I", "start_time": "1.51814450579e+12", "human_length": "110", "nodes_expanded": "999", "instance": "prb68514", "end_time": "1.51814471282e+12", "optimal_length": "14", "subject": "A3GOOI75XOF24V"}
{"rt": "43904.0", "trial_number": "0", "skipped": "True", "complete": "False", "assignment": "3XLBSAQ9Z5KDX59BX15UBFPNNHYZ7Q", "start_time": "1.5181455906e+12", "human_length": "31", "nodes_expanded": "999", "instance": "prb68514", "end_time": "1.5181456345e+12", "optimal_length": "14", "subject": "A1HFNOKU591WCY"}
{"rt": "35216.0", "trial_number": "0", "skipped": "False", "complete": "True", "assignment": "3FUI0JHJPY6UBT1VAI7VUX8S3KH33W", "start_time": "1.51815053508e+12", "human_length": "23", "nodes_expanded": "999", "instance": "prb68514", "end_time": "1.51815057029e+12", "optimal_length": "14", "subject": "A2QIZ31TMHU0GD"}
{"rt": "33334.0", "trial_number": "0", "skipped": "False", "complete": "False", "assignment": "3M0BCWMB8W4W5M7WZVX3HDH1P53WB1", "start_time": "1.51815918596e+12", "human_length": "20", "nodes_expanded": "999", "instance": "prb68514", "end_time": "1.51815921929e+12", "optimal_length": "14", "subject": "A53S7J4JGWG38"}
{"rt": "44091.0", "trial_number": "1", "skipped": "False", "complete": "True", "assignment": "3M0BCWMB8W4W5M7WZVX3HDH1P53WB1", "start_time": "1.51815922112e+12", "human_length": "23", "nodes_expanded": "999", "instance": "prb68514", "end_time": "1.51815926522e+12", "optimal_length": "14", "subject": "A53S7J4JGWG38"}
{"rt": "21538.0", "trial_number": "0", "skipped": "False", "complete": "True", "assignment": "3IXEICO793RY7TM78ZBKJDOA7ADT6Q", "start_time": "1.51816774367e+12", "human_length": "16", "nodes_expanded": "999", "instance": "prb68514", "end_time": "1.51816776521e+12", "optimal_length": "14", "subject": "ALH1K6ZAQQMN7"}
