{"rt": "14733.0", "trial_number": "0", "skipped": "False", "complete": "True", "assignment": "3AZHRG4CU5SYU12YRVPCSZALW5003R", "start_time": "1.51630727216e+12", "human_length": "15", "nodes_expanded": "999", "instance": "prb6671", "end_time": "1.5163072869e+12", "optimal_length": "14", "subject": "ARWF605I7RWM7"}
{"rt": "56447.0", "trial_number": "0", "skipped": "False", "complete": "True", "assignment": "3ZV9H2YQQEFR2R3JK2IXZUJPXAF3WW", "start_time": "1.51630677616e+12", "human_length": "24", "nodes_expanded": "999", "instance": "prb6671", "end_time": "1.51630683260e+12", "optimal_length": "14", "subject": "A289D98Z4GAZ28"}
{"rt": "48233.0", "trial_number": "0", "skipped": "False", "complete": "True", "assignment": "3PMBY0YE28B43VMUKKJ6EDF85RV9C8", "start_time": "1.51638742241e+12", "human_length": "16", "nodes_expanded": "999", "instance": "prb6671", "end_time": "1.51638747064e+12", "optimal_length": "14", "subject": "A191V7PT3DQKDP"}
{"rt": "15236.0", "trial_number": "0", "skipped": "False", "complete": "True", "assignment": "34BBWHLWHBJ6SUL255PK30LEGY5IWG", "start_time": "1.51639291631e+12", "human_length": "14", "nodes_expanded": "999", "instance": "prb6671", "end_time": "1.51639293154e+12", "optimal_length": "14", "subject": "A214HWAW1PYWO8"}
{"rt": "48490.0", "trial_number": "0", "skipped": "False", "complete": "False", "assignment": "3VE8AYVF8N5BS2NU6U3TMN50JMNF8V", "start_time": "1.5167365484e+12", "human_length": "21", "nodes_expanded": "999", "instance": "prb6671", "end_time": "1.51673659689e+12", "optimal_length": "14", "subject": "A18QU0YQB6Q8DF"}
{"rt": "0.0", "trial_number": "1", "skipped": "False", "complete": "False", "assignment": "3VE8AYVF8N5BS2NU6U3TMN50JMNF8V", "start_time": "1.51673660947e+12", "human_length": "1", "nodes_expanded": "999", "instance": "prb6671", "end_time": "1.51673660947e+12", "optimal_length": "14", "subject": "A18QU0YQB6Q8DF"}
{"rt": "0.0", "trial_number": "2", "skipped": "False", "complete": "False", "assignment": "3VE8AYVF8N5BS2NU6U3TMN50JMNF8V", "start_time": "1.5167365484e+12", "human_length": "1", "nodes_expanded": "999", "instance": "prb6671", "end_time": "1.5167365484e+12", "optimal_length": "14", "subject": "A18QU0YQB6Q8DF"}
{"rt": "0.0", "trial_number": "3", "skipped": "False", "complete": "False", "assignment": "3VE8AYVF8N5BS2NU6U3TMN50JMNF8V", "start_time": "1.51673660947e+12", "human_length": "1", "nodes_expanded": "999", "instance": "prb6671", "end_time": "1.51673660947e+12", "optimal_length": "14", "subject": "A18QU0YQB6Q8DF"}
{"rt": "0.0", "trial_number": "4", "skipped": "False", "complete": "False", "assignment": "3VE8AYVF8N5BS2NU6U3TMN50JMNF8V", "start_time": "1.5167365484e+12", "human_length": "1", "nodes_expanded": "999", "instance": "prb6671", "end_time": "1.5167365484e+12", "optimal_length": "14", "subject": "A18QU0YQB6Q8DF"}
{"rt": "34413.0", "trial_number": "5", "skipped": "False", "complete": "True", "assignment": "3VE8AYVF8N5BS2NU6U3TMN50JMNF8V", "start_time": "1.51673660947e+12", "human_length": "16", "nodes_expanded": "999", "instance": "prb6671", "end_time": "1.51673664388e+12", "optimal_length": "14", "subject": "A18QU0YQB6Q8DF"}
{"rt": "0.0", "trial_number": "0", "skipped": "False", "complete": "False", "assignment": "3X87C8JFV7JQ2BSCY8KSFD9F2ILSQK", "start_time": "1.51674075429e+12", "human_length": "1", "nodes_expanded": "999", "instance": "prb6671", "end_time": "1.51674075429e+12", "optimal_length": "14", "subject": "A3Q0XAGQ7TD7MP"}
{"rt": "0.0", "trial_number": "1", "skipped": "False", "complete": "False", "assignment": "3X87C8JFV7JQ2BSCY8KSFD9F2ILSQK", "start_time": "1.51674075429e+12", "human_length": "1", "nodes_expanded": "999", "instance": "prb6671", "end_time": "1.51674075429e+12", "optimal_length": "14", "subject": "A3Q0XAGQ7TD7MP"}
{"rt": "57653.0", "trial_number": "2", "skipped": "False", "complete": "True", "assignment": "3X87C8JFV7JQ2BSCY8KSFD9F2ILSQK", "start_time": "1.51674075429e+12", "human_length": "26", "nodes_expanded": "999", "instance": "prb6671", "end_time": "1.51674081194e+12", "optimal_length": "14", "subject": "A3Q0XAGQ7TD7MP"}
{"rt": "43692.0", "trial_number": "3", "skipped": "False", "complete": "True", "assignment": "3GLB5JMZFY3TNXFGYMKRQ0JDXNTDGZ", "start_time": "1.51794846297e+12", "human_length": "15", "nodes_expanded": "999", "instance": "prb6671", "end_time": "1.51794850666e+12", "optimal_length": "14", "subject": "A3Q0XAGQ7TD7MP"}
{"rt": "0.0", "trial_number": "0", "skipped": "False", "complete": "False", "assignment": "3WSELTNVR4AZUVYAYCSWZIQW0J4ATB", "start_time": "1.51673982716e+12", "human_length": "1", "nodes_expanded": "999", "instance": "prb6671", "end_time": "1.51673982716e+12", "optimal_length": "14", "subject": "A2TQNX64349OZ9"}
{"rt": "0.0", "trial_number": "1", "skipped": "False", "complete": "False", "assignment": "3WSELTNVR4AZUVYAYCSWZIQW0J4ATB", "start_time": "1.51673982716e+12", "human_length": "1", "nodes_expanded": "999", "instance": "prb6671", "end_time": "1.51673982716e+12", "optimal_length": "14", "subject": "A2TQNX64349OZ9"}
{"rt": "51676.0", "trial_number": "2", "skipped": "False", "complete": "True", "assignment": "3WSELTNVR4AZUVYAYCSWZIQW0J4ATB", "start_time": "1.51673982716e+12", "human_length": "43", "nodes_expanded": "999", "instance": "prb6671", "end_time": "1.51673987883e+12", "optimal_length": "14", "subject": "A2TQNX64349OZ9"}
{"rt": "0.0", "trial_number": "0", "skipped": "False", "complete": "False", "assignment": "3IJXV6UZ1YR1KY4G6BFEG1DXP7SRI1", "start_time": "1.51675018868e+12", "human_length": "1", "nodes_expanded": "999", "instance": "prb6671", "end_time": "1.51675018868e+12", "optimal_length": "14", "subject": "A2RTJ6BDY0DZVZ"}
{"rt": "0.0", "trial_number": "1", "skipped": "False", "complete": "False", "assignment": "3IJXV6UZ1YR1KY4G6BFEG1DXP7SRI1", "start_time": "1.51675018868e+12", "human_length": "1", "nodes_expanded": "999", "instance": "prb6671", "end_time": "1.51675018868e+12", "optimal_length": "14", "subject": "A2RTJ6BDY0DZVZ"}
{"rt": "59479.0", "trial_number": "2", "skipped": "False", "complete": "True", "assignment": "3IJXV6UZ1YR1KY4G6BFEG1DXP7SRI1", "start_time": "1.51675018868e+12", "human_length": "29", "nodes_expanded": "999", "instance": "prb6671", "end_time": "1.51675024816e+12", "optimal_length": "14", "subject": "A2RTJ6BDY0DZVZ"}
{"rt": "0.0", "trial_number": "0", "skipped": "False", "complete": "False", "assignment": "3I2PTA7R3U2SESF4TZBQORI5LSJQKK", "start_time": "1.51676048885e+12", "human_length": "1", "nodes_expanded": "999", "instance": "prb6671", "end_time": "1.51676048885e+12", "optimal_length": "14", "subject": "A3NMQ3019X6YE0"}
{"rt": "0.0", "trial_number": "1", "skipped": "False", "complete": "False", "assignment": "3I2PTA7R3U2SESF4TZBQORI5LSJQKK", "start_time": "1.51676048885e+12", "human_length": "1", "nodes_expanded": "999", "instance": "prb6671", "end_time": "1.51676048885e+12", "optimal_length": "14", "subject": "A3NMQ3019X6YE0"}
{"rt": "34974.0", "trial_number": "2", "skipped": "False", "complete": "True", "assignment": "3I2PTA7R3U2SESF4TZBQORI5LSJQKK", "start_time": "1.51676048885e+12", "human_length": "19", "nodes_expanded": "999", "instance": "prb6671", "end_time": "1.51676052383e+12", "optimal_length": "14", "subject": "A3NMQ3019X6YE0"}
{"rt": "0.0", "trial_number": "0", "skipped": "False", "complete": "False", "assignment": "3X4MXAO0BHWJLTOLVSJTHSM54OHWRG", "start_time": "1.5168235878e+12", "human_length": "1", "nodes_expanded": "999", "instance": "prb6671", "end_time": "1.5168235878e+12", "optimal_length": "14", "subject": "A2IBQA01NR5N76"}
{"rt": "17161.0", "trial_number": "1", "skipped": "False", "complete": "True", "assignment": "3X4MXAO0BHWJLTOLVSJTHSM54OHWRG", "start_time": "1.5168235878e+12", "human_length": "15", "nodes_expanded": "999", "instance": "prb6671", "end_time": "1.51682360496e+12", "optimal_length": "14", "subject": "A2IBQA01NR5N76"}
{"rt": "17161.0", "trial_number": "0", "skipped": "False", "complete": "True", "assignment": "3X4MXAO0BHWJLTOLVSJTHSM54OHWRG", "start_time": "1.5168235878e+12", "human_length": "15", "nodes_expanded": "999", "instance": "prb6671", "end_time": "1.51682360496e+12", "optimal_length": "14", "subject": "A2IBQA01NR5N76"}
{"rt": "0.0", "trial_number": "0", "skipped": "False", "complete": "False", "assignment": "3IHR8NYAM89M0EPM8U9LH53ZJDTP4U", "start_time": "1.516825393e+12", "human_length": "1", "nodes_expanded": "999", "instance": "prb6671", "end_time": "1.516825393e+12", "optimal_length": "14", "subject": "A23437BMZ5T1FH"}
{"rt": "21984.0", "trial_number": "1", "skipped": "False", "complete": "True", "assignment": "3IHR8NYAM89M0EPM8U9LH53ZJDTP4U", "start_time": "1.516825393e+12", "human_length": "20", "nodes_expanded": "999", "instance": "prb6671", "end_time": "1.51682541498e+12", "optimal_length": "14", "subject": "A23437BMZ5T1FH"}
{"rt": "52722.0", "trial_number": "0", "skipped": "False", "complete": "True", "assignment": "37WLF8U1WQYZ4AWKEQXSIM1ELVEK6W", "start_time": "1.51683198049e+12", "human_length": "28", "nodes_expanded": "999", "instance": "prb6671", "end_time": "1.51683203321e+12", "optimal_length": "14", "subject": "A2EPBSY0VPI38S"}
{"rt": "0.0", "trial_number": "0", "skipped": "False", "complete": "False", "assignment": "3YW4XOSQKRTI0K0Z2YPDTDJVFABU1I", "start_time": "1.51683061277e+12", "human_length": "1", "nodes_expanded": "999", "instance": "prb6671", "end_time": "1.51683061277e+12", "optimal_length": "14", "subject": "A1LR0VQIHQUJAM"}
{"rt": "57719.0", "trial_number": "1", "skipped": "False", "complete": "True", "assignment": "3YW4XOSQKRTI0K0Z2YPDTDJVFABU1I", "start_time": "1.51683061277e+12", "human_length": "24", "nodes_expanded": "999", "instance": "prb6671", "end_time": "1.51683067049e+12", "optimal_length": "14", "subject": "A1LR0VQIHQUJAM"}
{"rt": "48490.0", "trial_number": "0", "skipped": "False", "complete": "False", "assignment": "3VE8AYVF8N5BS2NU6U3TMN50JMNF8V", "start_time": "1.5167365484e+12", "human_length": "21", "nodes_expanded": "999", "instance": "prb6671", "end_time": "1.51673659689e+12", "optimal_length": "14", "subject": "A18QU0YQB6Q8DF"}
{"rt": "34413.0", "trial_number": "1", "skipped": "False", "complete": "True", "assignment": "3VE8AYVF8N5BS2NU6U3TMN50JMNF8V", "start_time": "1.51673660947e+12", "human_length": "16", "nodes_expanded": "999", "instance": "prb6671", "end_time": "1.51673664388e+12", "optimal_length": "14", "subject": "A18QU0YQB6Q8DF"}
{"rt": "57653.0", "trial_number": "0", "skipped": "False", "complete": "True", "assignment": "3X87C8JFV7JQ2BSCY8KSFD9F2ILSQK", "start_time": "1.51674075429e+12", "human_length": "26", "nodes_expanded": "999", "instance": "prb6671", "end_time": "1.51674081194e+12", "optimal_length": "14", "subject": "A3Q0XAGQ7TD7MP"}
{"rt": "43692.0", "trial_number": "1", "skipped": "False", "complete": "True", "assignment": "3GLB5JMZFY3TNXFGYMKRQ0JDXNTDGZ", "start_time": "1.51794846297e+12", "human_length": "15", "nodes_expanded": "999", "instance": "prb6671", "end_time": "1.51794850666e+12", "optimal_length": "14", "subject": "A3Q0XAGQ7TD7MP"}
{"rt": "51676.0", "trial_number": "0", "skipped": "False", "complete": "True", "assignment": "3WSELTNVR4AZUVYAYCSWZIQW0J4ATB", "start_time": "1.51673982716e+12", "human_length": "43", "nodes_expanded": "999", "instance": "prb6671", "end_time": "1.51673987883e+12", "optimal_length": "14", "subject": "A2TQNX64349OZ9"}
{"rt": "59479.0", "trial_number": "0", "skipped": "False", "complete": "True", "assignment": "3IJXV6UZ1YR1KY4G6BFEG1DXP7SRI1", "start_time": "1.51675018868e+12", "human_length": "29", "nodes_expanded": "999", "instance": "prb6671", "end_time": "1.51675024816e+12", "optimal_length": "14", "subject": "A2RTJ6BDY0DZVZ"}
{"rt": "34974.0", "trial_number": "0", "skipped": "False", "complete": "True", "assignment": "3I2PTA7R3U2SESF4TZBQORI5LSJQKK", "start_time": "1.51676048885e+12", "human_length": "19", "nodes_expanded": "999", "instance": "prb6671", "end_time": "1.51676052383e+12", "optimal_length": "14", "subject": "A3NMQ3019X6YE0"}
{"rt": "59865.0", "trial_number": "0", "skipped": "False", "complete": "True", "assignment": "3TS1AR6UQRM7SOIBWPBN8N9589Y7FV", "start_time": "1.51683776688e+12", "human_length": "39", "nodes_expanded": "999", "instance": "prb6671", "end_time": "1.51683782674e+12", "optimal_length": "14", "subject": "A1F4N58CAX8IMK"}
{"rt": "17078.0", "trial_number": "1", "skipped": "False", "complete": "True", "assignment": "35DR22AR5ES6RR89U7EJ1DXW91AX3P", "start_time": "1.51795246473e+12", "human_length": "14", "nodes_expanded": "999", "instance": "prb6671", "end_time": "1.51795248181e+12", "optimal_length": "14", "subject": "A1F4N58CAX8IMK"}
{"rt": "25254.0", "trial_number": "0", "skipped": "False", "complete": "True", "assignment": "31LM9EDVOM0C0BWUVMJXJINN3QPJNI", "start_time": "1.51752321273e+12", "human_length": "17", "nodes_expanded": "999", "instance": "prb6671", "end_time": "1.51752323798e+12", "optimal_length": "14", "subject": "A1NT8BT94ME6F5"}
{"rt": "51022.0", "trial_number": "0", "skipped": "False", "complete": "True", "assignment": "37TD41K0AIHM8AITTQJXV8KY05QCSB", "start_time": "1.51752439274e+12", "human_length": "22", "nodes_expanded": "999", "instance": "prb6671", "end_time": "1.51752444376e+12", "optimal_length": "14", "subject": "A30KYQGABO7JER"}
{"rt": "55328.0", "trial_number": "0", "skipped": "False", "complete": "True", "assignment": "36H9ULYP6320CJJDXY0KBDEE1Z3JFB", "start_time": "1.51753360484e+12", "human_length": "26", "nodes_expanded": "999", "instance": "prb6671", "end_time": "1.51753366017e+12", "optimal_length": "14", "subject": "AN098C29EGJ6"}
{"rt": "19654.0", "trial_number": "0", "skipped": "False", "complete": "True", "assignment": "3TYCR1GOTDRCCQYD1V64UK7OHTBZLQ", "start_time": "1.51753583066e+12", "human_length": "15", "nodes_expanded": "999", "instance": "prb6671", "end_time": "1.51753585031e+12", "optimal_length": "14", "subject": "A13BZCNJ0WR1T7"}
{"rt": "43250.0", "trial_number": "0", "skipped": "False", "complete": "True", "assignment": "3H0W84IWBLAP4T2UASPNVMF5ZH7ER9", "start_time": "1.51755196934e+12", "human_length": "20", "nodes_expanded": "999", "instance": "prb6671", "end_time": "1.5175520126e+12", "optimal_length": "14", "subject": "A1AKX1C8GCVCTP"}
{"rt": "22978.0", "trial_number": "0", "skipped": "False", "complete": "True", "assignment": "3TPWUS5F8A9FFRZ2DVTYSXNJ6BWWC6", "start_time": "1.51794121056e+12", "human_length": "14", "nodes_expanded": "999", "instance": "prb6671", "end_time": "1.51794123353e+12", "optimal_length": "14", "subject": "A3GXC3VG37CQ3G"}
{"rt": "46999.0", "trial_number": "0", "skipped": "False", "complete": "True", "assignment": "3IAS3U3I0GOAT69PLB8WT61CKJ22BO", "start_time": "1.5179395808e+12", "human_length": "21", "nodes_expanded": "999", "instance": "prb6671", "end_time": "1.5179396278e+12", "optimal_length": "14", "subject": "A2C84POENS2UNY"}
{"rt": "31104.0", "trial_number": "0", "skipped": "False", "complete": "True", "assignment": "34HJIJKLP64Z5YMIU6IKNXSH7PDV4I", "start_time": "1.51794123476e+12", "human_length": "17", "nodes_expanded": "999", "instance": "prb6671", "end_time": "1.51794126586e+12", "optimal_length": "14", "subject": "A3CTXNQ2GXIQSP"}
{"rt": "48447.0", "trial_number": "0", "skipped": "False", "complete": "True", "assignment": "33PPO7FECWN7JOLBOAKUBCWTC0AIDL", "start_time": "1.51794087084e+12", "human_length": "31", "nodes_expanded": "999", "instance": "prb6671", "end_time": "1.51794091929e+12", "optimal_length": "14", "subject": "AB5IVPS4OP9M8"}
{"rt": "99826.0", "trial_number": "0", "skipped": "False", "complete": "False", "assignment": "30IQTZXKALEAAZ9CBKW0ZFZP6O5X07", "start_time": "1.51794319441e+12", "human_length": "37", "nodes_expanded": "999", "instance": "prb6671", "end_time": "1.51794329423e+12", "optimal_length": "14", "subject": "A23XJ8I86R0O3B"}
{"rt": "44888.0", "trial_number": "1", "skipped": "True", "complete": "False", "assignment": "30IQTZXKALEAAZ9CBKW0ZFZP6O5X07", "start_time": "1.51794329748e+12", "human_length": "12", "nodes_expanded": "999", "instance": "prb6671", "end_time": "1.51794334237e+12", "optimal_length": "14", "subject": "A23XJ8I86R0O3B"}
{"rt": "14819.0", "trial_number": "0", "skipped": "False", "complete": "False", "assignment": "3STRJBFXOXZ5687WA35LTWTS7QZKTT", "start_time": "1.51794334943e+12", "human_length": "7", "nodes_expanded": "999", "instance": "prb6671", "end_time": "1.51794336425e+12", "optimal_length": "14", "subject": "A3OB6REG5CGHK1"}
{"rt": "54023.0", "trial_number": "1", "skipped": "False", "complete": "False", "assignment": "3STRJBFXOXZ5687WA35LTWTS7QZKTT", "start_time": "1.51794336542e+12", "human_length": "16", "nodes_expanded": "999", "instance": "prb6671", "end_time": "1.51794341944e+12", "optimal_length": "14", "subject": "A3OB6REG5CGHK1"}
{"rt": "19549.0", "trial_number": "2", "skipped": "False", "complete": "False", "assignment": "3STRJBFXOXZ5687WA35LTWTS7QZKTT", "start_time": "1.51794342128e+12", "human_length": "10", "nodes_expanded": "999", "instance": "prb6671", "end_time": "1.51794344083e+12", "optimal_length": "14", "subject": "A3OB6REG5CGHK1"}
{"rt": "35105.0", "trial_number": "3", "skipped": "False", "complete": "True", "assignment": "3STRJBFXOXZ5687WA35LTWTS7QZKTT", "start_time": "1.51794344344e+12", "human_length": "15", "nodes_expanded": "999", "instance": "prb6671", "end_time": "1.51794347854e+12", "optimal_length": "14", "subject": "A3OB6REG5CGHK1"}
{"rt": "47957.0", "trial_number": "0", "skipped": "False", "complete": "False", "assignment": "3JCG6DTRV4YEPVDZ64VNKDUEMPGQQ1", "start_time": "1.51794681265e+12", "human_length": "17", "nodes_expanded": "999", "instance": "prb6671", "end_time": "1.5179468606e+12", "optimal_length": "14", "subject": "A2V7KYLBCBTI3B"}
{"rt": "40072.0", "trial_number": "1", "skipped": "False", "complete": "True", "assignment": "3JCG6DTRV4YEPVDZ64VNKDUEMPGQQ1", "start_time": "1.51794686291e+12", "human_length": "14", "nodes_expanded": "999", "instance": "prb6671", "end_time": "1.51794690298e+12", "optimal_length": "14", "subject": "A2V7KYLBCBTI3B"}
{"rt": "38820.0", "trial_number": "0", "skipped": "False", "complete": "True", "assignment": "33PPO7FECWN7JOLBOAKUBCWTC0AIDL", "start_time": "1.51795004009e+12", "human_length": "16", "nodes_expanded": "999", "instance": "prb6671", "end_time": "1.51795007891e+12", "optimal_length": "14", "subject": "AXKM02NVXNGOM"}
{"rt": "40526.0", "trial_number": "0", "skipped": "False", "complete": "True", "assignment": "3PB5A5BD0WED6OE679H5Q89HBDGG71", "start_time": "1.51795057008e+12", "human_length": "29", "nodes_expanded": "999", "instance": "prb6671", "end_time": "1.51795061060e+12", "optimal_length": "14", "subject": "A1USR9JCAMDGM3"}
{"rt": "45929.0", "trial_number": "0", "skipped": "False", "complete": "True", "assignment": "3R5F3LQFV3SKIB1AENMWM1BICT5OZB", "start_time": "1.51795760777e+12", "human_length": "23", "nodes_expanded": "999", "instance": "prb6671", "end_time": "1.5179576537e+12", "optimal_length": "14", "subject": "A1N1EF0MIRSEZZ"}
{"rt": "44403.0", "trial_number": "0", "skipped": "False", "complete": "True", "assignment": "33F859I567LE8WC74WB3GA7E94XBHW", "start_time": "1.51796978705e+12", "human_length": "36", "nodes_expanded": "999", "instance": "prb6671", "end_time": "1.51796983145e+12", "optimal_length": "14", "subject": "A1GQS6USF2JEYG"}
{"rt": "35378.0", "trial_number": "0", "skipped": "False", "complete": "True", "assignment": "3IJXV6UZ1YR1KY4G6BFEG1DXR47RIC", "start_time": "1.51797341972e+12", "human_length": "34", "nodes_expanded": "999", "instance": "prb6671", "end_time": "1.5179734551e+12", "optimal_length": "14", "subject": "A18T3WK7J16C1B"}
{"rt": "16893.0", "trial_number": "0", "skipped": "False", "complete": "True", "assignment": "3FTF2T8WLSQDHTSZ1BJ7Q7MB14SW9H", "start_time": "1.51813722304e+12", "human_length": "14", "nodes_expanded": "999", "instance": "prb6671", "end_time": "1.51813723994e+12", "optimal_length": "14", "subject": "A1IUH9D7N69VS"}
{"rt": "13002.0", "trial_number": "0", "skipped": "False", "complete": "False", "assignment": "3XC1O3LBOTUGQEPEV3HM8W67X4RTLL", "start_time": "1.51813707289e+12", "human_length": "9", "nodes_expanded": "999", "instance": "prb6671", "end_time": "1.51813708589e+12", "optimal_length": "14", "subject": "A1ZTSCPETU3UJW"}
{"rt": "22543.0", "trial_number": "1", "skipped": "False", "complete": "True", "assignment": "3XC1O3LBOTUGQEPEV3HM8W67X4RTLL", "start_time": "1.51813709116e+12", "human_length": "15", "nodes_expanded": "999", "instance": "prb6671", "end_time": "1.5181371137e+12", "optimal_length": "14", "subject": "A1ZTSCPETU3UJW"}
{"rt": "24990.0", "trial_number": "0", "skipped": "False", "complete": "True", "assignment": "3TAYZSBPLMG9ASQRWXURJVBCPLN2SH", "start_time": "1.51813773006e+12", "human_length": "15", "nodes_expanded": "999", "instance": "prb6671", "end_time": "1.51813775505e+12", "optimal_length": "14", "subject": "A2RCYLKY072XXO"}
{"rt": "137070.0", "trial_number": "0", "skipped": "False", "complete": "True", "assignment": "3E1QT0TDFQHV2TPK729EPKIS2ND8IY", "start_time": "1.51813835763e+12", "human_length": "64", "nodes_expanded": "999", "instance": "prb6671", "end_time": "1.5181384947e+12", "optimal_length": "14", "subject": "A1MTRZDRKNB9GV"}
{"rt": "94575.0", "trial_number": "0", "skipped": "False", "complete": "True", "assignment": "3ZSANO2JCGFTBM23KS9Y3E51YP4FSQ", "start_time": "1.51814209995e+12", "human_length": "23", "nodes_expanded": "999", "instance": "prb6671", "end_time": "1.51814219453e+12", "optimal_length": "14", "subject": "A1F42D4L22K5ND"}
{"rt": "36760.0", "trial_number": "0", "skipped": "False", "complete": "True", "assignment": "3VE8AYVF8N5BS2NU6U3TMN50MV38FP", "start_time": "1.51814505671e+12", "human_length": "18", "nodes_expanded": "999", "instance": "prb6671", "end_time": "1.51814509347e+12", "optimal_length": "14", "subject": "A1JN13098RIE78"}
{"rt": "19697.0", "trial_number": "0", "skipped": "False", "complete": "True", "assignment": "3HWRJOOET6A15827PHPSLWK1MOYSEU", "start_time": "1.51814398699e+12", "human_length": "16", "nodes_expanded": "999", "instance": "prb6671", "end_time": "1.51814400669e+12", "optimal_length": "14", "subject": "AO1QGAUZ85T6L"}
{"rt": "23015.0", "trial_number": "0", "skipped": "False", "complete": "True", "assignment": "3XLBSAQ9Z5KDX59BX15UBFPNNHYZ7Q", "start_time": "1.51814725464e+12", "human_length": "16", "nodes_expanded": "999", "instance": "prb6671", "end_time": "1.51814727765e+12", "optimal_length": "14", "subject": "A1HFNOKU591WCY"}
{"rt": "0.0", "trial_number": "0", "skipped": "False", "complete": "False", "assignment": "3RUIQRXJBCWS71H9MUFVM5WQ3SCLLJ", "start_time": "1.51815844496e+12", "human_length": "1", "nodes_expanded": "999", "instance": "prb6671", "end_time": "1.51815844496e+12", "optimal_length": "14", "subject": "A1SJRFJWFXSDH4"}
{"rt": "23804.0", "trial_number": "1", "skipped": "False", "complete": "True", "assignment": "3RUIQRXJBCWS71H9MUFVM5WQ3SCLLJ", "start_time": "1.51815844731e+12", "human_length": "16", "nodes_expanded": "999", "instance": "prb6671", "end_time": "1.51815847112e+12", "optimal_length": "14", "subject": "A1SJRFJWFXSDH4"}
{"rt": "38262.0", "trial_number": "0", "skipped": "False", "complete": "True", "assignment": "3M0BCWMB8W4W5M7WZVX3HDH1P53WB1", "start_time": "1.51816081265e+12", "human_length": "15", "nodes_expanded": "999", "instance": "prb6671", "end_time": "1.51816085092e+12", "optimal_length": "14", "subject": "A53S7J4JGWG38"}
{"rt": "87654.0", "trial_number": "0", "skipped": "True", "complete": "False", "assignment": "3SITXWYCNWHBUMCM90TPJWV8Y7AXBW", "start_time": "1.51816469006e+12", "human_length": "32", "nodes_expanded": "999", "instance": "prb6671", "end_time": "1.51816477771e+12", "optimal_length": "14", "subject": "A28RX7L0QZ993M"}
{"rt": "14736.0", "trial_number": "0", "skipped": "False", "complete": "True", "assignment": "3IXEICO793RY7TM78ZBKJDOA7ADT6Q", "start_time": "1.518169432e+12", "human_length": "15", "nodes_expanded": "999", "instance": "prb6671", "end_time": "1.51816944674e+12", "optimal_length": "14", "subject": "ALH1K6ZAQQMN7"}
