{"rt": "20268.0", "trial_number": "0", "skipped": "False", "complete": "True", "assignment": "3ZV9H2YQQEFR2R3JK2IXZUJPXAF3WW", "start_time": "1.51630650364e+12", "human_length": "11", "nodes_expanded": "999", "instance": "prb62222", "end_time": "1.51630652391e+12", "optimal_length": "11", "subject": "A289D98Z4GAZ28"}
{"rt": "19894.0", "trial_number": "0", "skipped": "False", "complete": "True", "assignment": "3PMBY0YE28B43VMUKKJ6EDF85RV9C8", "start_time": "1.51638839762e+12", "human_length": "15", "nodes_expanded": "999", "instance": "prb62222", "end_time": "1.51638841751e+12", "optimal_length": "11", "subject": "A191V7PT3DQKDP"}
{"rt": "0.0", "trial_number": "0", "skipped": "False", "complete": "False", "assignment": "3ZSY5X72NYJBGKFJ46SJ0Y9J0RLROB", "start_time": "1.51638828104e+12", "human_length": "1", "nodes_expanded": "999", "instance": "prb62222", "end_time": "1.51638828104e+12", "optimal_length": "11", "subject": "AU4KK3OYS2UZF"}
{"rt": "2434.0", "trial_number": "1", "skipped": "False", "complete": "False", "assignment": "3ZSY5X72NYJBGKFJ46SJ0Y9J0RLROB", "start_time": "1.51638828105e+12", "human_length": "2", "nodes_expanded": "999", "instance": "prb62222", "end_time": "1.51638828348e+12", "optimal_length": "11", "subject": "AU4KK3OYS2UZF"}
{"rt": "15941.0", "trial_number": "2", "skipped": "False", "complete": "True", "assignment": "3ZSY5X72NYJBGKFJ46SJ0Y9J0RLROB", "start_time": "1.51638828406e+12", "human_length": "14", "nodes_expanded": "999", "instance": "prb62222", "end_time": "1.5163883e+12", "optimal_length": "11", "subject": "AU4KK3OYS2UZF"}
{"rt": "62762.0", "trial_number": "0", "skipped": "False", "complete": "True", "assignment": "3TYCR1GOTDRCCQYD1V64UK7OE48LZS", "start_time": "1.51639102972e+12", "human_length": "32", "nodes_expanded": "999", "instance": "prb62222", "end_time": "1.51639109248e+12", "optimal_length": "11", "subject": "A2MYB6MLQW0IGN"}
{"rt": "121882.0", "trial_number": "0", "skipped": "False", "complete": "True", "assignment": "34BBWHLWHBJ6SUL255PK30LEGY5IWG", "start_time": "1.51639279383e+12", "human_length": "13", "nodes_expanded": "999", "instance": "prb62222", "end_time": "1.51639291571e+12", "optimal_length": "11", "subject": "A214HWAW1PYWO8"}
{"rt": "0.0", "trial_number": "0", "skipped": "False", "complete": "False", "assignment": "3VE8AYVF8N5BS2NU6U3TMN50JMNF8V", "start_time": "1.51673808602e+12", "human_length": "1", "nodes_expanded": "999", "instance": "prb62222", "end_time": "1.51673808602e+12", "optimal_length": "11", "subject": "A18QU0YQB6Q8DF"}
{"rt": "0.0", "trial_number": "1", "skipped": "False", "complete": "False", "assignment": "3VE8AYVF8N5BS2NU6U3TMN50JMNF8V", "start_time": "1.51673808602e+12", "human_length": "1", "nodes_expanded": "999", "instance": "prb62222", "end_time": "1.51673808602e+12", "optimal_length": "11", "subject": "A18QU0YQB6Q8DF"}
{"rt": "31139.0", "trial_number": "2", "skipped": "False", "complete": "True", "assignment": "3VE8AYVF8N5BS2NU6U3TMN50JMNF8V", "start_time": "1.51673808602e+12", "human_length": "19", "nodes_expanded": "999", "instance": "prb62222", "end_time": "1.51673811716e+12", "optimal_length": "11", "subject": "A18QU0YQB6Q8DF"}
{"rt": "0.0", "trial_number": "0", "skipped": "False", "complete": "False", "assignment": "3X87C8JFV7JQ2BSCY8KSFD9F2ILSQK", "start_time": "1.51673901423e+12", "human_length": "1", "nodes_expanded": "999", "instance": "prb62222", "end_time": "1.51673901423e+12", "optimal_length": "11", "subject": "A3Q0XAGQ7TD7MP"}
{"rt": "0.0", "trial_number": "1", "skipped": "False", "complete": "False", "assignment": "3X87C8JFV7JQ2BSCY8KSFD9F2ILSQK", "start_time": "1.51673901423e+12", "human_length": "1", "nodes_expanded": "999", "instance": "prb62222", "end_time": "1.51673901423e+12", "optimal_length": "11", "subject": "A3Q0XAGQ7TD7MP"}
{"rt": "26946.0", "trial_number": "2", "skipped": "False", "complete": "True", "assignment": "3X87C8JFV7JQ2BSCY8KSFD9F2ILSQK", "start_time": "1.51673901423e+12", "human_length": "16", "nodes_expanded": "999", "instance": "prb62222", "end_time": "1.51673904118e+12", "optimal_length": "11", "subject": "A3Q0XAGQ7TD7MP"}
{"rt": "18961.0", "trial_number": "3", "skipped": "False", "complete": "True", "assignment": "3GLB5JMZFY3TNXFGYMKRQ0JDXNTDGZ", "start_time": "1.51794574990e+12", "human_length": "12", "nodes_expanded": "999", "instance": "prb62222", "end_time": "1.51794576887e+12", "optimal_length": "11", "subject": "A3Q0XAGQ7TD7MP"}
{"rt": "32977.0", "trial_number": "0", "skipped": "False", "complete": "False", "assignment": "3WSELTNVR4AZUVYAYCSWZIQW0J4ATB", "start_time": "1.51673910777e+12", "human_length": "16", "nodes_expanded": "999", "instance": "prb62222", "end_time": "1.51673914074e+12", "optimal_length": "11", "subject": "A2TQNX64349OZ9"}
{"rt": "0.0", "trial_number": "1", "skipped": "False", "complete": "False", "assignment": "3WSELTNVR4AZUVYAYCSWZIQW0J4ATB", "start_time": "1.51673914149e+12", "human_length": "1", "nodes_expanded": "999", "instance": "prb62222", "end_time": "1.51673914149e+12", "optimal_length": "11", "subject": "A2TQNX64349OZ9"}
{"rt": "0.0", "trial_number": "2", "skipped": "False", "complete": "False", "assignment": "3WSELTNVR4AZUVYAYCSWZIQW0J4ATB", "start_time": "1.51673910777e+12", "human_length": "1", "nodes_expanded": "999", "instance": "prb62222", "end_time": "1.51673910777e+12", "optimal_length": "11", "subject": "A2TQNX64349OZ9"}
{"rt": "0.0", "trial_number": "3", "skipped": "False", "complete": "False", "assignment": "3WSELTNVR4AZUVYAYCSWZIQW0J4ATB", "start_time": "1.51673914149e+12", "human_length": "1", "nodes_expanded": "999", "instance": "prb62222", "end_time": "1.51673914149e+12", "optimal_length": "11", "subject": "A2TQNX64349OZ9"}
{"rt": "0.0", "trial_number": "4", "skipped": "False", "complete": "False", "assignment": "3WSELTNVR4AZUVYAYCSWZIQW0J4ATB", "start_time": "1.51673910777e+12", "human_length": "1", "nodes_expanded": "999", "instance": "prb62222", "end_time": "1.51673910777e+12", "optimal_length": "11", "subject": "A2TQNX64349OZ9"}
{"rt": "13249.0", "trial_number": "5", "skipped": "False", "complete": "True", "assignment": "3WSELTNVR4AZUVYAYCSWZIQW0J4ATB", "start_time": "1.51673914149e+12", "human_length": "12", "nodes_expanded": "999", "instance": "prb62222", "end_time": "1.51673915474e+12", "optimal_length": "11", "subject": "A2TQNX64349OZ9"}
{"rt": "0.0", "trial_number": "0", "skipped": "False", "complete": "False", "assignment": "3U8YCDAGXQOQ1280P618573W7RSQ0N", "start_time": "1.51674364023e+12", "human_length": "1", "nodes_expanded": "999", "instance": "prb62222", "end_time": "1.51674364023e+12", "optimal_length": "11", "subject": "AWCO7MG0BHSTQ"}
{"rt": "0.0", "trial_number": "1", "skipped": "False", "complete": "False", "assignment": "3U8YCDAGXQOQ1280P618573W7RSQ0N", "start_time": "1.51674364023e+12", "human_length": "1", "nodes_expanded": "999", "instance": "prb62222", "end_time": "1.51674364023e+12", "optimal_length": "11", "subject": "AWCO7MG0BHSTQ"}
{"rt": "62315.0", "trial_number": "2", "skipped": "False", "complete": "True", "assignment": "3U8YCDAGXQOQ1280P618573W7RSQ0N", "start_time": "1.51674364023e+12", "human_length": "29", "nodes_expanded": "999", "instance": "prb62222", "end_time": "1.51674370254e+12", "optimal_length": "11", "subject": "AWCO7MG0BHSTQ"}
{"rt": "0.0", "trial_number": "0", "skipped": "False", "complete": "False", "assignment": "3X87C8JFV7JQ2BSCY8KSFD9F2ILSQK", "start_time": "1.51674489357e+12", "human_length": "1", "nodes_expanded": "999", "instance": "prb62222", "end_time": "1.51674489357e+12", "optimal_length": "11", "subject": "A21S7MA9DCW95E"}
{"rt": "0.0", "trial_number": "1", "skipped": "False", "complete": "False", "assignment": "3X87C8JFV7JQ2BSCY8KSFD9F2ILSQK", "start_time": "1.51674489357e+12", "human_length": "1", "nodes_expanded": "999", "instance": "prb62222", "end_time": "1.51674489357e+12", "optimal_length": "11", "subject": "A21S7MA9DCW95E"}
{"rt": "23623.0", "trial_number": "2", "skipped": "False", "complete": "True", "assignment": "3X87C8JFV7JQ2BSCY8KSFD9F2ILSQK", "start_time": "1.51674489357e+12", "human_length": "13", "nodes_expanded": "999", "instance": "prb62222", "end_time": "1.51674491719e+12", "optimal_length": "11", "subject": "A21S7MA9DCW95E"}
{"rt": "0.0", "trial_number": "0", "skipped": "False", "complete": "False", "assignment": "3IJXV6UZ1YR1KY4G6BFEG1DXP7SRI1", "start_time": "1.51674912866e+12", "human_length": "1", "nodes_expanded": "999", "instance": "prb62222", "end_time": "1.51674912866e+12", "optimal_length": "11", "subject": "A2RTJ6BDY0DZVZ"}
{"rt": "0.0", "trial_number": "1", "skipped": "False", "complete": "False", "assignment": "3IJXV6UZ1YR1KY4G6BFEG1DXP7SRI1", "start_time": "1.51674912866e+12", "human_length": "1", "nodes_expanded": "999", "instance": "prb62222", "end_time": "1.51674912866e+12", "optimal_length": "11", "subject": "A2RTJ6BDY0DZVZ"}
{"rt": "38907.0", "trial_number": "2", "skipped": "False", "complete": "True", "assignment": "3IJXV6UZ1YR1KY4G6BFEG1DXP7SRI1", "start_time": "1.51674912866e+12", "human_length": "20", "nodes_expanded": "999", "instance": "prb62222", "end_time": "1.51674916757e+12", "optimal_length": "11", "subject": "A2RTJ6BDY0DZVZ"}
{"rt": "0.0", "trial_number": "0", "skipped": "False", "complete": "False", "assignment": "3I2PTA7R3U2SESF4TZBQORI5LSJQKK", "start_time": "1.51675942428e+12", "human_length": "1", "nodes_expanded": "999", "instance": "prb62222", "end_time": "1.51675942428e+12", "optimal_length": "11", "subject": "A3NMQ3019X6YE0"}
{"rt": "0.0", "trial_number": "1", "skipped": "False", "complete": "False", "assignment": "3I2PTA7R3U2SESF4TZBQORI5LSJQKK", "start_time": "1.51675942428e+12", "human_length": "1", "nodes_expanded": "999", "instance": "prb62222", "end_time": "1.51675942428e+12", "optimal_length": "11", "subject": "A3NMQ3019X6YE0"}
{"rt": "105697.0", "trial_number": "2", "skipped": "False", "complete": "True", "assignment": "3I2PTA7R3U2SESF4TZBQORI5LSJQKK", "start_time": "1.51675942428e+12", "human_length": "36", "nodes_expanded": "999", "instance": "prb62222", "end_time": "1.51675952998e+12", "optimal_length": "11", "subject": "A3NMQ3019X6YE0"}
{"rt": "157239.0", "trial_number": "3", "skipped": "False", "complete": "True", "assignment": "3V5Q80FXIYZ5QB5C6ITQBN30WY823U", "start_time": "1.51753450441e+12", "human_length": "14", "nodes_expanded": "999", "instance": "prb62222", "end_time": "1.51753466165e+12", "optimal_length": "11", "subject": "A3NMQ3019X6YE0"}
{"rt": "0.0", "trial_number": "0", "skipped": "False", "complete": "False", "assignment": "3IHR8NYAM89M0EPM8U9LH53ZJDTP4U", "start_time": "1.51682593302e+12", "human_length": "1", "nodes_expanded": "999", "instance": "prb62222", "end_time": "1.51682593302e+12", "optimal_length": "11", "subject": "A23437BMZ5T1FH"}
{"rt": "20055.0", "trial_number": "1", "skipped": "True", "complete": "False", "assignment": "3IHR8NYAM89M0EPM8U9LH53ZJDTP4U", "start_time": "1.51682593302e+12", "human_length": "43", "nodes_expanded": "999", "instance": "prb62222", "end_time": "1.51682595307e+12", "optimal_length": "11", "subject": "A23437BMZ5T1FH"}
{"rt": "14191.0", "trial_number": "0", "skipped": "False", "complete": "True", "assignment": "3YW4XOSQKRTI0K0Z2YPDTDJVFABU1I", "start_time": "1.5168318907e+12", "human_length": "14", "nodes_expanded": "999", "instance": "prb62222", "end_time": "1.51683190489e+12", "optimal_length": "11", "subject": "A1LR0VQIHQUJAM"}
{"rt": "31139.0", "trial_number": "0", "skipped": "False", "complete": "True", "assignment": "3VE8AYVF8N5BS2NU6U3TMN50JMNF8V", "start_time": "1.51673808602e+12", "human_length": "19", "nodes_expanded": "999", "instance": "prb62222", "end_time": "1.51673811716e+12", "optimal_length": "11", "subject": "A18QU0YQB6Q8DF"}
{"rt": "26946.0", "trial_number": "0", "skipped": "False", "complete": "True", "assignment": "3X87C8JFV7JQ2BSCY8KSFD9F2ILSQK", "start_time": "1.51673901423e+12", "human_length": "16", "nodes_expanded": "999", "instance": "prb62222", "end_time": "1.51673904118e+12", "optimal_length": "11", "subject": "A3Q0XAGQ7TD7MP"}
{"rt": "18961.0", "trial_number": "1", "skipped": "False", "complete": "True", "assignment": "3GLB5JMZFY3TNXFGYMKRQ0JDXNTDGZ", "start_time": "1.51794574990e+12", "human_length": "12", "nodes_expanded": "999", "instance": "prb62222", "end_time": "1.51794576887e+12", "optimal_length": "11", "subject": "A3Q0XAGQ7TD7MP"}
{"rt": "32977.0", "trial_number": "0", "skipped": "False", "complete": "False", "assignment": "3WSELTNVR4AZUVYAYCSWZIQW0J4ATB", "start_time": "1.51673910777e+12", "human_length": "16", "nodes_expanded": "999", "instance": "prb62222", "end_time": "1.51673914074e+12", "optimal_length": "11", "subject": "A2TQNX64349OZ9"}
{"rt": "13249.0", "trial_number": "1", "skipped": "False", "complete": "True", "assignment": "3WSELTNVR4AZUVYAYCSWZIQW0J4ATB", "start_time": "1.51673914149e+12", "human_length": "12", "nodes_expanded": "999", "instance": "prb62222", "end_time": "1.51673915474e+12", "optimal_length": "11", "subject": "A2TQNX64349OZ9"}
{"rt": "62315.0", "trial_number": "0", "skipped": "False", "complete": "True", "assignment": "3U8YCDAGXQOQ1280P618573W7RSQ0N", "start_time": "1.51674364023e+12", "human_length": "29", "nodes_expanded": "999", "instance": "prb62222", "end_time": "1.51674370254e+12", "optimal_length": "11", "subject": "AWCO7MG0BHSTQ"}
{"rt": "23623.0", "trial_number": "0", "skipped": "False", "complete": "True", "assignment": "3X87C8JFV7JQ2BSCY8KSFD9F2ILSQK", "start_time": "1.51674489357e+12", "human_length": "13", "nodes_expanded": "999", "instance": "prb62222", "end_time": "1.51674491719e+12", "optimal_length": "11", "subject": "A21S7MA9DCW95E"}
{"rt": "38907.0", "trial_number": "0", "skipped": "False", "complete": "True", "assignment": "3IJXV6UZ1YR1KY4G6BFEG1DXP7SRI1", "start_time": "1.51674912866e+12", "human_length": "20", "nodes_expanded": "999", "instance": "prb62222", "end_time": "1.51674916757e+12", "optimal_length": "11", "subject": "A2RTJ6BDY0DZVZ"}
{"rt": "105697.0", "trial_number": "0", "skipped": "False", "complete": "True", "assignment": "3I2PTA7R3U2SESF4TZBQORI5LSJQKK", "start_time": "1.51675942428e+12", "human_length": "36", "nodes_expanded": "999", "instance": "prb62222", "end_time": "1.51675952998e+12", "optimal_length": "11", "subject": "A3NMQ3019X6YE0"}
{"rt": "157239.0", "trial_number": "1", "skipped": "False", "complete": "True", "assignment": "3V5Q80FXIYZ5QB5C6ITQBN30WY823U", "start_time": "1.51753450441e+12", "human_length": "14", "nodes_expanded": "999", "instance": "prb62222", "end_time": "1.51753466165e+12", "optimal_length": "11", "subject": "A3NMQ3019X6YE0"}
{"rt": "15666.0", "trial_number": "0", "skipped": "False", "complete": "True", "assignment": "3TS1AR6UQRM7SOIBWPBN8N9589Y7FV", "start_time": "1.51684046875e+12", "human_length": "15", "nodes_expanded": "999", "instance": "prb62222", "end_time": "1.51684048441e+12", "optimal_length": "11", "subject": "A1F4N58CAX8IMK"}
{"rt": "25276.0", "trial_number": "1", "skipped": "False", "complete": "True", "assignment": "35DR22AR5ES6RR89U7EJ1DXW91AX3P", "start_time": "1.51795294455e+12", "human_length": "23", "nodes_expanded": "999", "instance": "prb62222", "end_time": "1.51795296983e+12", "optimal_length": "11", "subject": "A1F4N58CAX8IMK"}
{"rt": "18814.0", "trial_number": "0", "skipped": "False", "complete": "True", "assignment": "3M0BCWMB8W4W5M7WZVX3HDH1M3FBWL", "start_time": "1.51684075273e+12", "human_length": "12", "nodes_expanded": "999", "instance": "prb62222", "end_time": "1.51684077154e+12", "optimal_length": "11", "subject": "A1XDMS0KFSF5JW"}
{"rt": "29917.0", "trial_number": "0", "skipped": "False", "complete": "True", "assignment": "31LM9EDVOM0C0BWUVMJXJINN3QPJNI", "start_time": "1.51752282844e+12", "human_length": "20", "nodes_expanded": "999", "instance": "prb62222", "end_time": "1.51752285836e+12", "optimal_length": "11", "subject": "A1NT8BT94ME6F5"}
{"rt": "27464.0", "trial_number": "0", "skipped": "False", "complete": "True", "assignment": "37TD41K0AIHM8AITTQJXV8KY05QCSB", "start_time": "1.51752356086e+12", "human_length": "15", "nodes_expanded": "999", "instance": "prb62222", "end_time": "1.51752358833e+12", "optimal_length": "11", "subject": "A30KYQGABO7JER"}
{"rt": "199950.0", "trial_number": "0", "skipped": "False", "complete": "True", "assignment": "36H9ULYP6320CJJDXY0KBDEE1Z3JFB", "start_time": "1.51753404483e+12", "human_length": "19", "nodes_expanded": "999", "instance": "prb62222", "end_time": "1.51753424478e+12", "optimal_length": "11", "subject": "AN098C29EGJ6"}
{"rt": "17271.0", "trial_number": "0", "skipped": "False", "complete": "True", "assignment": "3TYCR1GOTDRCCQYD1V64UK7OHTBZLQ", "start_time": "1.51753711947e+12", "human_length": "16", "nodes_expanded": "999", "instance": "prb62222", "end_time": "1.51753713674e+12", "optimal_length": "11", "subject": "A13BZCNJ0WR1T7"}
{"rt": "31420.0", "trial_number": "0", "skipped": "False", "complete": "True", "assignment": "30IQTZXKALEAAZ9CBKW0ZFZP6O5X07", "start_time": "1.51793920083e+12", "human_length": "12", "nodes_expanded": "999", "instance": "prb62222", "end_time": "1.51793923225e+12", "optimal_length": "11", "subject": "A10YS8AVLQWUZZ"}
{"rt": "47991.0", "trial_number": "0", "skipped": "False", "complete": "True", "assignment": "34HJIJKLP64Z5YMIU6IKNXSH7PDV4I", "start_time": "1.5179405327e+12", "human_length": "23", "nodes_expanded": "999", "instance": "prb62222", "end_time": "1.51794058069e+12", "optimal_length": "11", "subject": "A3CTXNQ2GXIQSP"}
{"rt": "41125.0", "trial_number": "0", "skipped": "False", "complete": "True", "assignment": "33PPO7FECWN7JOLBOAKUBCWTC0AIDL", "start_time": "1.517941038e+12", "human_length": "29", "nodes_expanded": "999", "instance": "prb62222", "end_time": "1.51794107912e+12", "optimal_length": "11", "subject": "AB5IVPS4OP9M8"}
{"rt": "26585.0", "trial_number": "0", "skipped": "False", "complete": "True", "assignment": "30IQTZXKALEAAZ9CBKW0ZFZP6O5X07", "start_time": "1.517944674e+12", "human_length": "17", "nodes_expanded": "999", "instance": "prb62222", "end_time": "1.51794470058e+12", "optimal_length": "11", "subject": "A23XJ8I86R0O3B"}
{"rt": "31676.0", "trial_number": "0", "skipped": "False", "complete": "True", "assignment": "33PPO7FECWN7JOLBOAKUBCWTC0AIDL", "start_time": "1.51794834204e+12", "human_length": "13", "nodes_expanded": "999", "instance": "prb62222", "end_time": "1.51794837372e+12", "optimal_length": "11", "subject": "AXKM02NVXNGOM"}
{"rt": "41978.0", "trial_number": "0", "skipped": "False", "complete": "True", "assignment": "3PB5A5BD0WED6OE679H5Q89HBDGG71", "start_time": "1.51795012838e+12", "human_length": "20", "nodes_expanded": "999", "instance": "prb62222", "end_time": "1.51795017036e+12", "optimal_length": "11", "subject": "A1USR9JCAMDGM3"}
{"rt": "17752.0", "trial_number": "0", "skipped": "False", "complete": "True", "assignment": "33F859I567LE8WC74WB3GA7E94XBHW", "start_time": "1.5179697163e+12", "human_length": "16", "nodes_expanded": "999", "instance": "prb62222", "end_time": "1.51796973406e+12", "optimal_length": "11", "subject": "A1GQS6USF2JEYG"}
{"rt": "17437.0", "trial_number": "0", "skipped": "False", "complete": "True", "assignment": "3IJXV6UZ1YR1KY4G6BFEG1DXR47RIC", "start_time": "1.51797205433e+12", "human_length": "17", "nodes_expanded": "999", "instance": "prb62222", "end_time": "1.51797207177e+12", "optimal_length": "11", "subject": "A18T3WK7J16C1B"}
{"rt": "11921.0", "trial_number": "0", "skipped": "False", "complete": "True", "assignment": "3FTF2T8WLSQDHTSZ1BJ7Q7MB14SW9H", "start_time": "1.51813629606e+12", "human_length": "12", "nodes_expanded": "999", "instance": "prb62222", "end_time": "1.51813630798e+12", "optimal_length": "11", "subject": "A1IUH9D7N69VS"}
{"rt": "29664.0", "trial_number": "0", "skipped": "True", "complete": "False", "assignment": "3XC1O3LBOTUGQEPEV3HM8W67X4RTLL", "start_time": "1.51813923241e+12", "human_length": "7", "nodes_expanded": "999", "instance": "prb62222", "end_time": "1.51813926208e+12", "optimal_length": "11", "subject": "A1ZTSCPETU3UJW"}
{"rt": "19101.0", "trial_number": "0", "skipped": "True", "complete": "False", "assignment": "3TAYZSBPLMG9ASQRWXURJVBCPLN2SH", "start_time": "1.51813755886e+12", "human_length": "14", "nodes_expanded": "999", "instance": "prb62222", "end_time": "1.51813757796e+12", "optimal_length": "11", "subject": "A2RCYLKY072XXO"}
{"rt": "82316.0", "trial_number": "0", "skipped": "False", "complete": "True", "assignment": "3RXCAC0YISXH62JPHE9B485CNAL8G6", "start_time": "1.51813586528e+12", "human_length": "24", "nodes_expanded": "999", "instance": "prb62222", "end_time": "1.5181359476e+12", "optimal_length": "11", "subject": "A2CHKF2A6F4MIX"}
{"rt": "16566.0", "trial_number": "0", "skipped": "False", "complete": "True", "assignment": "3ZSANO2JCGFTBM23KS9Y3E51YP4FSQ", "start_time": "1.51814333164e+12", "human_length": "14", "nodes_expanded": "999", "instance": "prb62222", "end_time": "1.51814334821e+12", "optimal_length": "11", "subject": "A1F42D4L22K5ND"}
{"rt": "32688.0", "trial_number": "0", "skipped": "False", "complete": "True", "assignment": "3TMFV4NEP9MD3O9PWJDTQBR0HZYW8I", "start_time": "1.51814780440e+12", "human_length": "23", "nodes_expanded": "999", "instance": "prb62222", "end_time": "1.51814783709e+12", "optimal_length": "11", "subject": "A3GOOI75XOF24V"}
{"rt": "26729.0", "trial_number": "0", "skipped": "False", "complete": "True", "assignment": "3XLBSAQ9Z5KDX59BX15UBFPNNHYZ7Q", "start_time": "1.51814523402e+12", "human_length": "20", "nodes_expanded": "999", "instance": "prb62222", "end_time": "1.51814526074e+12", "optimal_length": "11", "subject": "A1HFNOKU591WCY"}
{"rt": "0.0", "trial_number": "0", "skipped": "False", "complete": "False", "assignment": "3RUIQRXJBCWS71H9MUFVM5WQ3SCLLJ", "start_time": "1.51815719269e+12", "human_length": "1", "nodes_expanded": "999", "instance": "prb62222", "end_time": "1.51815719269e+12", "optimal_length": "11", "subject": "A1SJRFJWFXSDH4"}
{"rt": "0.0", "trial_number": "1", "skipped": "False", "complete": "False", "assignment": "3RUIQRXJBCWS71H9MUFVM5WQ3SCLLJ", "start_time": "1.51815719271e+12", "human_length": "1", "nodes_expanded": "999", "instance": "prb62222", "end_time": "1.51815719271e+12", "optimal_length": "11", "subject": "A1SJRFJWFXSDH4"}
{"rt": "0.0", "trial_number": "2", "skipped": "False", "complete": "False", "assignment": "3RUIQRXJBCWS71H9MUFVM5WQ3SCLLJ", "start_time": "1.51815719272e+12", "human_length": "1", "nodes_expanded": "999", "instance": "prb62222", "end_time": "1.51815719272e+12", "optimal_length": "11", "subject": "A1SJRFJWFXSDH4"}
{"rt": "23384.0", "trial_number": "3", "skipped": "False", "complete": "True", "assignment": "3RUIQRXJBCWS71H9MUFVM5WQ3SCLLJ", "start_time": "1.51815719812e+12", "human_length": "15", "nodes_expanded": "999", "instance": "prb62222", "end_time": "1.5181572215e+12", "optimal_length": "11", "subject": "A1SJRFJWFXSDH4"}
{"rt": "48315.0", "trial_number": "0", "skipped": "False", "complete": "True", "assignment": "37QW5D2ZRHUKW7SGCE3STMOFBMK8SX", "start_time": "1.51815732707e+12", "human_length": "22", "nodes_expanded": "999", "instance": "prb62222", "end_time": "1.51815737538e+12", "optimal_length": "11", "subject": "AMW2XLD9443OH"}
{"rt": "49883.0", "trial_number": "0", "skipped": "False", "complete": "True", "assignment": "3M0BCWMB8W4W5M7WZVX3HDH1P53WB1", "start_time": "1.51815913524e+12", "human_length": "29", "nodes_expanded": "999", "instance": "prb62222", "end_time": "1.51815918513e+12", "optimal_length": "11", "subject": "A53S7J4JGWG38"}
{"rt": "16076.0", "trial_number": "0", "skipped": "False", "complete": "True", "assignment": "3IXEICO793RY7TM78ZBKJDOA7ADT6Q", "start_time": "1.51816791749e+12", "human_length": "14", "nodes_expanded": "999", "instance": "prb62222", "end_time": "1.51816793357e+12", "optimal_length": "11", "subject": "ALH1K6ZAQQMN7"}
