{"rt": "48787.0", "trial_number": "0", "skipped": "True", "complete": "False", "assignment": "3ON104KXQL4CKNMNKGNG9ZBVBAB4WI", "start_time": "1.51631352143e+12", "human_length": "34", "nodes_expanded": "999", "instance": "prb65535", "end_time": "1.51631357021e+12", "optimal_length": "14", "subject": "AYPOAY43REHC8"}
{"rt": "30954.0", "trial_number": "0", "skipped": "False", "complete": "True", "assignment": "3PMBY0YE28B43VMUKKJ6EDF85RV9C8", "start_time": "1.51638815379e+12", "human_length": "29", "nodes_expanded": "999", "instance": "prb65535", "end_time": "1.51638818474e+12", "optimal_length": "14", "subject": "A191V7PT3DQKDP"}
{"rt": "57430.0", "trial_number": "0", "skipped": "False", "complete": "True", "assignment": "3ZSY5X72NYJBGKFJ46SJ0Y9J0RLROB", "start_time": "1.51638803511e+12", "human_length": "38", "nodes_expanded": "999", "instance": "prb65535", "end_time": "1.51638809254e+12", "optimal_length": "14", "subject": "AU4KK3OYS2UZF"}
{"rt": "142208.0", "trial_number": "0", "skipped": "False", "complete": "True", "assignment": "3TYCR1GOTDRCCQYD1V64UK7OE48LZS", "start_time": "1.51638934492e+12", "human_length": "63", "nodes_expanded": "999", "instance": "prb65535", "end_time": "1.51638948713e+12", "optimal_length": "14", "subject": "A2MYB6MLQW0IGN"}
{"rt": "18700.0", "trial_number": "0", "skipped": "False", "complete": "True", "assignment": "34BBWHLWHBJ6SUL255PK30LEGY5IWG", "start_time": "1.51639390423e+12", "human_length": "15", "nodes_expanded": "999", "instance": "prb65535", "end_time": "1.51639392293e+12", "optimal_length": "14", "subject": "A214HWAW1PYWO8"}
{"rt": "0.0", "trial_number": "0", "skipped": "False", "complete": "False", "assignment": "3VE8AYVF8N5BS2NU6U3TMN50JMNF8V", "start_time": "1.51673824362e+12", "human_length": "1", "nodes_expanded": "999", "instance": "prb65535", "end_time": "1.51673824362e+12", "optimal_length": "14", "subject": "A18QU0YQB6Q8DF"}
{"rt": "0.0", "trial_number": "1", "skipped": "False", "complete": "False", "assignment": "3VE8AYVF8N5BS2NU6U3TMN50JMNF8V", "start_time": "1.51673824362e+12", "human_length": "1", "nodes_expanded": "999", "instance": "prb65535", "end_time": "1.51673824362e+12", "optimal_length": "14", "subject": "A18QU0YQB6Q8DF"}
{"rt": "56426.0", "trial_number": "2", "skipped": "True", "complete": "False", "assignment": "3VE8AYVF8N5BS2NU6U3TMN50JMNF8V", "start_time": "1.51673824362e+12", "human_length": "57", "nodes_expanded": "999", "instance": "prb65535", "end_time": "1.51673830005e+12", "optimal_length": "14", "subject": "A18QU0YQB6Q8DF"}
{"rt": "0.0", "trial_number": "0", "skipped": "False", "complete": "False", "assignment": "3X87C8JFV7JQ2BSCY8KSFD9F2ILSQK", "start_time": "1.5167381455e+12", "human_length": "1", "nodes_expanded": "999", "instance": "prb65535", "end_time": "1.5167381455e+12", "optimal_length": "14", "subject": "A3Q0XAGQ7TD7MP"}
{"rt": "0.0", "trial_number": "1", "skipped": "False", "complete": "False", "assignment": "3X87C8JFV7JQ2BSCY8KSFD9F2ILSQK", "start_time": "1.5167381455e+12", "human_length": "1", "nodes_expanded": "999", "instance": "prb65535", "end_time": "1.5167381455e+12", "optimal_length": "14", "subject": "A3Q0XAGQ7TD7MP"}
{"rt": "26727.0", "trial_number": "2", "skipped": "False", "complete": "True", "assignment": "3X87C8JFV7JQ2BSCY8KSFD9F2ILSQK", "start_time": "1.5167381455e+12", "human_length": "14", "nodes_expanded": "999", "instance": "prb65535", "end_time": "1.51673817222e+12", "optimal_length": "14", "subject": "A3Q0XAGQ7TD7MP"}
{"rt": "30039.0", "trial_number": "3", "skipped": "False", "complete": "True", "assignment": "3GLB5JMZFY3TNXFGYMKRQ0JDXNTDGZ", "start_time": "1.51794655601e+12", "human_length": "15", "nodes_expanded": "999", "instance": "prb65535", "end_time": "1.51794658605e+12", "optimal_length": "14", "subject": "A3Q0XAGQ7TD7MP"}
{"rt": "0.0", "trial_number": "0", "skipped": "False", "complete": "False", "assignment": "3WSELTNVR4AZUVYAYCSWZIQW0J4ATB", "start_time": "1.51673795456e+12", "human_length": "1", "nodes_expanded": "999", "instance": "prb65535", "end_time": "1.51673795456e+12", "optimal_length": "14", "subject": "A2TQNX64349OZ9"}
{"rt": "0.0", "trial_number": "1", "skipped": "False", "complete": "False", "assignment": "3WSELTNVR4AZUVYAYCSWZIQW0J4ATB", "start_time": "1.51673795456e+12", "human_length": "1", "nodes_expanded": "999", "instance": "prb65535", "end_time": "1.51673795456e+12", "optimal_length": "14", "subject": "A2TQNX64349OZ9"}
{"rt": "22246.0", "trial_number": "2", "skipped": "False", "complete": "True", "assignment": "3WSELTNVR4AZUVYAYCSWZIQW0J4ATB", "start_time": "1.51673795456e+12", "human_length": "20", "nodes_expanded": "999", "instance": "prb65535", "end_time": "1.51673797681e+12", "optimal_length": "14", "subject": "A2TQNX64349OZ9"}
{"rt": "0.0", "trial_number": "0", "skipped": "False", "complete": "False", "assignment": "3X87C8JFV7JQ2BSCY8KSFD9F2ILSQK", "start_time": "1.51674465852e+12", "human_length": "1", "nodes_expanded": "999", "instance": "prb65535", "end_time": "1.51674465852e+12", "optimal_length": "14", "subject": "A21S7MA9DCW95E"}
{"rt": "0.0", "trial_number": "1", "skipped": "False", "complete": "False", "assignment": "3X87C8JFV7JQ2BSCY8KSFD9F2ILSQK", "start_time": "1.51674465852e+12", "human_length": "1", "nodes_expanded": "999", "instance": "prb65535", "end_time": "1.51674465852e+12", "optimal_length": "14", "subject": "A21S7MA9DCW95E"}
{"rt": "44732.0", "trial_number": "2", "skipped": "False", "complete": "True", "assignment": "3X87C8JFV7JQ2BSCY8KSFD9F2ILSQK", "start_time": "1.51674465852e+12", "human_length": "15", "nodes_expanded": "999", "instance": "prb65535", "end_time": "1.51674470326e+12", "optimal_length": "14", "subject": "A21S7MA9DCW95E"}
{"rt": "0.0", "trial_number": "0", "skipped": "False", "complete": "False", "assignment": "3IJXV6UZ1YR1KY4G6BFEG1DXP7SRI1", "start_time": "1.51675123926e+12", "human_length": "1", "nodes_expanded": "999", "instance": "prb65535", "end_time": "1.51675123926e+12", "optimal_length": "14", "subject": "A2RTJ6BDY0DZVZ"}
{"rt": "0.0", "trial_number": "1", "skipped": "False", "complete": "False", "assignment": "3IJXV6UZ1YR1KY4G6BFEG1DXP7SRI1", "start_time": "1.51675123926e+12", "human_length": "1", "nodes_expanded": "999", "instance": "prb65535", "end_time": "1.51675123926e+12", "optimal_length": "14", "subject": "A2RTJ6BDY0DZVZ"}
{"rt": "22578.0", "trial_number": "2", "skipped": "False", "complete": "True", "assignment": "3IJXV6UZ1YR1KY4G6BFEG1DXP7SRI1", "start_time": "1.51675123926e+12", "human_length": "15", "nodes_expanded": "999", "instance": "prb65535", "end_time": "1.51675126184e+12", "optimal_length": "14", "subject": "A2RTJ6BDY0DZVZ"}
{"rt": "0.0", "trial_number": "0", "skipped": "False", "complete": "False", "assignment": "3CFVK00FWMTAOGE2ZQ9TXMETAPZ6LP", "start_time": "1.51675215082e+12", "human_length": "1", "nodes_expanded": "999", "instance": "prb65535", "end_time": "1.51675215082e+12", "optimal_length": "14", "subject": "A26RO8GGTQAXGG"}
{"rt": "0.0", "trial_number": "1", "skipped": "False", "complete": "False", "assignment": "3CFVK00FWMTAOGE2ZQ9TXMETAPZ6LP", "start_time": "1.51675215082e+12", "human_length": "1", "nodes_expanded": "999", "instance": "prb65535", "end_time": "1.51675215082e+12", "optimal_length": "14", "subject": "A26RO8GGTQAXGG"}
{"rt": "37284.0", "trial_number": "2", "skipped": "False", "complete": "True", "assignment": "3CFVK00FWMTAOGE2ZQ9TXMETAPZ6LP", "start_time": "1.51675215082e+12", "human_length": "18", "nodes_expanded": "999", "instance": "prb65535", "end_time": "1.5167521881e+12", "optimal_length": "14", "subject": "A26RO8GGTQAXGG"}
{"rt": "203175.0", "trial_number": "0", "skipped": "False", "complete": "True", "assignment": "3V5Q80FXIYZ5QB5C6ITQBN30WY823U", "start_time": "1.51753474445e+12", "human_length": "51", "nodes_expanded": "999", "instance": "prb65535", "end_time": "1.51753494763e+12", "optimal_length": "14", "subject": "A3NMQ3019X6YE0"}
{"rt": "0.0", "trial_number": "0", "skipped": "False", "complete": "False", "assignment": "3IHR8NYAM89M0EPM8U9LH53ZJDTP4U", "start_time": "1.5168275971e+12", "human_length": "1", "nodes_expanded": "999", "instance": "prb65535", "end_time": "1.5168275971e+12", "optimal_length": "14", "subject": "A23437BMZ5T1FH"}
{"rt": "37217.0", "trial_number": "1", "skipped": "False", "complete": "True", "assignment": "3IHR8NYAM89M0EPM8U9LH53ZJDTP4U", "start_time": "1.5168275971e+12", "human_length": "33", "nodes_expanded": "999", "instance": "prb65535", "end_time": "1.51682763431e+12", "optimal_length": "14", "subject": "A23437BMZ5T1FH"}
{"rt": "0.0", "trial_number": "0", "skipped": "False", "complete": "False", "assignment": "37WLF8U1WQYZ4AWKEQXSIM1ELVEK6W", "start_time": "1.51683047036e+12", "human_length": "1", "nodes_expanded": "999", "instance": "prb65535", "end_time": "1.51683047036e+12", "optimal_length": "14", "subject": "A2EPBSY0VPI38S"}
{"rt": "33549.0", "trial_number": "1", "skipped": "False", "complete": "True", "assignment": "37WLF8U1WQYZ4AWKEQXSIM1ELVEK6W", "start_time": "1.51683047036e+12", "human_length": "23", "nodes_expanded": "999", "instance": "prb65535", "end_time": "1.51683050391e+12", "optimal_length": "14", "subject": "A2EPBSY0VPI38S"}
{"rt": "0.0", "trial_number": "0", "skipped": "False", "complete": "False", "assignment": "3YW4XOSQKRTI0K0Z2YPDTDJVFABU1I", "start_time": "1.51683046785e+12", "human_length": "1", "nodes_expanded": "999", "instance": "prb65535", "end_time": "1.51683046785e+12", "optimal_length": "14", "subject": "A1LR0VQIHQUJAM"}
{"rt": "55914.0", "trial_number": "1", "skipped": "False", "complete": "True", "assignment": "3YW4XOSQKRTI0K0Z2YPDTDJVFABU1I", "start_time": "1.51683046785e+12", "human_length": "41", "nodes_expanded": "999", "instance": "prb65535", "end_time": "1.51683052376e+12", "optimal_length": "14", "subject": "A1LR0VQIHQUJAM"}
{"rt": "56426.0", "trial_number": "0", "skipped": "True", "complete": "False", "assignment": "3VE8AYVF8N5BS2NU6U3TMN50JMNF8V", "start_time": "1.51673824362e+12", "human_length": "25", "nodes_expanded": "999", "instance": "prb65535", "end_time": "1.51673830005e+12", "optimal_length": "14", "subject": "A18QU0YQB6Q8DF"}
{"rt": "26727.0", "trial_number": "0", "skipped": "False", "complete": "True", "assignment": "3X87C8JFV7JQ2BSCY8KSFD9F2ILSQK", "start_time": "1.5167381455e+12", "human_length": "14", "nodes_expanded": "999", "instance": "prb65535", "end_time": "1.51673817222e+12", "optimal_length": "14", "subject": "A3Q0XAGQ7TD7MP"}
{"rt": "30039.0", "trial_number": "1", "skipped": "False", "complete": "True", "assignment": "3GLB5JMZFY3TNXFGYMKRQ0JDXNTDGZ", "start_time": "1.51794655601e+12", "human_length": "15", "nodes_expanded": "999", "instance": "prb65535", "end_time": "1.51794658605e+12", "optimal_length": "14", "subject": "A3Q0XAGQ7TD7MP"}
{"rt": "22246.0", "trial_number": "0", "skipped": "False", "complete": "True", "assignment": "3WSELTNVR4AZUVYAYCSWZIQW0J4ATB", "start_time": "1.51673795456e+12", "human_length": "20", "nodes_expanded": "999", "instance": "prb65535", "end_time": "1.51673797681e+12", "optimal_length": "14", "subject": "A2TQNX64349OZ9"}
{"rt": "44732.0", "trial_number": "0", "skipped": "False", "complete": "True", "assignment": "3X87C8JFV7JQ2BSCY8KSFD9F2ILSQK", "start_time": "1.51674465852e+12", "human_length": "15", "nodes_expanded": "999", "instance": "prb65535", "end_time": "1.51674470326e+12", "optimal_length": "14", "subject": "A21S7MA9DCW95E"}
{"rt": "22578.0", "trial_number": "0", "skipped": "False", "complete": "True", "assignment": "3IJXV6UZ1YR1KY4G6BFEG1DXP7SRI1", "start_time": "1.51675123926e+12", "human_length": "15", "nodes_expanded": "999", "instance": "prb65535", "end_time": "1.51675126184e+12", "optimal_length": "14", "subject": "A2RTJ6BDY0DZVZ"}
{"rt": "37284.0", "trial_number": "0", "skipped": "False", "complete": "True", "assignment": "3CFVK00FWMTAOGE2ZQ9TXMETAPZ6LP", "start_time": "1.51675215082e+12", "human_length": "18", "nodes_expanded": "999", "instance": "prb65535", "end_time": "1.5167521881e+12", "optimal_length": "14", "subject": "A26RO8GGTQAXGG"}
{"rt": "203175.0", "trial_number": "0", "skipped": "False", "complete": "True", "assignment": "3V5Q80FXIYZ5QB5C6ITQBN30WY823U", "start_time": "1.51753474445e+12", "human_length": "51", "nodes_expanded": "999", "instance": "prb65535", "end_time": "1.51753494763e+12", "optimal_length": "14", "subject": "A3NMQ3019X6YE0"}
{"rt": "27407.0", "trial_number": "0", "skipped": "False", "complete": "True", "assignment": "3TS1AR6UQRM7SOIBWPBN8N9589Y7FV", "start_time": "1.51683808239e+12", "human_length": "26", "nodes_expanded": "999", "instance": "prb65535", "end_time": "1.5168381098e+12", "optimal_length": "14", "subject": "A1F4N58CAX8IMK"}
{"rt": "28577.0", "trial_number": "1", "skipped": "False", "complete": "True", "assignment": "35DR22AR5ES6RR89U7EJ1DXW91AX3P", "start_time": "1.51795374751e+12", "human_length": "32", "nodes_expanded": "999", "instance": "prb65535", "end_time": "1.51795377608e+12", "optimal_length": "14", "subject": "A1F4N58CAX8IMK"}
{"rt": "74968.0", "trial_number": "0", "skipped": "False", "complete": "True", "assignment": "3TS1AR6UQRM7SOIBWPBN8N9589Y7FV", "start_time": "1.51684422507e+12", "human_length": "53", "nodes_expanded": "999", "instance": "prb65535", "end_time": "1.51684430004e+12", "optimal_length": "14", "subject": "A15FXHC1CVNW31"}
{"rt": "38262.0", "trial_number": "0", "skipped": "True", "complete": "False", "assignment": "31LM9EDVOM0C0BWUVMJXJINN3QPJNI", "start_time": "1.5175250532e+12", "human_length": "19", "nodes_expanded": "999", "instance": "prb65535", "end_time": "1.51752509146e+12", "optimal_length": "14", "subject": "A1NT8BT94ME6F5"}
{"rt": "64815.0", "trial_number": "0", "skipped": "False", "complete": "True", "assignment": "3TYCR1GOTDRCCQYD1V64UK7OHTBZLQ", "start_time": "1.51753694542e+12", "human_length": "50", "nodes_expanded": "999", "instance": "prb65535", "end_time": "1.51753701024e+12", "optimal_length": "14", "subject": "A13BZCNJ0WR1T7"}
{"rt": "49827.0", "trial_number": "0", "skipped": "False", "complete": "True", "assignment": "3H0W84IWBLAP4T2UASPNVMF5ZH7ER9", "start_time": "1.51755274288e+12", "human_length": "27", "nodes_expanded": "999", "instance": "prb65535", "end_time": "1.51755279270e+12", "optimal_length": "14", "subject": "A1AKX1C8GCVCTP"}
{"rt": "36305.0", "trial_number": "0", "skipped": "False", "complete": "True", "assignment": "3TPWUS5F8A9FFRZ2DVTYSXNJ6BWWC6", "start_time": "1.51794255737e+12", "human_length": "33", "nodes_expanded": "999", "instance": "prb65535", "end_time": "1.51794259368e+12", "optimal_length": "14", "subject": "A3GXC3VG37CQ3G"}
{"rt": "34428.0", "trial_number": "0", "skipped": "False", "complete": "True", "assignment": "34HJIJKLP64Z5YMIU6IKNXSH7PDV4I", "start_time": "1.51794297706e+12", "human_length": "24", "nodes_expanded": "999", "instance": "prb65535", "end_time": "1.51794301148e+12", "optimal_length": "14", "subject": "A3CTXNQ2GXIQSP"}
{"rt": "119354.0", "trial_number": "0", "skipped": "False", "complete": "True", "assignment": "33PPO7FECWN7JOLBOAKUBCWTC0AIDL", "start_time": "1.51794267802e+12", "human_length": "37", "nodes_expanded": "999", "instance": "prb65535", "end_time": "1.51794279737e+12", "optimal_length": "14", "subject": "AB5IVPS4OP9M7"}
{"rt": "23546.0", "trial_number": "0", "skipped": "False", "complete": "True", "assignment": "30IQTZXKALEAAZ9CBKW0ZFZP6O5X07", "start_time": "1.51794492443e+12", "human_length": "19", "nodes_expanded": "999", "instance": "prb65535", "end_time": "1.51794494797e+12", "optimal_length": "14", "subject": "A23XJ8I86R0O3B"}
{"rt": "80826.0", "trial_number": "0", "skipped": "False", "complete": "True", "assignment": "33PPO7FECWN7JOLBOAKUBCWTC0AIDL", "start_time": "1.51795162487e+12", "human_length": "28", "nodes_expanded": "999", "instance": "prb65535", "end_time": "1.5179517057e+12", "optimal_length": "14", "subject": "AXKM02NVXNGOM"}
{"rt": "81019.0", "trial_number": "0", "skipped": "False", "complete": "True", "assignment": "3PB5A5BD0WED6OE679H5Q89HBDGG71", "start_time": "1.51795293884e+12", "human_length": "52", "nodes_expanded": "999", "instance": "prb65535", "end_time": "1.51795301986e+12", "optimal_length": "14", "subject": "A1USR9JCAMDGM3"}
{"rt": "23638.0", "trial_number": "0", "skipped": "False", "complete": "True", "assignment": "3R5F3LQFV3SKIB1AENMWM1BICT5OZB", "start_time": "1.51795792020e+12", "human_length": "20", "nodes_expanded": "999", "instance": "prb65535", "end_time": "1.51795794384e+12", "optimal_length": "14", "subject": "A1N1EF0MIRSEZZ"}
{"rt": "54343.0", "trial_number": "0", "skipped": "False", "complete": "True", "assignment": "33F859I567LE8WC74WB3GA7E94XBHW", "start_time": "1.51796884309e+12", "human_length": "46", "nodes_expanded": "999", "instance": "prb65535", "end_time": "1.51796889743e+12", "optimal_length": "14", "subject": "A1GQS6USF2JEYG"}
{"rt": "36616.0", "trial_number": "0", "skipped": "False", "complete": "True", "assignment": "3IJXV6UZ1YR1KY4G6BFEG1DXR47RIC", "start_time": "1.51797166019e+12", "human_length": "31", "nodes_expanded": "999", "instance": "prb65535", "end_time": "1.51797169681e+12", "optimal_length": "14", "subject": "A18T3WK7J16C1B"}
{"rt": "20246.0", "trial_number": "0", "skipped": "False", "complete": "True", "assignment": "3FTF2T8WLSQDHTSZ1BJ7Q7MB14SW9H", "start_time": "1.51813699884e+12", "human_length": "16", "nodes_expanded": "999", "instance": "prb65535", "end_time": "1.51813701908e+12", "optimal_length": "14", "subject": "A1IUH9D7N69VS"}
{"rt": "27380.0", "trial_number": "0", "skipped": "False", "complete": "True", "assignment": "3XC1O3LBOTUGQEPEV3HM8W67X4RTLL", "start_time": "1.51813818051e+12", "human_length": "19", "nodes_expanded": "999", "instance": "prb65535", "end_time": "1.51813820789e+12", "optimal_length": "14", "subject": "A1ZTSCPETU3UJW"}
{"rt": "23661.0", "trial_number": "0", "skipped": "False", "complete": "True", "assignment": "3TAYZSBPLMG9ASQRWXURJVBCPLN2SH", "start_time": "1.51813646122e+12", "human_length": "15", "nodes_expanded": "999", "instance": "prb65535", "end_time": "1.51813648488e+12", "optimal_length": "14", "subject": "A2RCYLKY072XXO"}
{"rt": "40785.0", "trial_number": "0", "skipped": "False", "complete": "True", "assignment": "3ZSANO2JCGFTBM23KS9Y3E51YP4FSQ", "start_time": "1.51814339196e+12", "human_length": "36", "nodes_expanded": "999", "instance": "prb65535", "end_time": "1.51814343275e+12", "optimal_length": "14", "subject": "A1F42D4L22K5ND"}
{"rt": "84585.0", "trial_number": "0", "skipped": "False", "complete": "True", "assignment": "3VE8AYVF8N5BS2NU6U3TMN50MV38FP", "start_time": "1.51814284324e+12", "human_length": "33", "nodes_expanded": "999", "instance": "prb65535", "end_time": "1.51814292782e+12", "optimal_length": "14", "subject": "A1JN13098RIE78"}
{"rt": "115433.0", "trial_number": "0", "skipped": "False", "complete": "True", "assignment": "3HWRJOOET6A15827PHPSLWK1MOYSEU", "start_time": "1.51814578166e+12", "human_length": "83", "nodes_expanded": "999", "instance": "prb65535", "end_time": "1.51814589709e+12", "optimal_length": "14", "subject": "AO1QGAUZ85T6L"}
{"rt": "37484.0", "trial_number": "0", "skipped": "True", "complete": "False", "assignment": "3XLBSAQ9Z5KDX59BX15UBFPNNHYZ7Q", "start_time": "1.51814567226e+12", "human_length": "23", "nodes_expanded": "999", "instance": "prb65535", "end_time": "1.51814570974e+12", "optimal_length": "14", "subject": "A1HFNOKU591WCY"}
{"rt": "29253.0", "trial_number": "0", "skipped": "False", "complete": "True", "assignment": "3FUI0JHJPY6UBT1VAI7VUX8S3KH33W", "start_time": "1.51815119974e+12", "human_length": "19", "nodes_expanded": "999", "instance": "prb65535", "end_time": "1.518151229e+12", "optimal_length": "14", "subject": "A2QIZ31TMHU0GD"}
{"rt": "55403.0", "trial_number": "0", "skipped": "False", "complete": "True", "assignment": "3RUIQRXJBCWS71H9MUFVM5WQ3SCLLJ", "start_time": "1.51815574186e+12", "human_length": "27", "nodes_expanded": "999", "instance": "prb65535", "end_time": "1.51815579726e+12", "optimal_length": "14", "subject": "A1SJRFJWFXSDH4"}
{"rt": "30373.0", "trial_number": "0", "skipped": "False", "complete": "True", "assignment": "3M0BCWMB8W4W5M7WZVX3HDH1P53WB1", "start_time": "1.5181592916e+12", "human_length": "17", "nodes_expanded": "999", "instance": "prb65535", "end_time": "1.51815932198e+12", "optimal_length": "14", "subject": "A53S7J4JGWG38"}
{"rt": "63098.0", "trial_number": "0", "skipped": "False", "complete": "True", "assignment": "3IXEICO793RY7TM78ZBKJDOA7ADT6Q", "start_time": "1.51816958713e+12", "human_length": "42", "nodes_expanded": "999", "instance": "prb65535", "end_time": "1.51816965023e+12", "optimal_length": "14", "subject": "ALH1K6ZAQQMN7"}
