{"rt": "101886.0", "trial_number": "0", "skipped": "False", "complete": "True", "assignment": "3ZV9H2YQQEFR2R3JK2IXZUJPXAF3WW", "start_time": "1.51630757818e+12", "human_length": "45", "nodes_expanded": "999", "instance": "prb68910", "end_time": "1.51630768007e+12", "optimal_length": "11", "subject": "A289D98Z4GAZ28"}
{"rt": "10810.0", "trial_number": "0", "skipped": "False", "complete": "True", "assignment": "3PMBY0YE28B43VMUKKJ6EDF85RV9C8", "start_time": "1.51638691715e+12", "human_length": "11", "nodes_expanded": "999", "instance": "prb68910", "end_time": "1.51638692796e+12", "optimal_length": "11", "subject": "A191V7PT3DQKDP"}
{"rt": "0.0", "trial_number": "0", "skipped": "False", "complete": "False", "assignment": "3ZSY5X72NYJBGKFJ46SJ0Y9J0RLROB", "start_time": "1.51638832212e+12", "human_length": "1", "nodes_expanded": "999", "instance": "prb68910", "end_time": "1.51638832212e+12", "optimal_length": "11", "subject": "AU4KK3OYS2UZF"}
{"rt": "3446.0", "trial_number": "1", "skipped": "False", "complete": "False", "assignment": "3ZSY5X72NYJBGKFJ46SJ0Y9J0RLROB", "start_time": "1.51638832214e+12", "human_length": "2", "nodes_expanded": "999", "instance": "prb68910", "end_time": "1.51638832559e+12", "optimal_length": "11", "subject": "AU4KK3OYS2UZF"}
{"rt": "40347.0", "trial_number": "2", "skipped": "False", "complete": "False", "assignment": "3ZSY5X72NYJBGKFJ46SJ0Y9J0RLROB", "start_time": "1.516388327e+12", "human_length": "27", "nodes_expanded": "999", "instance": "prb68910", "end_time": "1.51638836735e+12", "optimal_length": "11", "subject": "AU4KK3OYS2UZF"}
{"rt": "0.0", "trial_number": "3", "skipped": "False", "complete": "False", "assignment": "3ZSY5X72NYJBGKFJ46SJ0Y9J0RLROB", "start_time": "1.51638839388e+12", "human_length": "1", "nodes_expanded": "999", "instance": "prb68910", "end_time": "1.51638839388e+12", "optimal_length": "11", "subject": "AU4KK3OYS2UZF"}
{"rt": "8203.0", "trial_number": "4", "skipped": "False", "complete": "False", "assignment": "3ZSY5X72NYJBGKFJ46SJ0Y9J0RLROB", "start_time": "1.5163883939e+12", "human_length": "2", "nodes_expanded": "999", "instance": "prb68910", "end_time": "1.51638840211e+12", "optimal_length": "11", "subject": "AU4KK3OYS2UZF"}
{"rt": "10691.0", "trial_number": "5", "skipped": "False", "complete": "True", "assignment": "3ZSY5X72NYJBGKFJ46SJ0Y9J0RLROB", "start_time": "1.51638840372e+12", "human_length": "12", "nodes_expanded": "999", "instance": "prb68910", "end_time": "1.51638841441e+12", "optimal_length": "11", "subject": "AU4KK3OYS2UZF"}
{"rt": "86189.0", "trial_number": "0", "skipped": "False", "complete": "True", "assignment": "34BBWHLWHBJ6SUL255PK30LEGY5IWG", "start_time": "1.51639111554e+12", "human_length": "11", "nodes_expanded": "999", "instance": "prb68910", "end_time": "1.51639120172e+12", "optimal_length": "11", "subject": "A214HWAW1PYWO8"}
{"rt": "202608.0", "trial_number": "0", "skipped": "False", "complete": "False", "assignment": "3TYCR1GOTDRCCQYD1V64UK7OE48LZS", "start_time": "1.51639599510e+12", "human_length": "121", "nodes_expanded": "999", "instance": "prb68910", "end_time": "1.51639619771e+12", "optimal_length": "11", "subject": "A16SJ5D3DKUEXJ"}
{"rt": "91950.0", "trial_number": "1", "skipped": "False", "complete": "True", "assignment": "3TYCR1GOTDRCCQYD1V64UK7OE48LZS", "start_time": "1.51639619934e+12", "human_length": "60", "nodes_expanded": "999", "instance": "prb68910", "end_time": "1.51639629129e+12", "optimal_length": "11", "subject": "A16SJ5D3DKUEXJ"}
{"rt": "0.0", "trial_number": "0", "skipped": "False", "complete": "False", "assignment": "3VE8AYVF8N5BS2NU6U3TMN50JMNF8V", "start_time": "1.51673725027e+12", "human_length": "1", "nodes_expanded": "999", "instance": "prb68910", "end_time": "1.51673725027e+12", "optimal_length": "11", "subject": "A18QU0YQB6Q8DF"}
{"rt": "0.0", "trial_number": "1", "skipped": "False", "complete": "False", "assignment": "3VE8AYVF8N5BS2NU6U3TMN50JMNF8V", "start_time": "1.51673725027e+12", "human_length": "1", "nodes_expanded": "999", "instance": "prb68910", "end_time": "1.51673725027e+12", "optimal_length": "11", "subject": "A18QU0YQB6Q8DF"}
{"rt": "46528.0", "trial_number": "2", "skipped": "True", "complete": "False", "assignment": "3VE8AYVF8N5BS2NU6U3TMN50JMNF8V", "start_time": "1.51673725027e+12", "human_length": "46", "nodes_expanded": "999", "instance": "prb68910", "end_time": "1.5167372968e+12", "optimal_length": "11", "subject": "A18QU0YQB6Q8DF"}
{"rt": "64318.0", "trial_number": "0", "skipped": "False", "complete": "False", "assignment": "3X87C8JFV7JQ2BSCY8KSFD9F2ILSQK", "start_time": "1.5167399598e+12", "human_length": "25", "nodes_expanded": "999", "instance": "prb68910", "end_time": "1.51674002411e+12", "optimal_length": "11", "subject": "A3Q0XAGQ7TD7MP"}
{"rt": "0.0", "trial_number": "1", "skipped": "False", "complete": "False", "assignment": "3X87C8JFV7JQ2BSCY8KSFD9F2ILSQK", "start_time": "1.51674002749e+12", "human_length": "1", "nodes_expanded": "999", "instance": "prb68910", "end_time": "1.51674002749e+12", "optimal_length": "11", "subject": "A3Q0XAGQ7TD7MP"}
{"rt": "0.0", "trial_number": "2", "skipped": "False", "complete": "False", "assignment": "3X87C8JFV7JQ2BSCY8KSFD9F2ILSQK", "start_time": "1.5167399598e+12", "human_length": "1", "nodes_expanded": "999", "instance": "prb68910", "end_time": "1.5167399598e+12", "optimal_length": "11", "subject": "A3Q0XAGQ7TD7MP"}
{"rt": "0.0", "trial_number": "3", "skipped": "False", "complete": "False", "assignment": "3X87C8JFV7JQ2BSCY8KSFD9F2ILSQK", "start_time": "1.51674002749e+12", "human_length": "1", "nodes_expanded": "999", "instance": "prb68910", "end_time": "1.51674002749e+12", "optimal_length": "11", "subject": "A3Q0XAGQ7TD7MP"}
{"rt": "0.0", "trial_number": "4", "skipped": "False", "complete": "False", "assignment": "3X87C8JFV7JQ2BSCY8KSFD9F2ILSQK", "start_time": "1.5167399598e+12", "human_length": "1", "nodes_expanded": "999", "instance": "prb68910", "end_time": "1.5167399598e+12", "optimal_length": "11", "subject": "A3Q0XAGQ7TD7MP"}
{"rt": "28105.0", "trial_number": "5", "skipped": "False", "complete": "True", "assignment": "3X87C8JFV7JQ2BSCY8KSFD9F2ILSQK", "start_time": "1.51674002749e+12", "human_length": "13", "nodes_expanded": "999", "instance": "prb68910", "end_time": "1.5167400556e+12", "optimal_length": "11", "subject": "A3Q0XAGQ7TD7MP"}
{"rt": "40518.0", "trial_number": "6", "skipped": "False", "complete": "True", "assignment": "3GLB5JMZFY3TNXFGYMKRQ0JDXNTDGZ", "start_time": "1.51794673274e+12", "human_length": "14", "nodes_expanded": "999", "instance": "prb68910", "end_time": "1.51794677326e+12", "optimal_length": "11", "subject": "A3Q0XAGQ7TD7MP"}
{"rt": "30684.0", "trial_number": "0", "skipped": "False", "complete": "False", "assignment": "3WSELTNVR4AZUVYAYCSWZIQW0J4ATB", "start_time": "1.51673940892e+12", "human_length": "20", "nodes_expanded": "999", "instance": "prb68910", "end_time": "1.51673943960e+12", "optimal_length": "11", "subject": "A2TQNX64349OZ9"}
{"rt": "0.0", "trial_number": "1", "skipped": "False", "complete": "False", "assignment": "3WSELTNVR4AZUVYAYCSWZIQW0J4ATB", "start_time": "1.51673944342e+12", "human_length": "1", "nodes_expanded": "999", "instance": "prb68910", "end_time": "1.51673944342e+12", "optimal_length": "11", "subject": "A2TQNX64349OZ9"}
{"rt": "0.0", "trial_number": "2", "skipped": "False", "complete": "False", "assignment": "3WSELTNVR4AZUVYAYCSWZIQW0J4ATB", "start_time": "1.51673940892e+12", "human_length": "1", "nodes_expanded": "999", "instance": "prb68910", "end_time": "1.51673940892e+12", "optimal_length": "11", "subject": "A2TQNX64349OZ9"}
{"rt": "0.0", "trial_number": "3", "skipped": "False", "complete": "False", "assignment": "3WSELTNVR4AZUVYAYCSWZIQW0J4ATB", "start_time": "1.51673944342e+12", "human_length": "1", "nodes_expanded": "999", "instance": "prb68910", "end_time": "1.51673944342e+12", "optimal_length": "11", "subject": "A2TQNX64349OZ9"}
{"rt": "0.0", "trial_number": "4", "skipped": "False", "complete": "False", "assignment": "3WSELTNVR4AZUVYAYCSWZIQW0J4ATB", "start_time": "1.51673940892e+12", "human_length": "1", "nodes_expanded": "999", "instance": "prb68910", "end_time": "1.51673940892e+12", "optimal_length": "11", "subject": "A2TQNX64349OZ9"}
{"rt": "37388.0", "trial_number": "5", "skipped": "True", "complete": "False", "assignment": "3WSELTNVR4AZUVYAYCSWZIQW0J4ATB", "start_time": "1.51673944342e+12", "human_length": "115", "nodes_expanded": "999", "instance": "prb68910", "end_time": "1.51673948081e+12", "optimal_length": "11", "subject": "A2TQNX64349OZ9"}
{"rt": "60738.0", "trial_number": "0", "skipped": "False", "complete": "False", "assignment": "3X87C8JFV7JQ2BSCY8KSFD9F2ILSQK", "start_time": "1.51674477926e+12", "human_length": "26", "nodes_expanded": "999", "instance": "prb68910", "end_time": "1.51674484e+12", "optimal_length": "11", "subject": "A21S7MA9DCW95E"}
{"rt": "25840.0", "trial_number": "1", "skipped": "False", "complete": "False", "assignment": "3X87C8JFV7JQ2BSCY8KSFD9F2ILSQK", "start_time": "1.51674484207e+12", "human_length": "9", "nodes_expanded": "999", "instance": "prb68910", "end_time": "1.51674486791e+12", "optimal_length": "11", "subject": "A21S7MA9DCW95E"}
{"rt": "0.0", "trial_number": "2", "skipped": "False", "complete": "False", "assignment": "3X87C8JFV7JQ2BSCY8KSFD9F2ILSQK", "start_time": "1.51674487112e+12", "human_length": "1", "nodes_expanded": "999", "instance": "prb68910", "end_time": "1.51674487112e+12", "optimal_length": "11", "subject": "A21S7MA9DCW95E"}
{"rt": "0.0", "trial_number": "3", "skipped": "False", "complete": "False", "assignment": "3X87C8JFV7JQ2BSCY8KSFD9F2ILSQK", "start_time": "1.51674477926e+12", "human_length": "1", "nodes_expanded": "999", "instance": "prb68910", "end_time": "1.51674477926e+12", "optimal_length": "11", "subject": "A21S7MA9DCW95E"}
{"rt": "0.0", "trial_number": "4", "skipped": "False", "complete": "False", "assignment": "3X87C8JFV7JQ2BSCY8KSFD9F2ILSQK", "start_time": "1.51674484207e+12", "human_length": "1", "nodes_expanded": "999", "instance": "prb68910", "end_time": "1.51674484207e+12", "optimal_length": "11", "subject": "A21S7MA9DCW95E"}
{"rt": "0.0", "trial_number": "5", "skipped": "False", "complete": "False", "assignment": "3X87C8JFV7JQ2BSCY8KSFD9F2ILSQK", "start_time": "1.51674487112e+12", "human_length": "1", "nodes_expanded": "999", "instance": "prb68910", "end_time": "1.51674487112e+12", "optimal_length": "11", "subject": "A21S7MA9DCW95E"}
{"rt": "0.0", "trial_number": "6", "skipped": "False", "complete": "False", "assignment": "3X87C8JFV7JQ2BSCY8KSFD9F2ILSQK", "start_time": "1.51674477926e+12", "human_length": "1", "nodes_expanded": "999", "instance": "prb68910", "end_time": "1.51674477926e+12", "optimal_length": "11", "subject": "A21S7MA9DCW95E"}
{"rt": "0.0", "trial_number": "7", "skipped": "False", "complete": "False", "assignment": "3X87C8JFV7JQ2BSCY8KSFD9F2ILSQK", "start_time": "1.51674484207e+12", "human_length": "1", "nodes_expanded": "999", "instance": "prb68910", "end_time": "1.51674484207e+12", "optimal_length": "11", "subject": "A21S7MA9DCW95E"}
{"rt": "21053.0", "trial_number": "8", "skipped": "False", "complete": "True", "assignment": "3X87C8JFV7JQ2BSCY8KSFD9F2ILSQK", "start_time": "1.51674487112e+12", "human_length": "11", "nodes_expanded": "999", "instance": "prb68910", "end_time": "1.51674489218e+12", "optimal_length": "11", "subject": "A21S7MA9DCW95E"}
{"rt": "109356.0", "trial_number": "0", "skipped": "False", "complete": "False", "assignment": "3IJXV6UZ1YR1KY4G6BFEG1DXP7SRI1", "start_time": "1.51674970052e+12", "human_length": "55", "nodes_expanded": "999", "instance": "prb68910", "end_time": "1.51674980987e+12", "optimal_length": "11", "subject": "A2RTJ6BDY0DZVZ"}
{"rt": "0.0", "trial_number": "1", "skipped": "False", "complete": "False", "assignment": "3IJXV6UZ1YR1KY4G6BFEG1DXP7SRI1", "start_time": "1.5167498115e+12", "human_length": "1", "nodes_expanded": "999", "instance": "prb68910", "end_time": "1.5167498115e+12", "optimal_length": "11", "subject": "A2RTJ6BDY0DZVZ"}
{"rt": "0.0", "trial_number": "2", "skipped": "False", "complete": "False", "assignment": "3IJXV6UZ1YR1KY4G6BFEG1DXP7SRI1", "start_time": "1.51674970052e+12", "human_length": "1", "nodes_expanded": "999", "instance": "prb68910", "end_time": "1.51674970052e+12", "optimal_length": "11", "subject": "A2RTJ6BDY0DZVZ"}
{"rt": "0.0", "trial_number": "3", "skipped": "False", "complete": "False", "assignment": "3IJXV6UZ1YR1KY4G6BFEG1DXP7SRI1", "start_time": "1.5167498115e+12", "human_length": "1", "nodes_expanded": "999", "instance": "prb68910", "end_time": "1.5167498115e+12", "optimal_length": "11", "subject": "A2RTJ6BDY0DZVZ"}
{"rt": "0.0", "trial_number": "4", "skipped": "False", "complete": "False", "assignment": "3IJXV6UZ1YR1KY4G6BFEG1DXP7SRI1", "start_time": "1.51674970052e+12", "human_length": "1", "nodes_expanded": "999", "instance": "prb68910", "end_time": "1.51674970052e+12", "optimal_length": "11", "subject": "A2RTJ6BDY0DZVZ"}
{"rt": "63893.0", "trial_number": "5", "skipped": "True", "complete": "False", "assignment": "3IJXV6UZ1YR1KY4G6BFEG1DXP7SRI1", "start_time": "1.5167498115e+12", "human_length": "198", "nodes_expanded": "999", "instance": "prb68910", "end_time": "1.51674987539e+12", "optimal_length": "11", "subject": "A2RTJ6BDY0DZVZ"}
{"rt": "126670.0", "trial_number": "0", "skipped": "False", "complete": "True", "assignment": "3V5Q80FXIYZ5QB5C6ITQBN30WY823U", "start_time": "1.51753210456e+12", "human_length": "60", "nodes_expanded": "999", "instance": "prb68910", "end_time": "1.51753223123e+12", "optimal_length": "11", "subject": "A3NMQ3019X6YE0"}
{"rt": "0.0", "trial_number": "0", "skipped": "False", "complete": "False", "assignment": "3X4MXAO0BHWJLTOLVSJTHSM54OHWRG", "start_time": "1.51682440552e+12", "human_length": "1", "nodes_expanded": "999", "instance": "prb68910", "end_time": "1.51682440552e+12", "optimal_length": "11", "subject": "A2IBQA01NR5N76"}
{"rt": "49596.0", "trial_number": "1", "skipped": "False", "complete": "True", "assignment": "3X4MXAO0BHWJLTOLVSJTHSM54OHWRG", "start_time": "1.51682440552e+12", "human_length": "40", "nodes_expanded": "999", "instance": "prb68910", "end_time": "1.51682445511e+12", "optimal_length": "11", "subject": "A2IBQA01NR5N76"}
{"rt": "0.0", "trial_number": "0", "skipped": "False", "complete": "False", "assignment": "3IHR8NYAM89M0EPM8U9LH53ZJDTP4U", "start_time": "1.51682648738e+12", "human_length": "1", "nodes_expanded": "999", "instance": "prb68910", "end_time": "1.51682648738e+12", "optimal_length": "11", "subject": "A23437BMZ5T1FH"}
{"rt": "32736.0", "trial_number": "1", "skipped": "True", "complete": "False", "assignment": "3IHR8NYAM89M0EPM8U9LH53ZJDTP4U", "start_time": "1.51682648738e+12", "human_length": "44", "nodes_expanded": "999", "instance": "prb68910", "end_time": "1.51682652012e+12", "optimal_length": "11", "subject": "A23437BMZ5T1FH"}
{"rt": "269768.0", "trial_number": "0", "skipped": "False", "complete": "False", "assignment": "37WLF8U1WQYZ4AWKEQXSIM1ELVEK6W", "start_time": "1.51682994708e+12", "human_length": "110", "nodes_expanded": "999", "instance": "prb68910", "end_time": "1.51683021684e+12", "optimal_length": "11", "subject": "A2EPBSY0VPI38S"}
{"rt": "0.0", "trial_number": "1", "skipped": "False", "complete": "False", "assignment": "37WLF8U1WQYZ4AWKEQXSIM1ELVEK6W", "start_time": "1.51683022680e+12", "human_length": "1", "nodes_expanded": "999", "instance": "prb68910", "end_time": "1.51683022680e+12", "optimal_length": "11", "subject": "A2EPBSY0VPI38S"}
{"rt": "0.0", "trial_number": "2", "skipped": "False", "complete": "False", "assignment": "37WLF8U1WQYZ4AWKEQXSIM1ELVEK6W", "start_time": "1.51682994708e+12", "human_length": "1", "nodes_expanded": "999", "instance": "prb68910", "end_time": "1.51682994708e+12", "optimal_length": "11", "subject": "A2EPBSY0VPI38S"}
{"rt": "60429.0", "trial_number": "3", "skipped": "True", "complete": "False", "assignment": "37WLF8U1WQYZ4AWKEQXSIM1ELVEK6W", "start_time": "1.51683022680e+12", "human_length": "147", "nodes_expanded": "999", "instance": "prb68910", "end_time": "1.51683028723e+12", "optimal_length": "11", "subject": "A2EPBSY0VPI38S"}
{"rt": "0.0", "trial_number": "0", "skipped": "False", "complete": "False", "assignment": "3YW4XOSQKRTI0K0Z2YPDTDJVFABU1I", "start_time": "1.51683067138e+12", "human_length": "1", "nodes_expanded": "999", "instance": "prb68910", "end_time": "1.51683067138e+12", "optimal_length": "11", "subject": "A1LR0VQIHQUJAM"}
{"rt": "43577.0", "trial_number": "1", "skipped": "False", "complete": "True", "assignment": "3YW4XOSQKRTI0K0Z2YPDTDJVFABU1I", "start_time": "1.51683067138e+12", "human_length": "26", "nodes_expanded": "999", "instance": "prb68910", "end_time": "1.51683071496e+12", "optimal_length": "11", "subject": "A1LR0VQIHQUJAM"}
{"rt": "46528.0", "trial_number": "0", "skipped": "True", "complete": "False", "assignment": "3VE8AYVF8N5BS2NU6U3TMN50JMNF8V", "start_time": "1.51673725027e+12", "human_length": "18", "nodes_expanded": "999", "instance": "prb68910", "end_time": "1.5167372968e+12", "optimal_length": "11", "subject": "A18QU0YQB6Q8DF"}
{"rt": "64318.0", "trial_number": "0", "skipped": "False", "complete": "False", "assignment": "3X87C8JFV7JQ2BSCY8KSFD9F2ILSQK", "start_time": "1.5167399598e+12", "human_length": "25", "nodes_expanded": "999", "instance": "prb68910", "end_time": "1.51674002411e+12", "optimal_length": "11", "subject": "A3Q0XAGQ7TD7MP"}
{"rt": "28105.0", "trial_number": "1", "skipped": "False", "complete": "True", "assignment": "3X87C8JFV7JQ2BSCY8KSFD9F2ILSQK", "start_time": "1.51674002749e+12", "human_length": "13", "nodes_expanded": "999", "instance": "prb68910", "end_time": "1.5167400556e+12", "optimal_length": "11", "subject": "A3Q0XAGQ7TD7MP"}
{"rt": "40518.0", "trial_number": "2", "skipped": "False", "complete": "True", "assignment": "3GLB5JMZFY3TNXFGYMKRQ0JDXNTDGZ", "start_time": "1.51794673274e+12", "human_length": "14", "nodes_expanded": "999", "instance": "prb68910", "end_time": "1.51794677326e+12", "optimal_length": "11", "subject": "A3Q0XAGQ7TD7MP"}
{"rt": "30684.0", "trial_number": "0", "skipped": "False", "complete": "False", "assignment": "3WSELTNVR4AZUVYAYCSWZIQW0J4ATB", "start_time": "1.51673940892e+12", "human_length": "20", "nodes_expanded": "999", "instance": "prb68910", "end_time": "1.51673943960e+12", "optimal_length": "11", "subject": "A2TQNX64349OZ9"}
{"rt": "37388.0", "trial_number": "1", "skipped": "True", "complete": "False", "assignment": "3WSELTNVR4AZUVYAYCSWZIQW0J4ATB", "start_time": "1.51673944342e+12", "human_length": "29", "nodes_expanded": "999", "instance": "prb68910", "end_time": "1.51673948081e+12", "optimal_length": "11", "subject": "A2TQNX64349OZ9"}
{"rt": "60738.0", "trial_number": "0", "skipped": "False", "complete": "False", "assignment": "3X87C8JFV7JQ2BSCY8KSFD9F2ILSQK", "start_time": "1.51674477926e+12", "human_length": "26", "nodes_expanded": "999", "instance": "prb68910", "end_time": "1.51674484e+12", "optimal_length": "11", "subject": "A21S7MA9DCW95E"}
{"rt": "25840.0", "trial_number": "1", "skipped": "False", "complete": "False", "assignment": "3X87C8JFV7JQ2BSCY8KSFD9F2ILSQK", "start_time": "1.51674484207e+12", "human_length": "9", "nodes_expanded": "999", "instance": "prb68910", "end_time": "1.51674486791e+12", "optimal_length": "11", "subject": "A21S7MA9DCW95E"}
{"rt": "21053.0", "trial_number": "2", "skipped": "False", "complete": "True", "assignment": "3X87C8JFV7JQ2BSCY8KSFD9F2ILSQK", "start_time": "1.51674487112e+12", "human_length": "11", "nodes_expanded": "999", "instance": "prb68910", "end_time": "1.51674489218e+12", "optimal_length": "11", "subject": "A21S7MA9DCW95E"}
{"rt": "109356.0", "trial_number": "0", "skipped": "False", "complete": "False", "assignment": "3IJXV6UZ1YR1KY4G6BFEG1DXP7SRI1", "start_time": "1.51674970052e+12", "human_length": "55", "nodes_expanded": "999", "instance": "prb68910", "end_time": "1.51674980987e+12", "optimal_length": "11", "subject": "A2RTJ6BDY0DZVZ"}
{"rt": "63893.0", "trial_number": "1", "skipped": "True", "complete": "False", "assignment": "3IJXV6UZ1YR1KY4G6BFEG1DXP7SRI1", "start_time": "1.5167498115e+12", "human_length": "34", "nodes_expanded": "999", "instance": "prb68910", "end_time": "1.51674987539e+12", "optimal_length": "11", "subject": "A2RTJ6BDY0DZVZ"}
{"rt": "126670.0", "trial_number": "0", "skipped": "False", "complete": "True", "assignment": "3V5Q80FXIYZ5QB5C6ITQBN30WY823U", "start_time": "1.51753210456e+12", "human_length": "60", "nodes_expanded": "999", "instance": "prb68910", "end_time": "1.51753223123e+12", "optimal_length": "11", "subject": "A3NMQ3019X6YE0"}
{"rt": "82199.0", "trial_number": "0", "skipped": "False", "complete": "False", "assignment": "3TS1AR6UQRM7SOIBWPBN8N9589Y7FV", "start_time": "1.51683792533e+12", "human_length": "62", "nodes_expanded": "999", "instance": "prb68910", "end_time": "1.51683800752e+12", "optimal_length": "11", "subject": "A1F4N58CAX8IMK"}
{"rt": "53256.0", "trial_number": "1", "skipped": "False", "complete": "True", "assignment": "35DR22AR5ES6RR89U7EJ1DXW91AX3P", "start_time": "1.51795392803e+12", "human_length": "51", "nodes_expanded": "999", "instance": "prb68910", "end_time": "1.51795398128e+12", "optimal_length": "11", "subject": "A1F4N58CAX8IMK"}
{"rt": "93247.0", "trial_number": "0", "skipped": "False", "complete": "True", "assignment": "3M0BCWMB8W4W5M7WZVX3HDH1M3FBWL", "start_time": "1.51683977575e+12", "human_length": "53", "nodes_expanded": "999", "instance": "prb68910", "end_time": "1.516839869e+12", "optimal_length": "11", "subject": "A1XDMS0KFSF5JW"}
{"rt": "46372.0", "trial_number": "0", "skipped": "False", "complete": "False", "assignment": "3TS1AR6UQRM7SOIBWPBN8N9589Y7FV", "start_time": "1.51684213090e+12", "human_length": "29", "nodes_expanded": "999", "instance": "prb68910", "end_time": "1.51684217728e+12", "optimal_length": "11", "subject": "A15FXHC1CVNW31"}
{"rt": "19834.0", "trial_number": "1", "skipped": "False", "complete": "True", "assignment": "3TS1AR6UQRM7SOIBWPBN8N9589Y7FV", "start_time": "1.51684223801e+12", "human_length": "16", "nodes_expanded": "999", "instance": "prb68910", "end_time": "1.51684225784e+12", "optimal_length": "11", "subject": "A15FXHC1CVNW31"}
{"rt": "11341.0", "trial_number": "0", "skipped": "True", "complete": "False", "assignment": "31LM9EDVOM0C0BWUVMJXJINN3QPJNI", "start_time": "1.51752561016e+12", "human_length": "7", "nodes_expanded": "999", "instance": "prb68910", "end_time": "1.5175256215e+12", "optimal_length": "11", "subject": "A1NT8BT94ME6F5"}
{"rt": "66888.0", "trial_number": "0", "skipped": "False", "complete": "True", "assignment": "37TD41K0AIHM8AITTQJXV8KY05QCSB", "start_time": "1.51752533844e+12", "human_length": "36", "nodes_expanded": "999", "instance": "prb68910", "end_time": "1.51752540533e+12", "optimal_length": "11", "subject": "A30KYQGABO7JER"}
{"rt": "28636.0", "trial_number": "0", "skipped": "False", "complete": "False", "assignment": "36H9ULYP6320CJJDXY0KBDEE1Z3JFB", "start_time": "1.51753259873e+12", "human_length": "13", "nodes_expanded": "999", "instance": "prb68910", "end_time": "1.51753262736e+12", "optimal_length": "11", "subject": "AN098C29EGJ6"}
{"rt": "24559.0", "trial_number": "1", "skipped": "False", "complete": "True", "assignment": "36H9ULYP6320CJJDXY0KBDEE1Z3JFB", "start_time": "1.51753263165e+12", "human_length": "12", "nodes_expanded": "999", "instance": "prb68910", "end_time": "1.51753265621e+12", "optimal_length": "11", "subject": "AN098C29EGJ6"}
{"rt": "16665.0", "trial_number": "0", "skipped": "False", "complete": "True", "assignment": "3TYCR1GOTDRCCQYD1V64UK7OHTBZLQ", "start_time": "1.51753587559e+12", "human_length": "16", "nodes_expanded": "999", "instance": "prb68910", "end_time": "1.51753589225e+12", "optimal_length": "11", "subject": "A13BZCNJ0WR1T7"}
{"rt": "47875.0", "trial_number": "0", "skipped": "False", "complete": "True", "assignment": "3TPWUS5F8A9FFRZ2DVTYSXNJ6BWWC6", "start_time": "1.51793962651e+12", "human_length": "19", "nodes_expanded": "999", "instance": "prb68910", "end_time": "1.51793967438e+12", "optimal_length": "11", "subject": "A3GXC3VG37CQ3G"}
{"rt": "54339.0", "trial_number": "0", "skipped": "False", "complete": "False", "assignment": "3IAS3U3I0GOAT69PLB8WT61CKJ22BO", "start_time": "1.51794007051e+12", "human_length": "27", "nodes_expanded": "999", "instance": "prb68910", "end_time": "1.51794012485e+12", "optimal_length": "11", "subject": "A2C84POENS2UNY"}
{"rt": "82975.0", "trial_number": "1", "skipped": "True", "complete": "False", "assignment": "3IAS3U3I0GOAT69PLB8WT61CKJ22BO", "start_time": "1.51794012724e+12", "human_length": "42", "nodes_expanded": "999", "instance": "prb68910", "end_time": "1.51794021021e+12", "optimal_length": "11", "subject": "A2C84POENS2UNY"}
{"rt": "42134.0", "trial_number": "0", "skipped": "False", "complete": "True", "assignment": "34HJIJKLP64Z5YMIU6IKNXSH7PDV4I", "start_time": "1.51794293425e+12", "human_length": "26", "nodes_expanded": "999", "instance": "prb68910", "end_time": "1.51794297638e+12", "optimal_length": "11", "subject": "A3CTXNQ2GXIQSP"}
{"rt": "100169.0", "trial_number": "0", "skipped": "True", "complete": "False", "assignment": "3U84XHCDIDLGEIRSV37N835DV0K4ZS", "start_time": "1.51794048865e+12", "human_length": "35", "nodes_expanded": "999", "instance": "prb68910", "end_time": "1.51794058882e+12", "optimal_length": "11", "subject": "A8KX1HFH8NE2Q"}
{"rt": "46468.0", "trial_number": "0", "skipped": "False", "complete": "False", "assignment": "3STRJBFXOXZ5687WA35LTWTS7QZKTT", "start_time": "1.51794381701e+12", "human_length": "20", "nodes_expanded": "999", "instance": "prb68910", "end_time": "1.51794386348e+12", "optimal_length": "11", "subject": "A3OB6REG5CGHK1"}
{"rt": "22966.0", "trial_number": "1", "skipped": "False", "complete": "False", "assignment": "3STRJBFXOXZ5687WA35LTWTS7QZKTT", "start_time": "1.51794386462e+12", "human_length": "13", "nodes_expanded": "999", "instance": "prb68910", "end_time": "1.51794388758e+12", "optimal_length": "11", "subject": "A3OB6REG5CGHK1"}
{"rt": "21422.0", "trial_number": "2", "skipped": "False", "complete": "False", "assignment": "3STRJBFXOXZ5687WA35LTWTS7QZKTT", "start_time": "1.51794389008e+12", "human_length": "7", "nodes_expanded": "999", "instance": "prb68910", "end_time": "1.5179439115e+12", "optimal_length": "11", "subject": "A3OB6REG5CGHK1"}
{"rt": "47734.0", "trial_number": "3", "skipped": "False", "complete": "False", "assignment": "3STRJBFXOXZ5687WA35LTWTS7QZKTT", "start_time": "1.51794391283e+12", "human_length": "3", "nodes_expanded": "999", "instance": "prb68910", "end_time": "1.51794396056e+12", "optimal_length": "11", "subject": "A3OB6REG5CGHK1"}
{"rt": "15359.0", "trial_number": "4", "skipped": "False", "complete": "True", "assignment": "3STRJBFXOXZ5687WA35LTWTS7QZKTT", "start_time": "1.51794396178e+12", "human_length": "13", "nodes_expanded": "999", "instance": "prb68910", "end_time": "1.51794397714e+12", "optimal_length": "11", "subject": "A3OB6REG5CGHK1"}
{"rt": "33564.0", "trial_number": "0", "skipped": "False", "complete": "True", "assignment": "33PPO7FECWN7JOLBOAKUBCWTC0AIDL", "start_time": "1.51795110748e+12", "human_length": "16", "nodes_expanded": "999", "instance": "prb68910", "end_time": "1.51795114104e+12", "optimal_length": "11", "subject": "AXKM02NVXNGOM"}
{"rt": "56149.0", "trial_number": "0", "skipped": "False", "complete": "True", "assignment": "3PB5A5BD0WED6OE679H5Q89HBDGG71", "start_time": "1.51795061144e+12", "human_length": "28", "nodes_expanded": "999", "instance": "prb68910", "end_time": "1.51795066759e+12", "optimal_length": "11", "subject": "A1USR9JCAMDGM3"}
{"rt": "96546.0", "trial_number": "0", "skipped": "False", "complete": "True", "assignment": "3R5F3LQFV3SKIB1AENMWM1BICT5OZB", "start_time": "1.51795697758e+12", "human_length": "52", "nodes_expanded": "999", "instance": "prb68910", "end_time": "1.51795707412e+12", "optimal_length": "11", "subject": "A1N1EF0MIRSEZZ"}
{"rt": "9837.0", "trial_number": "0", "skipped": "False", "complete": "True", "assignment": "33F859I567LE8WC74WB3GA7E94XBHW", "start_time": "1.5179689907e+12", "human_length": "11", "nodes_expanded": "999", "instance": "prb68910", "end_time": "1.51796900054e+12", "optimal_length": "11", "subject": "A1GQS6USF2JEYG"}
{"rt": "69387.0", "trial_number": "0", "skipped": "False", "complete": "True", "assignment": "3FTF2T8WLSQDHTSZ1BJ7Q7MB14SW9H", "start_time": "1.5181374144e+12", "human_length": "50", "nodes_expanded": "999", "instance": "prb68910", "end_time": "1.51813748378e+12", "optimal_length": "11", "subject": "A1IUH9D7N69VS"}
{"rt": "34323.0", "trial_number": "0", "skipped": "True", "complete": "False", "assignment": "3TAYZSBPLMG9ASQRWXURJVBCPLN2SH", "start_time": "1.51813732285e+12", "human_length": "21", "nodes_expanded": "999", "instance": "prb68910", "end_time": "1.51813735718e+12", "optimal_length": "11", "subject": "A2RCYLKY072XXO"}
{"rt": "18372.0", "trial_number": "0", "skipped": "False", "complete": "True", "assignment": "3ZSANO2JCGFTBM23KS9Y3E51YP4FSQ", "start_time": "1.5181440242e+12", "human_length": "21", "nodes_expanded": "999", "instance": "prb68910", "end_time": "1.51814404257e+12", "optimal_length": "11", "subject": "A1F42D4L22K5ND"}
{"rt": "366785.0", "trial_number": "0", "skipped": "False", "complete": "True", "assignment": "3HWRJOOET6A15827PHPSLWK1MOYSEU", "start_time": "1.51814452359e+12", "human_length": "263", "nodes_expanded": "999", "instance": "prb68910", "end_time": "1.51814489038e+12", "optimal_length": "11", "subject": "AO1QGAUZ85T6L"}
{"rt": "50610.0", "trial_number": "0", "skipped": "False", "complete": "True", "assignment": "3XLBSAQ9Z5KDX59BX15UBFPNNHYZ7Q", "start_time": "1.51814579992e+12", "human_length": "47", "nodes_expanded": "999", "instance": "prb68910", "end_time": "1.51814585053e+12", "optimal_length": "11", "subject": "A1HFNOKU591WCY"}
{"rt": "131241.0", "trial_number": "0", "skipped": "False", "complete": "True", "assignment": "3FUI0JHJPY6UBT1VAI7VUX8S3KH33W", "start_time": "1.51815153466e+12", "human_length": "87", "nodes_expanded": "999", "instance": "prb68910", "end_time": "1.5181516659e+12", "optimal_length": "11", "subject": "A2QIZ31TMHU0GD"}
{"rt": "0.0", "trial_number": "0", "skipped": "False", "complete": "False", "assignment": "3RUIQRXJBCWS71H9MUFVM5WQ3SCLLJ", "start_time": "1.51815775236e+12", "human_length": "1", "nodes_expanded": "999", "instance": "prb68910", "end_time": "1.51815775236e+12", "optimal_length": "11", "subject": "A1SJRFJWFXSDH4"}
{"rt": "0.0", "trial_number": "1", "skipped": "False", "complete": "False", "assignment": "3RUIQRXJBCWS71H9MUFVM5WQ3SCLLJ", "start_time": "1.51815775249e+12", "human_length": "1", "nodes_expanded": "999", "instance": "prb68910", "end_time": "1.51815775249e+12", "optimal_length": "11", "subject": "A1SJRFJWFXSDH4"}
{"rt": "0.0", "trial_number": "2", "skipped": "False", "complete": "False", "assignment": "3RUIQRXJBCWS71H9MUFVM5WQ3SCLLJ", "start_time": "1.51815775259e+12", "human_length": "1", "nodes_expanded": "999", "instance": "prb68910", "end_time": "1.51815775259e+12", "optimal_length": "11", "subject": "A1SJRFJWFXSDH4"}
{"rt": "0.0", "trial_number": "3", "skipped": "False", "complete": "False", "assignment": "3RUIQRXJBCWS71H9MUFVM5WQ3SCLLJ", "start_time": "1.51815775269e+12", "human_length": "1", "nodes_expanded": "999", "instance": "prb68910", "end_time": "1.51815775269e+12", "optimal_length": "11", "subject": "A1SJRFJWFXSDH4"}
{"rt": "52441.0", "trial_number": "4", "skipped": "False", "complete": "True", "assignment": "3RUIQRXJBCWS71H9MUFVM5WQ3SCLLJ", "start_time": "1.51815775473e+12", "human_length": "27", "nodes_expanded": "999", "instance": "prb68910", "end_time": "1.51815780717e+12", "optimal_length": "11", "subject": "A1SJRFJWFXSDH4"}
{"rt": "72644.0", "trial_number": "0", "skipped": "False", "complete": "False", "assignment": "37QW5D2ZRHUKW7SGCE3STMOFBMK8SX", "start_time": "1.51815705775e+12", "human_length": "47", "nodes_expanded": "999", "instance": "prb68910", "end_time": "1.5181571304e+12", "optimal_length": "11", "subject": "AMW2XLD9443OH"}
{"rt": "0.0", "trial_number": "1", "skipped": "False", "complete": "False", "assignment": "37QW5D2ZRHUKW7SGCE3STMOFBMK8SX", "start_time": "1.51815720219e+12", "human_length": "1", "nodes_expanded": "999", "instance": "prb68910", "end_time": "1.51815720219e+12", "optimal_length": "11", "subject": "AMW2XLD9443OH"}
{"rt": "57063.0", "trial_number": "2", "skipped": "False", "complete": "False", "assignment": "37QW5D2ZRHUKW7SGCE3STMOFBMK8SX", "start_time": "1.51815720337e+12", "human_length": "5", "nodes_expanded": "999", "instance": "prb68910", "end_time": "1.51815726043e+12", "optimal_length": "11", "subject": "AMW2XLD9443OH"}
{"rt": "15522.0", "trial_number": "3", "skipped": "False", "complete": "True", "assignment": "37QW5D2ZRHUKW7SGCE3STMOFBMK8SX", "start_time": "1.51815728962e+12", "human_length": "14", "nodes_expanded": "999", "instance": "prb68910", "end_time": "1.51815730514e+12", "optimal_length": "11", "subject": "AMW2XLD9443OH"}
{"rt": "62566.0", "trial_number": "0", "skipped": "False", "complete": "False", "assignment": "3M0BCWMB8W4W5M7WZVX3HDH1P53WB1", "start_time": "1.51815946085e+12", "human_length": "30", "nodes_expanded": "999", "instance": "prb68910", "end_time": "1.51815952342e+12", "optimal_length": "11", "subject": "A53S7J4JGWG38"}
{"rt": "75463.0", "trial_number": "1", "skipped": "True", "complete": "False", "assignment": "3M0BCWMB8W4W5M7WZVX3HDH1P53WB1", "start_time": "1.51815952549e+12", "human_length": "39", "nodes_expanded": "999", "instance": "prb68910", "end_time": "1.51815960095e+12", "optimal_length": "11", "subject": "A53S7J4JGWG38"}
{"rt": "156642.0", "trial_number": "0", "skipped": "True", "complete": "False", "assignment": "3SITXWYCNWHBUMCM90TPJWV8Y7AXBW", "start_time": "1.518164151e+12", "human_length": "54", "nodes_expanded": "999", "instance": "prb68910", "end_time": "1.51816430764e+12", "optimal_length": "11", "subject": "A28RX7L0QZ993M"}
{"rt": "33077.0", "trial_number": "0", "skipped": "False", "complete": "True", "assignment": "3IXEICO793RY7TM78ZBKJDOA7ADT6Q", "start_time": "1.51816914984e+12", "human_length": "25", "nodes_expanded": "999", "instance": "prb68910", "end_time": "1.51816918292e+12", "optimal_length": "11", "subject": "ALH1K6ZAQQMN7"}
