{"rt": "36699.0", "trial_number": "0", "skipped": "False", "complete": "True", "assignment": "3TYCR1GOTDRCCQYD1V64UK7OHTBZLQ", "start_time": "1.51753740361e+12", "human_length": "30", "nodes_expanded": "999", "instance": "prb62015", "end_time": "1.51753744031e+12", "optimal_length": "11", "subject": "A13BZCNJ0WR1T7"}
{"rt": "74854.0", "trial_number": "0", "skipped": "False", "complete": "True", "assignment": "3TS1AR6UQRM7SOIBWPBN8N9589Y7FV", "start_time": "1.51684139194e+12", "human_length": "47", "nodes_expanded": "999", "instance": "prb62015", "end_time": "1.5168414668e+12", "optimal_length": "11", "subject": "A15FXHC1CVNW31"}
{"rt": "0.0", "trial_number": "0", "skipped": "False", "complete": "False", "assignment": "3VE8AYVF8N5BS2NU6U3TMN50JMNF8V", "start_time": "1.5167379684e+12", "human_length": "1", "nodes_expanded": "999", "instance": "prb62015", "end_time": "1.5167379684e+12", "optimal_length": "11", "subject": "A18QU0YQB6Q8DF"}
{"rt": "0.0", "trial_number": "1", "skipped": "False", "complete": "False", "assignment": "3VE8AYVF8N5BS2NU6U3TMN50JMNF8V", "start_time": "1.5167379684e+12", "human_length": "1", "nodes_expanded": "999", "instance": "prb62015", "end_time": "1.5167379684e+12", "optimal_length": "11", "subject": "A18QU0YQB6Q8DF"}
{"rt": "42725.0", "trial_number": "2", "skipped": "False", "complete": "True", "assignment": "3VE8AYVF8N5BS2NU6U3TMN50JMNF8V", "start_time": "1.5167379684e+12", "human_length": "13", "nodes_expanded": "999", "instance": "prb62015", "end_time": "1.51673801113e+12", "optimal_length": "11", "subject": "A18QU0YQB6Q8DF"}
{"rt": "42725.0", "trial_number": "0", "skipped": "False", "complete": "True", "assignment": "3VE8AYVF8N5BS2NU6U3TMN50JMNF8V", "start_time": "1.5167379684e+12", "human_length": "13", "nodes_expanded": "999", "instance": "prb62015", "end_time": "1.51673801113e+12", "optimal_length": "11", "subject": "A18QU0YQB6Q8DF"}
{"rt": "12919.0", "trial_number": "0", "skipped": "False", "complete": "True", "assignment": "3IJXV6UZ1YR1KY4G6BFEG1DXR47RIC", "start_time": "1.51797235717e+12", "human_length": "17", "nodes_expanded": "999", "instance": "prb62015", "end_time": "1.51797237009e+12", "optimal_length": "11", "subject": "A18T3WK7J16C1B"}
{"rt": "12785.0", "trial_number": "0", "skipped": "False", "complete": "True", "assignment": "3PMBY0YE28B43VMUKKJ6EDF85RV9C8", "start_time": "1.51638747243e+12", "human_length": "12", "nodes_expanded": "999", "instance": "prb62015", "end_time": "1.51638748521e+12", "optimal_length": "11", "subject": "A191V7PT3DQKDP"}
{"rt": "39463.0", "trial_number": "0", "skipped": "False", "complete": "False", "assignment": "3H0W84IWBLAP4T2UASPNVMF5ZH7ER9", "start_time": "1.51755259792e+12", "human_length": "23", "nodes_expanded": "999", "instance": "prb62015", "end_time": "1.51755263738e+12", "optimal_length": "11", "subject": "A1AKX1C8GCVCTP"}
{"rt": "39745.0", "trial_number": "1", "skipped": "False", "complete": "True", "assignment": "3H0W84IWBLAP4T2UASPNVMF5ZH7ER9", "start_time": "1.5175526408e+12", "human_length": "30", "nodes_expanded": "999", "instance": "prb62015", "end_time": "1.51755268054e+12", "optimal_length": "11", "subject": "A1AKX1C8GCVCTP"}
{"rt": "38466.0", "trial_number": "0", "skipped": "False", "complete": "True", "assignment": "3ZSANO2JCGFTBM23KS9Y3E51YP4FSQ", "start_time": "1.51814327635e+12", "human_length": "30", "nodes_expanded": "999", "instance": "prb62015", "end_time": "1.51814331481e+12", "optimal_length": "11", "subject": "A1F42D4L22K5ND"}
{"rt": "82987.0", "trial_number": "0", "skipped": "False", "complete": "False", "assignment": "3TS1AR6UQRM7SOIBWPBN8N9589Y7FV", "start_time": "1.5168392002e+12", "human_length": "58", "nodes_expanded": "999", "instance": "prb62015", "end_time": "1.51683928318e+12", "optimal_length": "11", "subject": "A1F4N58CAX8IMK"}
{"rt": "75723.0", "trial_number": "1", "skipped": "False", "complete": "True", "assignment": "35DR22AR5ES6RR89U7EJ1DXW91AX3P", "start_time": "1.51795483129e+12", "human_length": "51", "nodes_expanded": "999", "instance": "prb62015", "end_time": "1.51795490701e+12", "optimal_length": "11", "subject": "A1F4N58CAX8IMK"}
{"rt": "61382.0", "trial_number": "0", "skipped": "False", "complete": "True", "assignment": "33F859I567LE8WC74WB3GA7E94XBHW", "start_time": "1.51796952805e+12", "human_length": "35", "nodes_expanded": "999", "instance": "prb62015", "end_time": "1.51796958943e+12", "optimal_length": "11", "subject": "A1GQS6USF2JEYG"}
{"rt": "35494.0", "trial_number": "0", "skipped": "False", "complete": "True", "assignment": "3XLBSAQ9Z5KDX59BX15UBFPNNHYZ7Q", "start_time": "1.51814687706e+12", "human_length": "34", "nodes_expanded": "999", "instance": "prb62015", "end_time": "1.51814691255e+12", "optimal_length": "11", "subject": "A1HFNOKU591WCY"}
{"rt": "16389.0", "trial_number": "0", "skipped": "False", "complete": "True", "assignment": "3FTF2T8WLSQDHTSZ1BJ7Q7MB14SW9H", "start_time": "1.51813668445e+12", "human_length": "14", "nodes_expanded": "999", "instance": "prb62015", "end_time": "1.51813670084e+12", "optimal_length": "11", "subject": "A1IUH9D7N69VS"}
{"rt": "0.0", "trial_number": "0", "skipped": "False", "complete": "False", "assignment": "3YW4XOSQKRTI0K0Z2YPDTDJVFABU1I", "start_time": "1.51683025428e+12", "human_length": "1", "nodes_expanded": "999", "instance": "prb62015", "end_time": "1.51683025428e+12", "optimal_length": "11", "subject": "A1LR0VQIHQUJAM"}
{"rt": "54283.0", "trial_number": "1", "skipped": "False", "complete": "True", "assignment": "3YW4XOSQKRTI0K0Z2YPDTDJVFABU1I", "start_time": "1.51683025428e+12", "human_length": "31", "nodes_expanded": "999", "instance": "prb62015", "end_time": "1.51683030856e+12", "optimal_length": "11", "subject": "A1LR0VQIHQUJAM"}
{"rt": "16829.0", "trial_number": "0", "skipped": "False", "complete": "True", "assignment": "3R5F3LQFV3SKIB1AENMWM1BICT5OZB", "start_time": "1.51795977808e+12", "human_length": "14", "nodes_expanded": "999", "instance": "prb62015", "end_time": "1.51795979491e+12", "optimal_length": "11", "subject": "A1N1EF0MIRSEZZ"}
{"rt": "115249.0", "trial_number": "0", "skipped": "True", "complete": "False", "assignment": "31LM9EDVOM0C0BWUVMJXJINN3QPJNI", "start_time": "1.51752367404e+12", "human_length": "9", "nodes_expanded": "999", "instance": "prb62015", "end_time": "1.51752378929e+12", "optimal_length": "11", "subject": "A1NT8BT94ME6F5"}
{"rt": "34981.0", "trial_number": "0", "skipped": "False", "complete": "True", "assignment": "3SB5N7Y3O4CZODEMMAWWBTZU4C90GB", "start_time": "1.51813894487e+12", "human_length": "22", "nodes_expanded": "999", "instance": "prb62015", "end_time": "1.51813897985e+12", "optimal_length": "11", "subject": "A1RVMADIZE3BXK"}
{"rt": "0.0", "trial_number": "0", "skipped": "False", "complete": "False", "assignment": "3RUIQRXJBCWS71H9MUFVM5WQ3SCLLJ", "start_time": "1.51815801858e+12", "human_length": "1", "nodes_expanded": "999", "instance": "prb62015", "end_time": "1.51815801858e+12", "optimal_length": "11", "subject": "A1SJRFJWFXSDH4"}
{"rt": "39078.0", "trial_number": "1", "skipped": "False", "complete": "True", "assignment": "3RUIQRXJBCWS71H9MUFVM5WQ3SCLLJ", "start_time": "1.51815801966e+12", "human_length": "14", "nodes_expanded": "999", "instance": "prb62015", "end_time": "1.51815805874e+12", "optimal_length": "11", "subject": "A1SJRFJWFXSDH4"}
{"rt": "42241.0", "trial_number": "0", "skipped": "False", "complete": "True", "assignment": "3PB5A5BD0WED6OE679H5Q89HBDGG71", "start_time": "1.51795025946e+12", "human_length": "23", "nodes_expanded": "999", "instance": "prb62015", "end_time": "1.5179503017e+12", "optimal_length": "11", "subject": "A1USR9JCAMDGM3"}
{"rt": "61522.0", "trial_number": "0", "skipped": "False", "complete": "True", "assignment": "3XC1O3LBOTUGQEPEV3HM8W67X4RTLL", "start_time": "1.5181377362e+12", "human_length": "35", "nodes_expanded": "999", "instance": "prb62015", "end_time": "1.51813779772e+12", "optimal_length": "11", "subject": "A1ZTSCPETU3UJW"}
{"rt": "24607.0", "trial_number": "0", "skipped": "False", "complete": "True", "assignment": "34BBWHLWHBJ6SUL255PK30LEGY5IWG", "start_time": "1.51639185304e+12", "human_length": "26", "nodes_expanded": "999", "instance": "prb62015", "end_time": "1.51639187765e+12", "optimal_length": "11", "subject": "A214HWAW1PYWO8"}
{"rt": "0.0", "trial_number": "0", "skipped": "False", "complete": "False", "assignment": "3X87C8JFV7JQ2BSCY8KSFD9F2ILSQK", "start_time": "1.51674734506e+12", "human_length": "1", "nodes_expanded": "999", "instance": "prb62015", "end_time": "1.51674734506e+12", "optimal_length": "11", "subject": "A21S7MA9DCW95E"}
{"rt": "0.0", "trial_number": "1", "skipped": "False", "complete": "False", "assignment": "3X87C8JFV7JQ2BSCY8KSFD9F2ILSQK", "start_time": "1.51674734506e+12", "human_length": "1", "nodes_expanded": "999", "instance": "prb62015", "end_time": "1.51674734506e+12", "optimal_length": "11", "subject": "A21S7MA9DCW95E"}
{"rt": "23219.0", "trial_number": "2", "skipped": "False", "complete": "True", "assignment": "3X87C8JFV7JQ2BSCY8KSFD9F2ILSQK", "start_time": "1.51674734506e+12", "human_length": "13", "nodes_expanded": "999", "instance": "prb62015", "end_time": "1.51674736828e+12", "optimal_length": "11", "subject": "A21S7MA9DCW95E"}
{"rt": "23219.0", "trial_number": "0", "skipped": "False", "complete": "True", "assignment": "3X87C8JFV7JQ2BSCY8KSFD9F2ILSQK", "start_time": "1.51674734506e+12", "human_length": "13", "nodes_expanded": "999", "instance": "prb62015", "end_time": "1.51674736828e+12", "optimal_length": "11", "subject": "A21S7MA9DCW95E"}
{"rt": "0.0", "trial_number": "0", "skipped": "False", "complete": "False", "assignment": "3IHR8NYAM89M0EPM8U9LH53ZJDTP4U", "start_time": "1.51682614848e+12", "human_length": "1", "nodes_expanded": "999", "instance": "prb62015", "end_time": "1.51682614848e+12", "optimal_length": "11", "subject": "A23437BMZ5T1FH"}
{"rt": "23391.0", "trial_number": "1", "skipped": "True", "complete": "False", "assignment": "3IHR8NYAM89M0EPM8U9LH53ZJDTP4U", "start_time": "1.51682614848e+12", "human_length": "35", "nodes_expanded": "999", "instance": "prb62015", "end_time": "1.51682617187e+12", "optimal_length": "11", "subject": "A23437BMZ5T1FH"}
{"rt": "63762.0", "trial_number": "0", "skipped": "False", "complete": "True", "assignment": "30IQTZXKALEAAZ9CBKW0ZFZP6O5X07", "start_time": "1.51794460922e+12", "human_length": "25", "nodes_expanded": "999", "instance": "prb62015", "end_time": "1.51794467299e+12", "optimal_length": "11", "subject": "A23XJ8I86R0O3B"}
{"rt": "0.0", "trial_number": "0", "skipped": "False", "complete": "False", "assignment": "3EO896NRAX3AVO1ESI59SHTFTF3JTQ", "start_time": "1.51814241056e+12", "human_length": "1", "nodes_expanded": "999", "instance": "prb62015", "end_time": "1.51814241056e+12", "optimal_length": "11", "subject": "A2KBZ75HMJ7KVX"}
{"rt": "0.0", "trial_number": "1", "skipped": "False", "complete": "False", "assignment": "3EO896NRAX3AVO1ESI59SHTFTF3JTQ", "start_time": "1.51814241058e+12", "human_length": "1", "nodes_expanded": "999", "instance": "prb62015", "end_time": "1.51814241058e+12", "optimal_length": "11", "subject": "A2KBZ75HMJ7KVX"}
{"rt": "0.0", "trial_number": "2", "skipped": "False", "complete": "False", "assignment": "3EO896NRAX3AVO1ESI59SHTFTF3JTQ", "start_time": "1.51814241059e+12", "human_length": "1", "nodes_expanded": "999", "instance": "prb62015", "end_time": "1.51814241059e+12", "optimal_length": "11", "subject": "A2KBZ75HMJ7KVX"}
{"rt": "0.0", "trial_number": "3", "skipped": "False", "complete": "False", "assignment": "3EO896NRAX3AVO1ESI59SHTFTF3JTQ", "start_time": "1.5181424106e+12", "human_length": "1", "nodes_expanded": "999", "instance": "prb62015", "end_time": "1.5181424106e+12", "optimal_length": "11", "subject": "A2KBZ75HMJ7KVX"}
{"rt": "0.0", "trial_number": "4", "skipped": "False", "complete": "False", "assignment": "3EO896NRAX3AVO1ESI59SHTFTF3JTQ", "start_time": "1.51814241061e+12", "human_length": "1", "nodes_expanded": "999", "instance": "prb62015", "end_time": "1.51814241061e+12", "optimal_length": "11", "subject": "A2KBZ75HMJ7KVX"}
{"rt": "0.0", "trial_number": "5", "skipped": "False", "complete": "False", "assignment": "3EO896NRAX3AVO1ESI59SHTFTF3JTQ", "start_time": "1.51814241062e+12", "human_length": "1", "nodes_expanded": "999", "instance": "prb62015", "end_time": "1.51814241062e+12", "optimal_length": "11", "subject": "A2KBZ75HMJ7KVX"}
{"rt": "0.0", "trial_number": "6", "skipped": "False", "complete": "False", "assignment": "3EO896NRAX3AVO1ESI59SHTFTF3JTQ", "start_time": "1.51814241063e+12", "human_length": "1", "nodes_expanded": "999", "instance": "prb62015", "end_time": "1.51814241063e+12", "optimal_length": "11", "subject": "A2KBZ75HMJ7KVX"}
{"rt": "0.0", "trial_number": "7", "skipped": "False", "complete": "False", "assignment": "3EO896NRAX3AVO1ESI59SHTFTF3JTQ", "start_time": "1.51814241064e+12", "human_length": "1", "nodes_expanded": "999", "instance": "prb62015", "end_time": "1.51814241064e+12", "optimal_length": "11", "subject": "A2KBZ75HMJ7KVX"}
{"rt": "0.0", "trial_number": "8", "skipped": "False", "complete": "False", "assignment": "3EO896NRAX3AVO1ESI59SHTFTF3JTQ", "start_time": "1.51814241074e+12", "human_length": "1", "nodes_expanded": "999", "instance": "prb62015", "end_time": "1.51814241074e+12", "optimal_length": "11", "subject": "A2KBZ75HMJ7KVX"}
{"rt": "0.0", "trial_number": "9", "skipped": "False", "complete": "False", "assignment": "3EO896NRAX3AVO1ESI59SHTFTF3JTQ", "start_time": "1.51814241075e+12", "human_length": "1", "nodes_expanded": "999", "instance": "prb62015", "end_time": "1.51814241075e+12", "optimal_length": "11", "subject": "A2KBZ75HMJ7KVX"}
{"rt": "0.0", "trial_number": "10", "skipped": "False", "complete": "False", "assignment": "3EO896NRAX3AVO1ESI59SHTFTF3JTQ", "start_time": "1.51814241088e+12", "human_length": "1", "nodes_expanded": "999", "instance": "prb62015", "end_time": "1.51814241088e+12", "optimal_length": "11", "subject": "A2KBZ75HMJ7KVX"}
{"rt": "0.0", "trial_number": "11", "skipped": "False", "complete": "False", "assignment": "3EO896NRAX3AVO1ESI59SHTFTF3JTQ", "start_time": "1.5181424109e+12", "human_length": "1", "nodes_expanded": "999", "instance": "prb62015", "end_time": "1.5181424109e+12", "optimal_length": "11", "subject": "A2KBZ75HMJ7KVX"}
{"rt": "0.0", "trial_number": "12", "skipped": "False", "complete": "False", "assignment": "3EO896NRAX3AVO1ESI59SHTFTF3JTQ", "start_time": "1.51814241091e+12", "human_length": "1", "nodes_expanded": "999", "instance": "prb62015", "end_time": "1.51814241091e+12", "optimal_length": "11", "subject": "A2KBZ75HMJ7KVX"}
{"rt": "0.0", "trial_number": "13", "skipped": "False", "complete": "False", "assignment": "3EO896NRAX3AVO1ESI59SHTFTF3JTQ", "start_time": "1.51814241092e+12", "human_length": "1", "nodes_expanded": "999", "instance": "prb62015", "end_time": "1.51814241092e+12", "optimal_length": "11", "subject": "A2KBZ75HMJ7KVX"}
{"rt": "4295.0", "trial_number": "14", "skipped": "False", "complete": "False", "assignment": "3EO896NRAX3AVO1ESI59SHTFTF3JTQ", "start_time": "1.51814241094e+12", "human_length": "2", "nodes_expanded": "999", "instance": "prb62015", "end_time": "1.51814241523e+12", "optimal_length": "11", "subject": "A2KBZ75HMJ7KVX"}
{"rt": "63021.0", "trial_number": "15", "skipped": "False", "complete": "False", "assignment": "3EO896NRAX3AVO1ESI59SHTFTF3JTQ", "start_time": "1.51814242844e+12", "human_length": "9", "nodes_expanded": "999", "instance": "prb62015", "end_time": "1.51814249146e+12", "optimal_length": "11", "subject": "A2KBZ75HMJ7KVX"}
{"rt": "0.0", "trial_number": "16", "skipped": "True", "complete": "False", "assignment": "3EO896NRAX3AVO1ESI59SHTFTF3JTQ", "start_time": "1.51814249918e+12", "human_length": "1", "nodes_expanded": "999", "instance": "prb62015", "end_time": "1.51814249918e+12", "optimal_length": "11", "subject": "A2KBZ75HMJ7KVX"}
{"rt": "50810.0", "trial_number": "0", "skipped": "False", "complete": "True", "assignment": "3TYCR1GOTDRCCQYD1V64UK7OE48LZS", "start_time": "1.51638904806e+12", "human_length": "22", "nodes_expanded": "999", "instance": "prb62015", "end_time": "1.51638909887e+12", "optimal_length": "11", "subject": "A2MYB6MLQW0IGN"}
{"rt": "222379.0", "trial_number": "0", "skipped": "False", "complete": "True", "assignment": "3FUI0JHJPY6UBT1VAI7VUX8S3KH33W", "start_time": "1.51814996525e+12", "human_length": "77", "nodes_expanded": "999", "instance": "prb62015", "end_time": "1.51815018763e+12", "optimal_length": "11", "subject": "A2QIZ31TMHU0GD"}
{"rt": "59657.0", "trial_number": "0", "skipped": "False", "complete": "True", "assignment": "3TAYZSBPLMG9ASQRWXURJVBCPLN2SH", "start_time": "1.5181370489e+12", "human_length": "40", "nodes_expanded": "999", "instance": "prb62015", "end_time": "1.51813710856e+12", "optimal_length": "11", "subject": "A2RCYLKY072XXO"}
{"rt": "0.0", "trial_number": "0", "skipped": "False", "complete": "False", "assignment": "3IJXV6UZ1YR1KY4G6BFEG1DXP7SRI1", "start_time": "1.51674946401e+12", "human_length": "1", "nodes_expanded": "999", "instance": "prb62015", "end_time": "1.51674946401e+12", "optimal_length": "11", "subject": "A2RTJ6BDY0DZVZ"}
{"rt": "0.0", "trial_number": "1", "skipped": "False", "complete": "False", "assignment": "3IJXV6UZ1YR1KY4G6BFEG1DXP7SRI1", "start_time": "1.51674946401e+12", "human_length": "1", "nodes_expanded": "999", "instance": "prb62015", "end_time": "1.51674946401e+12", "optimal_length": "11", "subject": "A2RTJ6BDY0DZVZ"}
{"rt": "86020.0", "trial_number": "2", "skipped": "False", "complete": "True", "assignment": "3IJXV6UZ1YR1KY4G6BFEG1DXP7SRI1", "start_time": "1.51674946401e+12", "human_length": "36", "nodes_expanded": "999", "instance": "prb62015", "end_time": "1.51674955003e+12", "optimal_length": "11", "subject": "A2RTJ6BDY0DZVZ"}
{"rt": "86020.0", "trial_number": "0", "skipped": "False", "complete": "True", "assignment": "3IJXV6UZ1YR1KY4G6BFEG1DXP7SRI1", "start_time": "1.51674946401e+12", "human_length": "36", "nodes_expanded": "999", "instance": "prb62015", "end_time": "1.51674955003e+12", "optimal_length": "11", "subject": "A2RTJ6BDY0DZVZ"}
{"rt": "0.0", "trial_number": "0", "skipped": "False", "complete": "False", "assignment": "3WSELTNVR4AZUVYAYCSWZIQW0J4ATB", "start_time": "1.51673992468e+12", "human_length": "1", "nodes_expanded": "999", "instance": "prb62015", "end_time": "1.51673992468e+12", "optimal_length": "11", "subject": "A2TQNX64349OZ9"}
{"rt": "0.0", "trial_number": "1", "skipped": "False", "complete": "False", "assignment": "3WSELTNVR4AZUVYAYCSWZIQW0J4ATB", "start_time": "1.51673992468e+12", "human_length": "1", "nodes_expanded": "999", "instance": "prb62015", "end_time": "1.51673992468e+12", "optimal_length": "11", "subject": "A2TQNX64349OZ9"}
{"rt": "79433.0", "trial_number": "2", "skipped": "True", "complete": "False", "assignment": "3WSELTNVR4AZUVYAYCSWZIQW0J4ATB", "start_time": "1.51673992468e+12", "human_length": "130", "nodes_expanded": "999", "instance": "prb62015", "end_time": "1.51674000411e+12", "optimal_length": "11", "subject": "A2TQNX64349OZ9"}
{"rt": "79433.0", "trial_number": "0", "skipped": "True", "complete": "False", "assignment": "3WSELTNVR4AZUVYAYCSWZIQW0J4ATB", "start_time": "1.51673992468e+12", "human_length": "44", "nodes_expanded": "999", "instance": "prb62015", "end_time": "1.51674000411e+12", "optimal_length": "11", "subject": "A2TQNX64349OZ9"}
{"rt": "53143.0", "trial_number": "0", "skipped": "False", "complete": "True", "assignment": "3JCG6DTRV4YEPVDZ64VNKDUEMPGQQ1", "start_time": "1.51794649636e+12", "human_length": "19", "nodes_expanded": "999", "instance": "prb62015", "end_time": "1.5179465495e+12", "optimal_length": "11", "subject": "A2V7KYLBCBTI3B"}
{"rt": "34202.0", "trial_number": "0", "skipped": "False", "complete": "True", "assignment": "37TD41K0AIHM8AITTQJXV8KY05QCSB", "start_time": "1.51752292534e+12", "human_length": "18", "nodes_expanded": "999", "instance": "prb62015", "end_time": "1.51752295954e+12", "optimal_length": "11", "subject": "A30KYQGABO7JER"}
{"rt": "56277.0", "trial_number": "0", "skipped": "False", "complete": "True", "assignment": "36AHBNMV1SKT9O0GSS6XX0QHZV3YDN", "start_time": "1.51630528108e+12", "human_length": "12", "nodes_expanded": "999", "instance": "prb62015", "end_time": "1.51630533736e+12", "optimal_length": "11", "subject": "A39GADIK8RLMVC"}
{"rt": "65625.0", "trial_number": "0", "skipped": "False", "complete": "False", "assignment": "34HJIJKLP64Z5YMIU6IKNXSH7PDV4I", "start_time": "1.51794061069e+12", "human_length": "26", "nodes_expanded": "999", "instance": "prb62015", "end_time": "1.51794067632e+12", "optimal_length": "11", "subject": "A3CTXNQ2GXIQSP"}
{"rt": "28685.0", "trial_number": "1", "skipped": "False", "complete": "True", "assignment": "34HJIJKLP64Z5YMIU6IKNXSH7PDV4I", "start_time": "1.51794068158e+12", "human_length": "13", "nodes_expanded": "999", "instance": "prb62015", "end_time": "1.51794071026e+12", "optimal_length": "11", "subject": "A3CTXNQ2GXIQSP"}
{"rt": "15161.0", "trial_number": "0", "skipped": "False", "complete": "True", "assignment": "3TPWUS5F8A9FFRZ2DVTYSXNJ6BWWC6", "start_time": "1.51794223819e+12", "human_length": "14", "nodes_expanded": "999", "instance": "prb62015", "end_time": "1.51794225336e+12", "optimal_length": "11", "subject": "A3GXC3VG37CQ3G"}
{"rt": "51520.0", "trial_number": "0", "skipped": "False", "complete": "True", "assignment": "3V5Q80FXIYZ5QB5C6ITQBN30WY823U", "start_time": "1.51753423399e+12", "human_length": "28", "nodes_expanded": "999", "instance": "prb62015", "end_time": "1.51753428551e+12", "optimal_length": "11", "subject": "A3NMQ3019X6YE0"}
{"rt": "51520.0", "trial_number": "0", "skipped": "False", "complete": "True", "assignment": "3V5Q80FXIYZ5QB5C6ITQBN30WY823U", "start_time": "1.51753423399e+12", "human_length": "28", "nodes_expanded": "999", "instance": "prb62015", "end_time": "1.51753428551e+12", "optimal_length": "11", "subject": "A3NMQ3019X6YE0"}
{"rt": "24381.0", "trial_number": "0", "skipped": "False", "complete": "False", "assignment": "3STRJBFXOXZ5687WA35LTWTS7QZKTT", "start_time": "1.51794363422e+12", "human_length": "16", "nodes_expanded": "999", "instance": "prb62015", "end_time": "1.51794365861e+12", "optimal_length": "11", "subject": "A3OB6REG5CGHK1"}
{"rt": "28942.0", "trial_number": "1", "skipped": "False", "complete": "True", "assignment": "3STRJBFXOXZ5687WA35LTWTS7QZKTT", "start_time": "1.51794366049e+12", "human_length": "14", "nodes_expanded": "999", "instance": "prb62015", "end_time": "1.51794368943e+12", "optimal_length": "11", "subject": "A3OB6REG5CGHK1"}
{"rt": "0.0", "trial_number": "0", "skipped": "False", "complete": "False", "assignment": "3X87C8JFV7JQ2BSCY8KSFD9F2ILSQK", "start_time": "1.51674113682e+12", "human_length": "1", "nodes_expanded": "999", "instance": "prb62015", "end_time": "1.51674113682e+12", "optimal_length": "11", "subject": "A3Q0XAGQ7TD7MP"}
{"rt": "0.0", "trial_number": "1", "skipped": "False", "complete": "False", "assignment": "3X87C8JFV7JQ2BSCY8KSFD9F2ILSQK", "start_time": "1.51674113682e+12", "human_length": "1", "nodes_expanded": "999", "instance": "prb62015", "end_time": "1.51674113682e+12", "optimal_length": "11", "subject": "A3Q0XAGQ7TD7MP"}
{"rt": "20005.0", "trial_number": "2", "skipped": "False", "complete": "False", "assignment": "3X87C8JFV7JQ2BSCY8KSFD9F2ILSQK", "start_time": "1.51674113682e+12", "human_length": "25", "nodes_expanded": "999", "instance": "prb62015", "end_time": "1.51674115683e+12", "optimal_length": "11", "subject": "A3Q0XAGQ7TD7MP"}
{"rt": "33597.0", "trial_number": "3", "skipped": "False", "complete": "True", "assignment": "3GLB5JMZFY3TNXFGYMKRQ0JDXNTDGZ", "start_time": "1.51794658775e+12", "human_length": "14", "nodes_expanded": "999", "instance": "prb62015", "end_time": "1.51794662135e+12", "optimal_length": "11", "subject": "A3Q0XAGQ7TD7MP"}
{"rt": "20005.0", "trial_number": "0", "skipped": "False", "complete": "False", "assignment": "3X87C8JFV7JQ2BSCY8KSFD9F2ILSQK", "start_time": "1.51674113682e+12", "human_length": "9", "nodes_expanded": "999", "instance": "prb62015", "end_time": "1.51674115683e+12", "optimal_length": "11", "subject": "A3Q0XAGQ7TD7MP"}
{"rt": "33597.0", "trial_number": "1", "skipped": "False", "complete": "True", "assignment": "3GLB5JMZFY3TNXFGYMKRQ0JDXNTDGZ", "start_time": "1.51794658775e+12", "human_length": "14", "nodes_expanded": "999", "instance": "prb62015", "end_time": "1.51794662135e+12", "optimal_length": "11", "subject": "A3Q0XAGQ7TD7MP"}
{"rt": "21968.0", "trial_number": "0", "skipped": "False", "complete": "False", "assignment": "3M0BCWMB8W4W5M7WZVX3HDH1P53WB1", "start_time": "1.51815932388e+12", "human_length": "12", "nodes_expanded": "999", "instance": "prb62015", "end_time": "1.51815934585e+12", "optimal_length": "11", "subject": "A53S7J4JGWG38"}
{"rt": "18449.0", "trial_number": "1", "skipped": "False", "complete": "False", "assignment": "3M0BCWMB8W4W5M7WZVX3HDH1P53WB1", "start_time": "1.51815935028e+12", "human_length": "9", "nodes_expanded": "999", "instance": "prb62015", "end_time": "1.51815936873e+12", "optimal_length": "11", "subject": "A53S7J4JGWG38"}
{"rt": "55644.0", "trial_number": "2", "skipped": "False", "complete": "False", "assignment": "3M0BCWMB8W4W5M7WZVX3HDH1P53WB1", "start_time": "1.51815937659e+12", "human_length": "22", "nodes_expanded": "999", "instance": "prb62015", "end_time": "1.51815943223e+12", "optimal_length": "11", "subject": "A53S7J4JGWG38"}
{"rt": "18277.0", "trial_number": "3", "skipped": "False", "complete": "True", "assignment": "3M0BCWMB8W4W5M7WZVX3HDH1P53WB1", "start_time": "1.51815944104e+12", "human_length": "13", "nodes_expanded": "999", "instance": "prb62015", "end_time": "1.51815945932e+12", "optimal_length": "11", "subject": "A53S7J4JGWG38"}
{"rt": "30513.0", "trial_number": "0", "skipped": "False", "complete": "True", "assignment": "3U84XHCDIDLGEIRSV37N835DV0K4ZS", "start_time": "1.51794063628e+12", "human_length": "13", "nodes_expanded": "999", "instance": "prb62015", "end_time": "1.51794066679e+12", "optimal_length": "11", "subject": "A8KX1HFH8NE2Q"}
{"rt": "27530.0", "trial_number": "0", "skipped": "False", "complete": "True", "assignment": "3IXEICO793RY7TM78ZBKJDOA7ADT6Q", "start_time": "1.51816981226e+12", "human_length": "27", "nodes_expanded": "999", "instance": "prb62015", "end_time": "1.51816983978e+12", "optimal_length": "11", "subject": "ALH1K6ZAQQMN7"}
{"rt": "75453.0", "trial_number": "0", "skipped": "False", "complete": "True", "assignment": "3HWRJOOET6A15827PHPSLWK1MOYSEU", "start_time": "1.51814391004e+12", "human_length": "47", "nodes_expanded": "999", "instance": "prb62015", "end_time": "1.5181439855e+12", "optimal_length": "11", "subject": "AO1QGAUZ85T6L"}
{"rt": "42014.0", "trial_number": "0", "skipped": "False", "complete": "True", "assignment": "3AZHRG4CU5SYU12YRVPCSZALW5003R", "start_time": "1.51630676465e+12", "human_length": "35", "nodes_expanded": "999", "instance": "prb62015", "end_time": "1.51630680666e+12", "optimal_length": "11", "subject": "ARWF605I7RWM7"}
{"rt": "40175.0", "trial_number": "0", "skipped": "True", "complete": "False", "assignment": "3IAS3U3I0GOAT69PLB8WT61CKJ22BO", "start_time": "1.51794199821e+12", "human_length": "17", "nodes_expanded": "999", "instance": "prb62015", "end_time": "1.51794203839e+12", "optimal_length": "11", "subject": "ATSZCAVI441RM"}
{"rt": "0.0", "trial_number": "0", "skipped": "False", "complete": "False", "assignment": "3U8YCDAGXQOQ1280P618573W7RSQ0N", "start_time": "1.5167435694e+12", "human_length": "1", "nodes_expanded": "999", "instance": "prb62015", "end_time": "1.5167435694e+12", "optimal_length": "11", "subject": "AWCO7MG0BHSTQ"}
{"rt": "0.0", "trial_number": "1", "skipped": "False", "complete": "False", "assignment": "3U8YCDAGXQOQ1280P618573W7RSQ0N", "start_time": "1.5167435694e+12", "human_length": "1", "nodes_expanded": "999", "instance": "prb62015", "end_time": "1.5167435694e+12", "optimal_length": "11", "subject": "AWCO7MG0BHSTQ"}
{"rt": "43573.0", "trial_number": "2", "skipped": "False", "complete": "True", "assignment": "3U8YCDAGXQOQ1280P618573W7RSQ0N", "start_time": "1.5167435694e+12", "human_length": "24", "nodes_expanded": "999", "instance": "prb62015", "end_time": "1.51674361297e+12", "optimal_length": "11", "subject": "AWCO7MG0BHSTQ"}
{"rt": "43573.0", "trial_number": "0", "skipped": "False", "complete": "True", "assignment": "3U8YCDAGXQOQ1280P618573W7RSQ0N", "start_time": "1.5167435694e+12", "human_length": "24", "nodes_expanded": "999", "instance": "prb62015", "end_time": "1.51674361297e+12", "optimal_length": "11", "subject": "AWCO7MG0BHSTQ"}
{"rt": "43007.0", "trial_number": "0", "skipped": "False", "complete": "True", "assignment": "33PPO7FECWN7JOLBOAKUBCWTC0AIDL", "start_time": "1.51794824028e+12", "human_length": "20", "nodes_expanded": "999", "instance": "prb62015", "end_time": "1.51794828329e+12", "optimal_length": "11", "subject": "AXKM02NVXNGOM"}
