{"rt": "20071.0", "trial_number": "0", "skipped": "False", "complete": "True", "assignment": "3PMBY0YE28B43VMUKKJ6EDF85RV9C8", "start_time": "1.5163878369e+12", "human_length": "17", "nodes_expanded": "999", "instance": "prb72800", "end_time": "1.51638785697e+12", "optimal_length": "14", "subject": "A191V7PT3DQKDP"}
{"rt": "59189.0", "trial_number": "0", "skipped": "False", "complete": "True", "assignment": "3TYCR1GOTDRCCQYD1V64UK7OE48LZS", "start_time": "1.51639153078e+12", "human_length": "37", "nodes_expanded": "999", "instance": "prb72800", "end_time": "1.51639158997e+12", "optimal_length": "14", "subject": "A2MYB6MLQW0IGN"}
{"rt": "37647.0", "trial_number": "0", "skipped": "False", "complete": "True", "assignment": "34BBWHLWHBJ6SUL255PK30LEGY5IWG", "start_time": "1.51639392793e+12", "human_length": "23", "nodes_expanded": "999", "instance": "prb72800", "end_time": "1.51639396558e+12", "optimal_length": "14", "subject": "A214HWAW1PYWO8"}
{"rt": "0.0", "trial_number": "0", "skipped": "False", "complete": "False", "assignment": "3VE8AYVF8N5BS2NU6U3TMN50JMNF8V", "start_time": "1.51673544648e+12", "human_length": "1", "nodes_expanded": "999", "instance": "prb72800", "end_time": "1.51673544648e+12", "optimal_length": "14", "subject": "A18QU0YQB6Q8DF"}
{"rt": "0.0", "trial_number": "1", "skipped": "False", "complete": "False", "assignment": "3VE8AYVF8N5BS2NU6U3TMN50JMNF8V", "start_time": "1.51673544648e+12", "human_length": "1", "nodes_expanded": "999", "instance": "prb72800", "end_time": "1.51673544648e+12", "optimal_length": "14", "subject": "A18QU0YQB6Q8DF"}
{"rt": "50610.0", "trial_number": "2", "skipped": "False", "complete": "True", "assignment": "3VE8AYVF8N5BS2NU6U3TMN50JMNF8V", "start_time": "1.51673544648e+12", "human_length": "19", "nodes_expanded": "999", "instance": "prb72800", "end_time": "1.51673549709e+12", "optimal_length": "14", "subject": "A18QU0YQB6Q8DF"}
{"rt": "0.0", "trial_number": "0", "skipped": "False", "complete": "False", "assignment": "3X87C8JFV7JQ2BSCY8KSFD9F2ILSQK", "start_time": "1.51674091996e+12", "human_length": "1", "nodes_expanded": "999", "instance": "prb72800", "end_time": "1.51674091996e+12", "optimal_length": "14", "subject": "A3Q0XAGQ7TD7MP"}
{"rt": "0.0", "trial_number": "1", "skipped": "False", "complete": "False", "assignment": "3X87C8JFV7JQ2BSCY8KSFD9F2ILSQK", "start_time": "1.51674091996e+12", "human_length": "1", "nodes_expanded": "999", "instance": "prb72800", "end_time": "1.51674091996e+12", "optimal_length": "14", "subject": "A3Q0XAGQ7TD7MP"}
{"rt": "40164.0", "trial_number": "2", "skipped": "False", "complete": "True", "assignment": "3X87C8JFV7JQ2BSCY8KSFD9F2ILSQK", "start_time": "1.51674091996e+12", "human_length": "22", "nodes_expanded": "999", "instance": "prb72800", "end_time": "1.51674096012e+12", "optimal_length": "14", "subject": "A3Q0XAGQ7TD7MP"}
{"rt": "50738.0", "trial_number": "3", "skipped": "False", "complete": "True", "assignment": "3GLB5JMZFY3TNXFGYMKRQ0JDXNTDGZ", "start_time": "1.51794810983e+12", "human_length": "22", "nodes_expanded": "999", "instance": "prb72800", "end_time": "1.51794816057e+12", "optimal_length": "14", "subject": "A3Q0XAGQ7TD7MP"}
{"rt": "0.0", "trial_number": "0", "skipped": "False", "complete": "False", "assignment": "3WSELTNVR4AZUVYAYCSWZIQW0J4ATB", "start_time": "1.51673783181e+12", "human_length": "1", "nodes_expanded": "999", "instance": "prb72800", "end_time": "1.51673783181e+12", "optimal_length": "14", "subject": "A2TQNX64349OZ9"}
{"rt": "0.0", "trial_number": "1", "skipped": "False", "complete": "False", "assignment": "3WSELTNVR4AZUVYAYCSWZIQW0J4ATB", "start_time": "1.51673783181e+12", "human_length": "1", "nodes_expanded": "999", "instance": "prb72800", "end_time": "1.51673783181e+12", "optimal_length": "14", "subject": "A2TQNX64349OZ9"}
{"rt": "45726.0", "trial_number": "2", "skipped": "False", "complete": "True", "assignment": "3WSELTNVR4AZUVYAYCSWZIQW0J4ATB", "start_time": "1.51673783181e+12", "human_length": "35", "nodes_expanded": "999", "instance": "prb72800", "end_time": "1.51673787754e+12", "optimal_length": "14", "subject": "A2TQNX64349OZ9"}
{"rt": "0.0", "trial_number": "0", "skipped": "False", "complete": "False", "assignment": "3IJXV6UZ1YR1KY4G6BFEG1DXP7SRI1", "start_time": "1.51675126585e+12", "human_length": "1", "nodes_expanded": "999", "instance": "prb72800", "end_time": "1.51675126585e+12", "optimal_length": "14", "subject": "A2RTJ6BDY0DZVZ"}
{"rt": "0.0", "trial_number": "1", "skipped": "False", "complete": "False", "assignment": "3IJXV6UZ1YR1KY4G6BFEG1DXP7SRI1", "start_time": "1.51675126585e+12", "human_length": "1", "nodes_expanded": "999", "instance": "prb72800", "end_time": "1.51675126585e+12", "optimal_length": "14", "subject": "A2RTJ6BDY0DZVZ"}
{"rt": "51307.0", "trial_number": "2", "skipped": "False", "complete": "True", "assignment": "3IJXV6UZ1YR1KY4G6BFEG1DXP7SRI1", "start_time": "1.51675126585e+12", "human_length": "30", "nodes_expanded": "999", "instance": "prb72800", "end_time": "1.51675131716e+12", "optimal_length": "14", "subject": "A2RTJ6BDY0DZVZ"}
{"rt": "0.0", "trial_number": "0", "skipped": "False", "complete": "False", "assignment": "3I2PTA7R3U2SESF4TZBQORI5LSJQKK", "start_time": "1.51675970898e+12", "human_length": "1", "nodes_expanded": "999", "instance": "prb72800", "end_time": "1.51675970898e+12", "optimal_length": "14", "subject": "A3NMQ3019X6YE0"}
{"rt": "0.0", "trial_number": "1", "skipped": "False", "complete": "False", "assignment": "3I2PTA7R3U2SESF4TZBQORI5LSJQKK", "start_time": "1.51675970898e+12", "human_length": "1", "nodes_expanded": "999", "instance": "prb72800", "end_time": "1.51675970898e+12", "optimal_length": "14", "subject": "A3NMQ3019X6YE0"}
{"rt": "46605.0", "trial_number": "2", "skipped": "False", "complete": "True", "assignment": "3I2PTA7R3U2SESF4TZBQORI5LSJQKK", "start_time": "1.51675970898e+12", "human_length": "25", "nodes_expanded": "999", "instance": "prb72800", "end_time": "1.51675975558e+12", "optimal_length": "14", "subject": "A3NMQ3019X6YE0"}
{"rt": "131801.0", "trial_number": "3", "skipped": "False", "complete": "True", "assignment": "3V5Q80FXIYZ5QB5C6ITQBN30WY823U", "start_time": "1.5175322323e+12", "human_length": "65", "nodes_expanded": "999", "instance": "prb72800", "end_time": "1.5175323641e+12", "optimal_length": "14", "subject": "A3NMQ3019X6YE0"}
{"rt": "0.0", "trial_number": "0", "skipped": "False", "complete": "False", "assignment": "3X4MXAO0BHWJLTOLVSJTHSM54OHWRG", "start_time": "1.51682187754e+12", "human_length": "1", "nodes_expanded": "999", "instance": "prb72800", "end_time": "1.51682187754e+12", "optimal_length": "14", "subject": "A2IBQA01NR5N76"}
{"rt": "50591.0", "trial_number": "1", "skipped": "False", "complete": "True", "assignment": "3X4MXAO0BHWJLTOLVSJTHSM54OHWRG", "start_time": "1.51682187754e+12", "human_length": "16", "nodes_expanded": "999", "instance": "prb72800", "end_time": "1.51682192813e+12", "optimal_length": "14", "subject": "A2IBQA01NR5N76"}
{"rt": "50591.0", "trial_number": "0", "skipped": "False", "complete": "True", "assignment": "3X4MXAO0BHWJLTOLVSJTHSM54OHWRG", "start_time": "1.51682187754e+12", "human_length": "16", "nodes_expanded": "999", "instance": "prb72800", "end_time": "1.51682192813e+12", "optimal_length": "14", "subject": "A2IBQA01NR5N76"}
{"rt": "0.0", "trial_number": "0", "skipped": "False", "complete": "False", "assignment": "3IHR8NYAM89M0EPM8U9LH53ZJDTP4U", "start_time": "1.51682574411e+12", "human_length": "1", "nodes_expanded": "999", "instance": "prb72800", "end_time": "1.51682574411e+12", "optimal_length": "14", "subject": "A23437BMZ5T1FH"}
{"rt": "23834.0", "trial_number": "1", "skipped": "False", "complete": "True", "assignment": "3IHR8NYAM89M0EPM8U9LH53ZJDTP4U", "start_time": "1.51682574411e+12", "human_length": "22", "nodes_expanded": "999", "instance": "prb72800", "end_time": "1.51682576794e+12", "optimal_length": "14", "subject": "A23437BMZ5T1FH"}
{"rt": "0.0", "trial_number": "0", "skipped": "False", "complete": "False", "assignment": "3YW4XOSQKRTI0K0Z2YPDTDJVFABU1I", "start_time": "1.51683120008e+12", "human_length": "1", "nodes_expanded": "999", "instance": "prb72800", "end_time": "1.51683120008e+12", "optimal_length": "14", "subject": "A1LR0VQIHQUJAM"}
{"rt": "31470.0", "trial_number": "1", "skipped": "False", "complete": "True", "assignment": "3YW4XOSQKRTI0K0Z2YPDTDJVFABU1I", "start_time": "1.51683120008e+12", "human_length": "25", "nodes_expanded": "999", "instance": "prb72800", "end_time": "1.51683123155e+12", "optimal_length": "14", "subject": "A1LR0VQIHQUJAM"}
{"rt": "50610.0", "trial_number": "0", "skipped": "False", "complete": "True", "assignment": "3VE8AYVF8N5BS2NU6U3TMN50JMNF8V", "start_time": "1.51673544648e+12", "human_length": "19", "nodes_expanded": "999", "instance": "prb72800", "end_time": "1.51673549709e+12", "optimal_length": "14", "subject": "A18QU0YQB6Q8DF"}
{"rt": "40164.0", "trial_number": "0", "skipped": "False", "complete": "True", "assignment": "3X87C8JFV7JQ2BSCY8KSFD9F2ILSQK", "start_time": "1.51674091996e+12", "human_length": "22", "nodes_expanded": "999", "instance": "prb72800", "end_time": "1.51674096012e+12", "optimal_length": "14", "subject": "A3Q0XAGQ7TD7MP"}
{"rt": "50738.0", "trial_number": "1", "skipped": "False", "complete": "True", "assignment": "3GLB5JMZFY3TNXFGYMKRQ0JDXNTDGZ", "start_time": "1.51794810983e+12", "human_length": "22", "nodes_expanded": "999", "instance": "prb72800", "end_time": "1.51794816057e+12", "optimal_length": "14", "subject": "A3Q0XAGQ7TD7MP"}
{"rt": "45726.0", "trial_number": "0", "skipped": "False", "complete": "True", "assignment": "3WSELTNVR4AZUVYAYCSWZIQW0J4ATB", "start_time": "1.51673783181e+12", "human_length": "35", "nodes_expanded": "999", "instance": "prb72800", "end_time": "1.51673787754e+12", "optimal_length": "14", "subject": "A2TQNX64349OZ9"}
{"rt": "51307.0", "trial_number": "0", "skipped": "False", "complete": "True", "assignment": "3IJXV6UZ1YR1KY4G6BFEG1DXP7SRI1", "start_time": "1.51675126585e+12", "human_length": "30", "nodes_expanded": "999", "instance": "prb72800", "end_time": "1.51675131716e+12", "optimal_length": "14", "subject": "A2RTJ6BDY0DZVZ"}
{"rt": "46605.0", "trial_number": "0", "skipped": "False", "complete": "True", "assignment": "3I2PTA7R3U2SESF4TZBQORI5LSJQKK", "start_time": "1.51675970898e+12", "human_length": "25", "nodes_expanded": "999", "instance": "prb72800", "end_time": "1.51675975558e+12", "optimal_length": "14", "subject": "A3NMQ3019X6YE0"}
{"rt": "131801.0", "trial_number": "1", "skipped": "False", "complete": "True", "assignment": "3V5Q80FXIYZ5QB5C6ITQBN30WY823U", "start_time": "1.5175322323e+12", "human_length": "65", "nodes_expanded": "999", "instance": "prb72800", "end_time": "1.5175323641e+12", "optimal_length": "14", "subject": "A3NMQ3019X6YE0"}
{"rt": "18051.0", "trial_number": "0", "skipped": "False", "complete": "True", "assignment": "3TS1AR6UQRM7SOIBWPBN8N9589Y7FV", "start_time": "1.51683972364e+12", "human_length": "18", "nodes_expanded": "999", "instance": "prb72800", "end_time": "1.51683974169e+12", "optimal_length": "14", "subject": "A1F4N58CAX8IMK"}
{"rt": "16015.0", "trial_number": "1", "skipped": "False", "complete": "True", "assignment": "35DR22AR5ES6RR89U7EJ1DXW91AX3P", "start_time": "1.51795427698e+12", "human_length": "16", "nodes_expanded": "999", "instance": "prb72800", "end_time": "1.51795429299e+12", "optimal_length": "14", "subject": "A1F4N58CAX8IMK"}
{"rt": "63686.0", "trial_number": "0", "skipped": "False", "complete": "True", "assignment": "3M0BCWMB8W4W5M7WZVX3HDH1M3FBWL", "start_time": "1.51684084288e+12", "human_length": "37", "nodes_expanded": "999", "instance": "prb72800", "end_time": "1.51684090657e+12", "optimal_length": "14", "subject": "A1XDMS0KFSF5JW"}
{"rt": "55186.0", "trial_number": "0", "skipped": "False", "complete": "True", "assignment": "3TS1AR6UQRM7SOIBWPBN8N9589Y7FV", "start_time": "1.51684241218e+12", "human_length": "43", "nodes_expanded": "999", "instance": "prb72800", "end_time": "1.51684246737e+12", "optimal_length": "14", "subject": "A15FXHC1CVNW31"}
{"rt": "18612.0", "trial_number": "0", "skipped": "False", "complete": "False", "assignment": "31LM9EDVOM0C0BWUVMJXJINN3QPJNI", "start_time": "1.51752357335e+12", "human_length": "10", "nodes_expanded": "999", "instance": "prb72800", "end_time": "1.51752359196e+12", "optimal_length": "14", "subject": "A1NT8BT94ME6F5"}
{"rt": "10731.0", "trial_number": "1", "skipped": "False", "complete": "False", "assignment": "31LM9EDVOM0C0BWUVMJXJINN3QPJNI", "start_time": "1.51752359291e+12", "human_length": "7", "nodes_expanded": "999", "instance": "prb72800", "end_time": "1.51752360364e+12", "optimal_length": "14", "subject": "A1NT8BT94ME6F5"}
{"rt": "7186.0", "trial_number": "2", "skipped": "False", "complete": "False", "assignment": "31LM9EDVOM0C0BWUVMJXJINN3QPJNI", "start_time": "1.51752360533e+12", "human_length": "4", "nodes_expanded": "999", "instance": "prb72800", "end_time": "1.51752361252e+12", "optimal_length": "14", "subject": "A1NT8BT94ME6F5"}
{"rt": "54153.0", "trial_number": "3", "skipped": "True", "complete": "False", "assignment": "31LM9EDVOM0C0BWUVMJXJINN3QPJNI", "start_time": "1.51752361526e+12", "human_length": "34", "nodes_expanded": "999", "instance": "prb72800", "end_time": "1.51752366942e+12", "optimal_length": "14", "subject": "A1NT8BT94ME6F5"}
{"rt": "39045.0", "trial_number": "0", "skipped": "False", "complete": "True", "assignment": "37TD41K0AIHM8AITTQJXV8KY05QCSB", "start_time": "1.51752481118e+12", "human_length": "22", "nodes_expanded": "999", "instance": "prb72800", "end_time": "1.51752485022e+12", "optimal_length": "14", "subject": "A30KYQGABO7JER"}
{"rt": "37951.0", "trial_number": "0", "skipped": "False", "complete": "True", "assignment": "3TYCR1GOTDRCCQYD1V64UK7OHTBZLQ", "start_time": "1.51753622224e+12", "human_length": "30", "nodes_expanded": "999", "instance": "prb72800", "end_time": "1.51753626019e+12", "optimal_length": "14", "subject": "A13BZCNJ0WR1T7"}
{"rt": "24385.0", "trial_number": "0", "skipped": "False", "complete": "True", "assignment": "3H0W84IWBLAP4T2UASPNVMF5ZH7ER9", "start_time": "1.51755341141e+12", "human_length": "17", "nodes_expanded": "999", "instance": "prb72800", "end_time": "1.5175534358e+12", "optimal_length": "14", "subject": "A1AKX1C8GCVCTP"}
{"rt": "30864.0", "trial_number": "0", "skipped": "False", "complete": "True", "assignment": "3TPWUS5F8A9FFRZ2DVTYSXNJ6BWWC6", "start_time": "1.51794249271e+12", "human_length": "24", "nodes_expanded": "999", "instance": "prb72800", "end_time": "1.51794252358e+12", "optimal_length": "14", "subject": "A3GXC3VG37CQ3G"}
{"rt": "26423.0", "trial_number": "0", "skipped": "False", "complete": "True", "assignment": "34HJIJKLP64Z5YMIU6IKNXSH7PDV4I", "start_time": "1.51794301224e+12", "human_length": "17", "nodes_expanded": "999", "instance": "prb72800", "end_time": "1.51794303867e+12", "optimal_length": "14", "subject": "A3CTXNQ2GXIQSP"}
{"rt": "73739.0", "trial_number": "0", "skipped": "False", "complete": "True", "assignment": "33PPO7FECWN7JOLBOAKUBCWTC0AIDL", "start_time": "1.51794171211e+12", "human_length": "55", "nodes_expanded": "999", "instance": "prb72800", "end_time": "1.51794178585e+12", "optimal_length": "14", "subject": "AB5IVPS4OP9M8"}
{"rt": "43009.0", "trial_number": "0", "skipped": "True", "complete": "False", "assignment": "3IAS3U3I0GOAT69PLB8WT61CKJ22BO", "start_time": "1.51794190678e+12", "human_length": "19", "nodes_expanded": "999", "instance": "prb72800", "end_time": "1.51794194979e+12", "optimal_length": "14", "subject": "ATSZCAVI441RM"}
{"rt": "5803.0", "trial_number": "0", "skipped": "False", "complete": "False", "assignment": "3STRJBFXOXZ5687WA35LTWTS7QZKTT", "start_time": "1.51794562801e+12", "human_length": "5", "nodes_expanded": "999", "instance": "prb72800", "end_time": "1.51794563381e+12", "optimal_length": "14", "subject": "A3OB6REG5CGHK1"}
{"rt": "8771.0", "trial_number": "1", "skipped": "False", "complete": "False", "assignment": "3STRJBFXOXZ5687WA35LTWTS7QZKTT", "start_time": "1.51794563658e+12", "human_length": "9", "nodes_expanded": "999", "instance": "prb72800", "end_time": "1.51794564535e+12", "optimal_length": "14", "subject": "A3OB6REG5CGHK1"}
{"rt": "4960.0", "trial_number": "2", "skipped": "False", "complete": "False", "assignment": "3STRJBFXOXZ5687WA35LTWTS7QZKTT", "start_time": "1.51794564795e+12", "human_length": "2", "nodes_expanded": "999", "instance": "prb72800", "end_time": "1.51794565291e+12", "optimal_length": "14", "subject": "A3OB6REG5CGHK1"}
{"rt": "17093.0", "trial_number": "3", "skipped": "False", "complete": "False", "assignment": "3STRJBFXOXZ5687WA35LTWTS7QZKTT", "start_time": "1.51794566017e+12", "human_length": "8", "nodes_expanded": "999", "instance": "prb72800", "end_time": "1.51794567726e+12", "optimal_length": "14", "subject": "A3OB6REG5CGHK1"}
{"rt": "5443.0", "trial_number": "4", "skipped": "False", "complete": "False", "assignment": "3STRJBFXOXZ5687WA35LTWTS7QZKTT", "start_time": "1.51794568077e+12", "human_length": "3", "nodes_expanded": "999", "instance": "prb72800", "end_time": "1.51794568621e+12", "optimal_length": "14", "subject": "A3OB6REG5CGHK1"}
{"rt": "34609.0", "trial_number": "5", "skipped": "False", "complete": "True", "assignment": "3STRJBFXOXZ5687WA35LTWTS7QZKTT", "start_time": "1.51794568975e+12", "human_length": "24", "nodes_expanded": "999", "instance": "prb72800", "end_time": "1.51794572436e+12", "optimal_length": "14", "subject": "A3OB6REG5CGHK1"}
{"rt": "118484.0", "trial_number": "0", "skipped": "False", "complete": "True", "assignment": "3JCG6DTRV4YEPVDZ64VNKDUEMPGQQ1", "start_time": "1.51794594348e+12", "human_length": "31", "nodes_expanded": "999", "instance": "prb72800", "end_time": "1.51794606196e+12", "optimal_length": "14", "subject": "A2V7KYLBCBTI3B"}
{"rt": "25018.0", "trial_number": "0", "skipped": "False", "complete": "False", "assignment": "33PPO7FECWN7JOLBOAKUBCWTC0AIDL", "start_time": "1.51795142421e+12", "human_length": "6", "nodes_expanded": "999", "instance": "prb72800", "end_time": "1.51795144923e+12", "optimal_length": "14", "subject": "AXKM02NVXNGOM"}
{"rt": "69963.0", "trial_number": "1", "skipped": "False", "complete": "True", "assignment": "33PPO7FECWN7JOLBOAKUBCWTC0AIDL", "start_time": "1.51795145603e+12", "human_length": "22", "nodes_expanded": "999", "instance": "prb72800", "end_time": "1.51795152599e+12", "optimal_length": "14", "subject": "AXKM02NVXNGOM"}
{"rt": "57438.0", "trial_number": "0", "skipped": "False", "complete": "True", "assignment": "3R5F3LQFV3SKIB1AENMWM1BICT5OZB", "start_time": "1.51795263418e+12", "human_length": "19", "nodes_expanded": "999", "instance": "prb72800", "end_time": "1.51795269162e+12", "optimal_length": "14", "subject": "A2YLK83DQ6PA5Y"}
{"rt": "40758.0", "trial_number": "0", "skipped": "False", "complete": "True", "assignment": "3R5F3LQFV3SKIB1AENMWM1BICT5OZB", "start_time": "1.51795716264e+12", "human_length": "30", "nodes_expanded": "999", "instance": "prb72800", "end_time": "1.5179572034e+12", "optimal_length": "14", "subject": "A1N1EF0MIRSEZZ"}
{"rt": "34195.0", "trial_number": "0", "skipped": "False", "complete": "True", "assignment": "33F859I567LE8WC74WB3GA7E94XBHW", "start_time": "1.51796835014e+12", "human_length": "21", "nodes_expanded": "999", "instance": "prb72800", "end_time": "1.51796838434e+12", "optimal_length": "14", "subject": "A1GQS6USF2JEYG"}
{"rt": "24658.0", "trial_number": "0", "skipped": "False", "complete": "True", "assignment": "3IJXV6UZ1YR1KY4G6BFEG1DXR47RIC", "start_time": "1.51797214345e+12", "human_length": "21", "nodes_expanded": "999", "instance": "prb72800", "end_time": "1.51797216811e+12", "optimal_length": "14", "subject": "A18T3WK7J16C1B"}
{"rt": "22737.0", "trial_number": "0", "skipped": "False", "complete": "True", "assignment": "3FTF2T8WLSQDHTSZ1BJ7Q7MB14SW9H", "start_time": "1.51813641624e+12", "human_length": "16", "nodes_expanded": "999", "instance": "prb72800", "end_time": "1.51813643898e+12", "optimal_length": "14", "subject": "A1IUH9D7N69VS"}
{"rt": "32625.0", "trial_number": "0", "skipped": "False", "complete": "True", "assignment": "3XC1O3LBOTUGQEPEV3HM8W67X4RTLL", "start_time": "1.51813916988e+12", "human_length": "17", "nodes_expanded": "999", "instance": "prb72800", "end_time": "1.5181392025e+12", "optimal_length": "14", "subject": "A1ZTSCPETU3UJW"}
{"rt": "23326.0", "trial_number": "0", "skipped": "False", "complete": "True", "assignment": "3TAYZSBPLMG9ASQRWXURJVBCPLN2SH", "start_time": "1.51813631102e+12", "human_length": "16", "nodes_expanded": "999", "instance": "prb72800", "end_time": "1.51813633435e+12", "optimal_length": "14", "subject": "A2RCYLKY072XXO"}
{"rt": "21910.0", "trial_number": "0", "skipped": "False", "complete": "True", "assignment": "3ZSANO2JCGFTBM23KS9Y3E51YP4FSQ", "start_time": "1.51814315727e+12", "human_length": "16", "nodes_expanded": "999", "instance": "prb72800", "end_time": "1.51814317918e+12", "optimal_length": "14", "subject": "A1F42D4L22K5ND"}
{"rt": "20069.0", "trial_number": "0", "skipped": "False", "complete": "True", "assignment": "3VE8AYVF8N5BS2NU6U3TMN50MV38FP", "start_time": "1.51814311980e+12", "human_length": "14", "nodes_expanded": "999", "instance": "prb72800", "end_time": "1.51814313987e+12", "optimal_length": "14", "subject": "A1JN13098RIE78"}
{"rt": "49403.0", "trial_number": "0", "skipped": "False", "complete": "True", "assignment": "3WJEQKOXA9AYLBM1WT8MTC71B9AA1K", "start_time": "1.51814378486e+12", "human_length": "31", "nodes_expanded": "999", "instance": "prb72800", "end_time": "1.51814383426e+12", "optimal_length": "14", "subject": "A2RRC5B4M80XXO"}
{"rt": "19541.0", "trial_number": "0", "skipped": "False", "complete": "True", "assignment": "3XLBSAQ9Z5KDX59BX15UBFPNNHYZ7Q", "start_time": "1.51814700868e+12", "human_length": "15", "nodes_expanded": "999", "instance": "prb72800", "end_time": "1.51814702822e+12", "optimal_length": "14", "subject": "A1HFNOKU591WCY"}
{"rt": "389030.0", "trial_number": "0", "skipped": "False", "complete": "True", "assignment": "3FUI0JHJPY6UBT1VAI7VUX8S3KH33W", "start_time": "1.51814909371e+12", "human_length": "94", "nodes_expanded": "999", "instance": "prb72800", "end_time": "1.51814948274e+12", "optimal_length": "14", "subject": "A2QIZ31TMHU0GD"}
{"rt": "0.0", "trial_number": "0", "skipped": "False", "complete": "False", "assignment": "3RUIQRXJBCWS71H9MUFVM5WQ3SCLLJ", "start_time": "1.51815619211e+12", "human_length": "1", "nodes_expanded": "999", "instance": "prb72800", "end_time": "1.51815619211e+12", "optimal_length": "14", "subject": "A1SJRFJWFXSDH4"}
{"rt": "0.0", "trial_number": "1", "skipped": "False", "complete": "False", "assignment": "3RUIQRXJBCWS71H9MUFVM5WQ3SCLLJ", "start_time": "1.51815619212e+12", "human_length": "1", "nodes_expanded": "999", "instance": "prb72800", "end_time": "1.51815619212e+12", "optimal_length": "14", "subject": "A1SJRFJWFXSDH4"}
{"rt": "11107.0", "trial_number": "2", "skipped": "False", "complete": "False", "assignment": "3RUIQRXJBCWS71H9MUFVM5WQ3SCLLJ", "start_time": "1.51815619213e+12", "human_length": "3", "nodes_expanded": "999", "instance": "prb72800", "end_time": "1.51815620324e+12", "optimal_length": "14", "subject": "A1SJRFJWFXSDH4"}
{"rt": "26861.0", "trial_number": "3", "skipped": "False", "complete": "True", "assignment": "3RUIQRXJBCWS71H9MUFVM5WQ3SCLLJ", "start_time": "1.51815621107e+12", "human_length": "17", "nodes_expanded": "999", "instance": "prb72800", "end_time": "1.51815623793e+12", "optimal_length": "14", "subject": "A1SJRFJWFXSDH4"}
{"rt": "34219.0", "trial_number": "0", "skipped": "False", "complete": "True", "assignment": "37QW5D2ZRHUKW7SGCE3STMOFBMK8SX", "start_time": "1.51815700102e+12", "human_length": "22", "nodes_expanded": "999", "instance": "prb72800", "end_time": "1.51815703524e+12", "optimal_length": "14", "subject": "AMW2XLD9443OH"}
{"rt": "19316.0", "trial_number": "0", "skipped": "False", "complete": "False", "assignment": "3M0BCWMB8W4W5M7WZVX3HDH1P53WB1", "start_time": "1.51816067997e+12", "human_length": "11", "nodes_expanded": "999", "instance": "prb72800", "end_time": "1.51816069929e+12", "optimal_length": "14", "subject": "A53S7J4JGWG38"}
{"rt": "34012.0", "trial_number": "1", "skipped": "False", "complete": "True", "assignment": "3M0BCWMB8W4W5M7WZVX3HDH1P53WB1", "start_time": "1.51816070188e+12", "human_length": "16", "nodes_expanded": "999", "instance": "prb72800", "end_time": "1.51816073589e+12", "optimal_length": "14", "subject": "A53S7J4JGWG38"}
{"rt": "15181.0", "trial_number": "0", "skipped": "False", "complete": "True", "assignment": "3IXEICO793RY7TM78ZBKJDOA7ADT6Q", "start_time": "1.51816876639e+12", "human_length": "17", "nodes_expanded": "999", "instance": "prb72800", "end_time": "1.51816878157e+12", "optimal_length": "14", "subject": "ALH1K6ZAQQMN7"}
