{"rt": "22720.0", "trial_number": "0", "skipped": "False", "complete": "True", "assignment": "3TYCR1GOTDRCCQYD1V64UK7OHTBZLQ", "start_time": "1.5175366729e+12", "human_length": "19", "nodes_expanded": "999", "instance": "prb717", "end_time": "1.51753669562e+12", "optimal_length": "11", "subject": "A13BZCNJ0WR1T7"}
{"rt": "56724.0", "trial_number": "0", "skipped": "False", "complete": "False", "assignment": "3VE8AYVF8N5BS2NU6U3TMN50JMNF8V", "start_time": "1.51673478446e+12", "human_length": "7", "nodes_expanded": "999", "instance": "prb717", "end_time": "1.51673484118e+12", "optimal_length": "11", "subject": "A18QU0YQB6Q8DF"}
{"rt": "47778.0", "trial_number": "1", "skipped": "False", "complete": "False", "assignment": "3VE8AYVF8N5BS2NU6U3TMN50JMNF8V", "start_time": "1.51673484483e+12", "human_length": "9", "nodes_expanded": "999", "instance": "prb717", "end_time": "1.51673489261e+12", "optimal_length": "11", "subject": "A18QU0YQB6Q8DF"}
{"rt": "0.0", "trial_number": "2", "skipped": "False", "complete": "False", "assignment": "3VE8AYVF8N5BS2NU6U3TMN50JMNF8V", "start_time": "1.51673489354e+12", "human_length": "1", "nodes_expanded": "999", "instance": "prb717", "end_time": "1.51673489354e+12", "optimal_length": "11", "subject": "A18QU0YQB6Q8DF"}
{"rt": "0.0", "trial_number": "3", "skipped": "False", "complete": "False", "assignment": "3VE8AYVF8N5BS2NU6U3TMN50JMNF8V", "start_time": "1.51673478446e+12", "human_length": "1", "nodes_expanded": "999", "instance": "prb717", "end_time": "1.51673478446e+12", "optimal_length": "11", "subject": "A18QU0YQB6Q8DF"}
{"rt": "0.0", "trial_number": "4", "skipped": "False", "complete": "False", "assignment": "3VE8AYVF8N5BS2NU6U3TMN50JMNF8V", "start_time": "1.51673484483e+12", "human_length": "1", "nodes_expanded": "999", "instance": "prb717", "end_time": "1.51673484483e+12", "optimal_length": "11", "subject": "A18QU0YQB6Q8DF"}
{"rt": "0.0", "trial_number": "5", "skipped": "False", "complete": "False", "assignment": "3VE8AYVF8N5BS2NU6U3TMN50JMNF8V", "start_time": "1.51673489354e+12", "human_length": "1", "nodes_expanded": "999", "instance": "prb717", "end_time": "1.51673489354e+12", "optimal_length": "11", "subject": "A18QU0YQB6Q8DF"}
{"rt": "0.0", "trial_number": "6", "skipped": "False", "complete": "False", "assignment": "3VE8AYVF8N5BS2NU6U3TMN50JMNF8V", "start_time": "1.51673478446e+12", "human_length": "1", "nodes_expanded": "999", "instance": "prb717", "end_time": "1.51673478446e+12", "optimal_length": "11", "subject": "A18QU0YQB6Q8DF"}
{"rt": "0.0", "trial_number": "7", "skipped": "False", "complete": "False", "assignment": "3VE8AYVF8N5BS2NU6U3TMN50JMNF8V", "start_time": "1.51673484483e+12", "human_length": "1", "nodes_expanded": "999", "instance": "prb717", "end_time": "1.51673484483e+12", "optimal_length": "11", "subject": "A18QU0YQB6Q8DF"}
{"rt": "35590.0", "trial_number": "8", "skipped": "True", "complete": "False", "assignment": "3VE8AYVF8N5BS2NU6U3TMN50JMNF8V", "start_time": "1.51673489354e+12", "human_length": "43", "nodes_expanded": "999", "instance": "prb717", "end_time": "1.51673492913e+12", "optimal_length": "11", "subject": "A18QU0YQB6Q8DF"}
{"rt": "56724.0", "trial_number": "0", "skipped": "False", "complete": "False", "assignment": "3VE8AYVF8N5BS2NU6U3TMN50JMNF8V", "start_time": "1.51673478446e+12", "human_length": "7", "nodes_expanded": "999", "instance": "prb717", "end_time": "1.51673484118e+12", "optimal_length": "11", "subject": "A18QU0YQB6Q8DF"}
{"rt": "47778.0", "trial_number": "1", "skipped": "False", "complete": "False", "assignment": "3VE8AYVF8N5BS2NU6U3TMN50JMNF8V", "start_time": "1.51673484483e+12", "human_length": "9", "nodes_expanded": "999", "instance": "prb717", "end_time": "1.51673489261e+12", "optimal_length": "11", "subject": "A18QU0YQB6Q8DF"}
{"rt": "38739.0", "trial_number": "2", "skipped": "True", "complete": "False", "assignment": "3VE8AYVF8N5BS2NU6U3TMN50JMNF8V", "start_time": "1.51673489354e+12", "human_length": "6", "nodes_expanded": "999", "instance": "prb717", "end_time": "1.51673493228e+12", "optimal_length": "11", "subject": "A18QU0YQB6Q8DF"}
{"rt": "30763.0", "trial_number": "0", "skipped": "False", "complete": "True", "assignment": "3IJXV6UZ1YR1KY4G6BFEG1DXR47RIC", "start_time": "1.5179721688e+12", "human_length": "25", "nodes_expanded": "999", "instance": "prb717", "end_time": "1.51797219956e+12", "optimal_length": "11", "subject": "A18T3WK7J16C1B"}
{"rt": "10735.0", "trial_number": "0", "skipped": "False", "complete": "True", "assignment": "3PMBY0YE28B43VMUKKJ6EDF85RV9C8", "start_time": "1.5163879893e+12", "human_length": "11", "nodes_expanded": "999", "instance": "prb717", "end_time": "1.51638800004e+12", "optimal_length": "11", "subject": "A191V7PT3DQKDP"}
{"rt": "54963.0", "trial_number": "0", "skipped": "False", "complete": "True", "assignment": "3H0W84IWBLAP4T2UASPNVMF5ZH7ER9", "start_time": "1.51755217738e+12", "human_length": "22", "nodes_expanded": "999", "instance": "prb717", "end_time": "1.51755223234e+12", "optimal_length": "11", "subject": "A1AKX1C8GCVCTP"}
{"rt": "24885.0", "trial_number": "0", "skipped": "False", "complete": "True", "assignment": "3ZSANO2JCGFTBM23KS9Y3E51YP4FSQ", "start_time": "1.51814395426e+12", "human_length": "22", "nodes_expanded": "999", "instance": "prb717", "end_time": "1.51814397914e+12", "optimal_length": "11", "subject": "A1F42D4L22K5ND"}
{"rt": "20756.0", "trial_number": "0", "skipped": "False", "complete": "True", "assignment": "3TS1AR6UQRM7SOIBWPBN8N9589Y7FV", "start_time": "1.51683970206e+12", "human_length": "19", "nodes_expanded": "999", "instance": "prb717", "end_time": "1.51683972281e+12", "optimal_length": "11", "subject": "A1F4N58CAX8IMK"}
{"rt": "16544.0", "trial_number": "1", "skipped": "False", "complete": "True", "assignment": "35DR22AR5ES6RR89U7EJ1DXW91AX3P", "start_time": "1.51795457521e+12", "human_length": "18", "nodes_expanded": "999", "instance": "prb717", "end_time": "1.51795459175e+12", "optimal_length": "11", "subject": "A1F4N58CAX8IMK"}
{"rt": "15754.0", "trial_number": "0", "skipped": "False", "complete": "True", "assignment": "33F859I567LE8WC74WB3GA7E94XBHW", "start_time": "1.51796984897e+12", "human_length": "17", "nodes_expanded": "999", "instance": "prb717", "end_time": "1.51796986472e+12", "optimal_length": "11", "subject": "A1GQS6USF2JEYG"}
{"rt": "28194.0", "trial_number": "0", "skipped": "False", "complete": "True", "assignment": "3XLBSAQ9Z5KDX59BX15UBFPNNHYZ7Q", "start_time": "1.51814625986e+12", "human_length": "25", "nodes_expanded": "999", "instance": "prb717", "end_time": "1.51814628806e+12", "optimal_length": "11", "subject": "A1HFNOKU591WCY"}
{"rt": "19373.0", "trial_number": "0", "skipped": "False", "complete": "True", "assignment": "3FTF2T8WLSQDHTSZ1BJ7Q7MB14SW9H", "start_time": "1.51813730483e+12", "human_length": "15", "nodes_expanded": "999", "instance": "prb717", "end_time": "1.51813732421e+12", "optimal_length": "11", "subject": "A1IUH9D7N69VS"}
{"rt": "40434.0", "trial_number": "0", "skipped": "False", "complete": "True", "assignment": "3VE8AYVF8N5BS2NU6U3TMN50MV38FP", "start_time": "1.51814498042e+12", "human_length": "14", "nodes_expanded": "999", "instance": "prb717", "end_time": "1.51814502086e+12", "optimal_length": "11", "subject": "A1JN13098RIE78"}
{"rt": "35814.0", "trial_number": "0", "skipped": "False", "complete": "True", "assignment": "3YW4XOSQKRTI0K0Z2YPDTDJVFABU1I", "start_time": "1.51683208768e+12", "human_length": "11", "nodes_expanded": "999", "instance": "prb717", "end_time": "1.5168321235e+12", "optimal_length": "11", "subject": "A1LR0VQIHQUJAM"}
{"rt": "10159.0", "trial_number": "0", "skipped": "False", "complete": "False", "assignment": "31LM9EDVOM0C0BWUVMJXJINN3QPJNI", "start_time": "1.51752315823e+12", "human_length": "8", "nodes_expanded": "999", "instance": "prb717", "end_time": "1.51752316839e+12", "optimal_length": "11", "subject": "A1NT8BT94ME6F5"}
{"rt": "11101.0", "trial_number": "1", "skipped": "False", "complete": "False", "assignment": "31LM9EDVOM0C0BWUVMJXJINN3QPJNI", "start_time": "1.51752316934e+12", "human_length": "8", "nodes_expanded": "999", "instance": "prb717", "end_time": "1.51752318044e+12", "optimal_length": "11", "subject": "A1NT8BT94ME6F5"}
{"rt": "26661.0", "trial_number": "2", "skipped": "True", "complete": "False", "assignment": "31LM9EDVOM0C0BWUVMJXJINN3QPJNI", "start_time": "1.51752318239e+12", "human_length": "10", "nodes_expanded": "999", "instance": "prb717", "end_time": "1.51752320906e+12", "optimal_length": "11", "subject": "A1NT8BT94ME6F5"}
{"rt": "32010.0", "trial_number": "0", "skipped": "False", "complete": "False", "assignment": "3RUIQRXJBCWS71H9MUFVM5WQ3SCLLJ", "start_time": "1.51815650197e+12", "human_length": "19", "nodes_expanded": "999", "instance": "prb717", "end_time": "1.51815653398e+12", "optimal_length": "11", "subject": "A1SJRFJWFXSDH4"}
{"rt": "20076.0", "trial_number": "1", "skipped": "True", "complete": "False", "assignment": "3RUIQRXJBCWS71H9MUFVM5WQ3SCLLJ", "start_time": "1.51815653525e+12", "human_length": "6", "nodes_expanded": "999", "instance": "prb717", "end_time": "1.51815655532e+12", "optimal_length": "11", "subject": "A1SJRFJWFXSDH4"}
{"rt": "59418.0", "trial_number": "0", "skipped": "False", "complete": "True", "assignment": "3PB5A5BD0WED6OE679H5Q89HBDGG71", "start_time": "1.5179510439e+12", "human_length": "36", "nodes_expanded": "999", "instance": "prb717", "end_time": "1.51795110332e+12", "optimal_length": "11", "subject": "A1USR9JCAMDGM3"}
{"rt": "61546.0", "trial_number": "0", "skipped": "False", "complete": "True", "assignment": "3XC1O3LBOTUGQEPEV3HM8W67X4RTLL", "start_time": "1.51813651727e+12", "human_length": "29", "nodes_expanded": "999", "instance": "prb717", "end_time": "1.51813657881e+12", "optimal_length": "11", "subject": "A1ZTSCPETU3UJW"}
{"rt": "12302.0", "trial_number": "0", "skipped": "False", "complete": "True", "assignment": "34BBWHLWHBJ6SUL255PK30LEGY5IWG", "start_time": "1.51639322842e+12", "human_length": "14", "nodes_expanded": "999", "instance": "prb717", "end_time": "1.51639324072e+12", "optimal_length": "11", "subject": "A214HWAW1PYWO8"}
{"rt": "0.0", "trial_number": "0", "skipped": "False", "complete": "False", "assignment": "3IHR8NYAM89M0EPM8U9LH53ZJDTP4U", "start_time": "1.51682525523e+12", "human_length": "1", "nodes_expanded": "999", "instance": "prb717", "end_time": "1.51682525523e+12", "optimal_length": "11", "subject": "A23437BMZ5T1FH"}
{"rt": "28853.0", "trial_number": "1", "skipped": "False", "complete": "True", "assignment": "3IHR8NYAM89M0EPM8U9LH53ZJDTP4U", "start_time": "1.51682525523e+12", "human_length": "22", "nodes_expanded": "999", "instance": "prb717", "end_time": "1.51682528408e+12", "optimal_length": "11", "subject": "A23437BMZ5T1FH"}
{"rt": "39662.0", "trial_number": "0", "skipped": "False", "complete": "False", "assignment": "30IQTZXKALEAAZ9CBKW0ZFZP6O5X07", "start_time": "1.51794654495e+12", "human_length": "16", "nodes_expanded": "999", "instance": "prb717", "end_time": "1.51794658461e+12", "optimal_length": "11", "subject": "A23XJ8I86R0O3B"}
{"rt": "48596.0", "trial_number": "1", "skipped": "False", "complete": "True", "assignment": "30IQTZXKALEAAZ9CBKW0ZFZP6O5X07", "start_time": "1.51794658728e+12", "human_length": "16", "nodes_expanded": "999", "instance": "prb717", "end_time": "1.51794663587e+12", "optimal_length": "11", "subject": "A23XJ8I86R0O3B"}
{"rt": "0.0", "trial_number": "0", "skipped": "False", "complete": "False", "assignment": "3CFVK00FWMTAOGE2ZQ9TXMETAPZ6LP", "start_time": "1.51675212224e+12", "human_length": "1", "nodes_expanded": "999", "instance": "prb717", "end_time": "1.51675212224e+12", "optimal_length": "11", "subject": "A26RO8GGTQAXGG"}
{"rt": "0.0", "trial_number": "1", "skipped": "False", "complete": "False", "assignment": "3CFVK00FWMTAOGE2ZQ9TXMETAPZ6LP", "start_time": "1.51675212224e+12", "human_length": "1", "nodes_expanded": "999", "instance": "prb717", "end_time": "1.51675212224e+12", "optimal_length": "11", "subject": "A26RO8GGTQAXGG"}
{"rt": "26272.0", "trial_number": "2", "skipped": "False", "complete": "True", "assignment": "3CFVK00FWMTAOGE2ZQ9TXMETAPZ6LP", "start_time": "1.51675212224e+12", "human_length": "11", "nodes_expanded": "999", "instance": "prb717", "end_time": "1.51675214851e+12", "optimal_length": "11", "subject": "A26RO8GGTQAXGG"}
{"rt": "26272.0", "trial_number": "0", "skipped": "False", "complete": "True", "assignment": "3CFVK00FWMTAOGE2ZQ9TXMETAPZ6LP", "start_time": "1.51675212224e+12", "human_length": "11", "nodes_expanded": "999", "instance": "prb717", "end_time": "1.51675214851e+12", "optimal_length": "11", "subject": "A26RO8GGTQAXGG"}
{"rt": "81299.0", "trial_number": "0", "skipped": "False", "complete": "True", "assignment": "3ZV9H2YQQEFR2R3JK2IXZUJPXAF3WW", "start_time": "1.51630565998e+12", "human_length": "34", "nodes_expanded": "999", "instance": "prb717", "end_time": "1.51630574128e+12", "optimal_length": "11", "subject": "A289D98Z4GAZ28"}
{"rt": "89426.0", "trial_number": "0", "skipped": "False", "complete": "True", "assignment": "3SITXWYCNWHBUMCM90TPJWV8Y7AXBW", "start_time": "1.51816354875e+12", "human_length": "42", "nodes_expanded": "999", "instance": "prb717", "end_time": "1.51816363817e+12", "optimal_length": "11", "subject": "A28RX7L0QZ993M"}
{"rt": "80830.0", "trial_number": "0", "skipped": "False", "complete": "True", "assignment": "37WLF8U1WQYZ4AWKEQXSIM1ELVEK6W", "start_time": "1.51683230736e+12", "human_length": "46", "nodes_expanded": "999", "instance": "prb717", "end_time": "1.51683238819e+12", "optimal_length": "11", "subject": "A2EPBSY0VPI38S"}
{"rt": "0.0", "trial_number": "0", "skipped": "False", "complete": "False", "assignment": "3X4MXAO0BHWJLTOLVSJTHSM54OHWRG", "start_time": "1.51682196905e+12", "human_length": "1", "nodes_expanded": "999", "instance": "prb717", "end_time": "1.51682196905e+12", "optimal_length": "11", "subject": "A2IBQA01NR5N76"}
{"rt": "12130.0", "trial_number": "1", "skipped": "False", "complete": "True", "assignment": "3X4MXAO0BHWJLTOLVSJTHSM54OHWRG", "start_time": "1.51682196905e+12", "human_length": "11", "nodes_expanded": "999", "instance": "prb717", "end_time": "1.51682198118e+12", "optimal_length": "11", "subject": "A2IBQA01NR5N76"}
{"rt": "12130.0", "trial_number": "0", "skipped": "False", "complete": "True", "assignment": "3X4MXAO0BHWJLTOLVSJTHSM54OHWRG", "start_time": "1.51682196905e+12", "human_length": "11", "nodes_expanded": "999", "instance": "prb717", "end_time": "1.51682198118e+12", "optimal_length": "11", "subject": "A2IBQA01NR5N76"}
{"rt": "17334.0", "trial_number": "0", "skipped": "False", "complete": "True", "assignment": "3TAYZSBPLMG9ASQRWXURJVBCPLN2SH", "start_time": "1.51813799224e+12", "human_length": "11", "nodes_expanded": "999", "instance": "prb717", "end_time": "1.51813800957e+12", "optimal_length": "11", "subject": "A2RCYLKY072XXO"}
{"rt": "0.0", "trial_number": "0", "skipped": "False", "complete": "False", "assignment": "3WSELTNVR4AZUVYAYCSWZIQW0J4ATB", "start_time": "1.5167378037e+12", "human_length": "1", "nodes_expanded": "999", "instance": "prb717", "end_time": "1.5167378037e+12", "optimal_length": "11", "subject": "A2TQNX64349OZ9"}
{"rt": "0.0", "trial_number": "1", "skipped": "False", "complete": "False", "assignment": "3WSELTNVR4AZUVYAYCSWZIQW0J4ATB", "start_time": "1.5167378037e+12", "human_length": "1", "nodes_expanded": "999", "instance": "prb717", "end_time": "1.5167378037e+12", "optimal_length": "11", "subject": "A2TQNX64349OZ9"}
{"rt": "27481.0", "trial_number": "2", "skipped": "False", "complete": "True", "assignment": "3WSELTNVR4AZUVYAYCSWZIQW0J4ATB", "start_time": "1.5167378037e+12", "human_length": "22", "nodes_expanded": "999", "instance": "prb717", "end_time": "1.51673783118e+12", "optimal_length": "11", "subject": "A2TQNX64349OZ9"}
{"rt": "27481.0", "trial_number": "0", "skipped": "False", "complete": "True", "assignment": "3WSELTNVR4AZUVYAYCSWZIQW0J4ATB", "start_time": "1.5167378037e+12", "human_length": "22", "nodes_expanded": "999", "instance": "prb717", "end_time": "1.51673783118e+12", "optimal_length": "11", "subject": "A2TQNX64349OZ9"}
{"rt": "66939.0", "trial_number": "0", "skipped": "False", "complete": "True", "assignment": "37TD41K0AIHM8AITTQJXV8KY05QCSB", "start_time": "1.51752358975e+12", "human_length": "21", "nodes_expanded": "999", "instance": "prb717", "end_time": "1.51752365669e+12", "optimal_length": "11", "subject": "A30KYQGABO7JER"}
{"rt": "30468.0", "trial_number": "0", "skipped": "False", "complete": "True", "assignment": "34HJIJKLP64Z5YMIU6IKNXSH7PDV4I", "start_time": "1.51794218981e+12", "human_length": "13", "nodes_expanded": "999", "instance": "prb717", "end_time": "1.51794222028e+12", "optimal_length": "11", "subject": "A3CTXNQ2GXIQSP"}
{"rt": "13917.0", "trial_number": "0", "skipped": "False", "complete": "True", "assignment": "3TPWUS5F8A9FFRZ2DVTYSXNJ6BWWC6", "start_time": "1.51794271126e+12", "human_length": "14", "nodes_expanded": "999", "instance": "prb717", "end_time": "1.51794272517e+12", "optimal_length": "11", "subject": "A3GXC3VG37CQ3G"}
{"rt": "0.0", "trial_number": "0", "skipped": "False", "complete": "False", "assignment": "3X87C8JFV7JQ2BSCY8KSFD9F2ILSQK", "start_time": "1.51673880922e+12", "human_length": "1", "nodes_expanded": "999", "instance": "prb717", "end_time": "1.51673880922e+12", "optimal_length": "11", "subject": "A3Q0XAGQ7TD7MP"}
{"rt": "0.0", "trial_number": "1", "skipped": "False", "complete": "False", "assignment": "3X87C8JFV7JQ2BSCY8KSFD9F2ILSQK", "start_time": "1.51673880922e+12", "human_length": "1", "nodes_expanded": "999", "instance": "prb717", "end_time": "1.51673880922e+12", "optimal_length": "11", "subject": "A3Q0XAGQ7TD7MP"}
{"rt": "25552.0", "trial_number": "2", "skipped": "False", "complete": "True", "assignment": "3X87C8JFV7JQ2BSCY8KSFD9F2ILSQK", "start_time": "1.51673880922e+12", "human_length": "13", "nodes_expanded": "999", "instance": "prb717", "end_time": "1.51673883477e+12", "optimal_length": "11", "subject": "A3Q0XAGQ7TD7MP"}
{"rt": "123545.0", "trial_number": "3", "skipped": "False", "complete": "True", "assignment": "3GLB5JMZFY3TNXFGYMKRQ0JDXNTDGZ", "start_time": "1.51794562508e+12", "human_length": "55", "nodes_expanded": "999", "instance": "prb717", "end_time": "1.51794574863e+12", "optimal_length": "11", "subject": "A3Q0XAGQ7TD7MP"}
{"rt": "25552.0", "trial_number": "0", "skipped": "False", "complete": "True", "assignment": "3X87C8JFV7JQ2BSCY8KSFD9F2ILSQK", "start_time": "1.51673880922e+12", "human_length": "13", "nodes_expanded": "999", "instance": "prb717", "end_time": "1.51673883477e+12", "optimal_length": "11", "subject": "A3Q0XAGQ7TD7MP"}
{"rt": "123545.0", "trial_number": "1", "skipped": "False", "complete": "True", "assignment": "3GLB5JMZFY3TNXFGYMKRQ0JDXNTDGZ", "start_time": "1.51794562508e+12", "human_length": "55", "nodes_expanded": "999", "instance": "prb717", "end_time": "1.51794574863e+12", "optimal_length": "11", "subject": "A3Q0XAGQ7TD7MP"}
{"rt": "15050.0", "trial_number": "0", "skipped": "True", "complete": "False", "assignment": "3M0BCWMB8W4W5M7WZVX3HDH1P53WB1", "start_time": "1.51816097693e+12", "human_length": "11", "nodes_expanded": "999", "instance": "prb717", "end_time": "1.51816099198e+12", "optimal_length": "11", "subject": "A53S7J4JGWG38"}
{"rt": "34404.0", "trial_number": "0", "skipped": "False", "complete": "False", "assignment": "3ON104KXQL4CKNMNKGNG9ZBVBAB4WI", "start_time": "1.51631409379e+12", "human_length": "13", "nodes_expanded": "999", "instance": "prb717", "end_time": "1.5163141282e+12", "optimal_length": "11", "subject": "A58QOLDFC179Q"}
{"rt": "37055.0", "trial_number": "1", "skipped": "False", "complete": "True", "assignment": "3ON104KXQL4CKNMNKGNG9ZBVBAB4WI", "start_time": "1.51631413060e+12", "human_length": "18", "nodes_expanded": "999", "instance": "prb717", "end_time": "1.51631416766e+12", "optimal_length": "11", "subject": "A58QOLDFC179Q"}
{"rt": "22670.0", "trial_number": "0", "skipped": "False", "complete": "True", "assignment": "3IXEICO793RY7TM78ZBKJDOA7ADT6Q", "start_time": "1.51816830914e+12", "human_length": "25", "nodes_expanded": "999", "instance": "prb717", "end_time": "1.51816833181e+12", "optimal_length": "11", "subject": "ALH1K6ZAQQMN7"}
{"rt": "50362.0", "trial_number": "0", "skipped": "True", "complete": "False", "assignment": "36H9ULYP6320CJJDXY0KBDEE1Z3JFB", "start_time": "1.51753394428e+12", "human_length": "26", "nodes_expanded": "999", "instance": "prb717", "end_time": "1.51753399465e+12", "optimal_length": "11", "subject": "AN098C29EGJ6"}
{"rt": "26890.0", "trial_number": "0", "skipped": "False", "complete": "True", "assignment": "3HWRJOOET6A15827PHPSLWK1MOYSEU", "start_time": "1.51814489611e+12", "human_length": "20", "nodes_expanded": "999", "instance": "prb717", "end_time": "1.518144923e+12", "optimal_length": "11", "subject": "AO1QGAUZ85T6L"}
{"rt": "15341.0", "trial_number": "0", "skipped": "False", "complete": "True", "assignment": "3AZHRG4CU5SYU12YRVPCSZALW5003R", "start_time": "1.51630730244e+12", "human_length": "17", "nodes_expanded": "999", "instance": "prb717", "end_time": "1.51630731778e+12", "optimal_length": "11", "subject": "ARWF605I7RWM7"}
{"rt": "0.0", "trial_number": "0", "skipped": "False", "complete": "False", "assignment": "3U8YCDAGXQOQ1280P618573W7RSQ0N", "start_time": "1.51674352602e+12", "human_length": "1", "nodes_expanded": "999", "instance": "prb717", "end_time": "1.51674352602e+12", "optimal_length": "11", "subject": "AWCO7MG0BHSTQ"}
{"rt": "0.0", "trial_number": "1", "skipped": "False", "complete": "False", "assignment": "3U8YCDAGXQOQ1280P618573W7RSQ0N", "start_time": "1.51674352602e+12", "human_length": "1", "nodes_expanded": "999", "instance": "prb717", "end_time": "1.51674352602e+12", "optimal_length": "11", "subject": "AWCO7MG0BHSTQ"}
{"rt": "40858.0", "trial_number": "2", "skipped": "False", "complete": "True", "assignment": "3U8YCDAGXQOQ1280P618573W7RSQ0N", "start_time": "1.51674352602e+12", "human_length": "25", "nodes_expanded": "999", "instance": "prb717", "end_time": "1.51674356688e+12", "optimal_length": "11", "subject": "AWCO7MG0BHSTQ"}
{"rt": "40858.0", "trial_number": "0", "skipped": "False", "complete": "True", "assignment": "3U8YCDAGXQOQ1280P618573W7RSQ0N", "start_time": "1.51674352602e+12", "human_length": "25", "nodes_expanded": "999", "instance": "prb717", "end_time": "1.51674356688e+12", "optimal_length": "11", "subject": "AWCO7MG0BHSTQ"}
{"rt": "55182.0", "trial_number": "0", "skipped": "False", "complete": "True", "assignment": "33PPO7FECWN7JOLBOAKUBCWTC0AIDL", "start_time": "1.51794925508e+12", "human_length": "18", "nodes_expanded": "999", "instance": "prb717", "end_time": "1.51794931026e+12", "optimal_length": "11", "subject": "AXKM02NVXNGOM"}
{"rt": "63294.0", "trial_number": "0", "skipped": "False", "complete": "True", "assignment": "3ON104KXQL4CKNMNKGNG9ZBVBAB4WI", "start_time": "1.51631181127e+12", "human_length": "32", "nodes_expanded": "999", "instance": "prb717", "end_time": "1.51631187456e+12", "optimal_length": "11", "subject": "AYPOAY43REHC8"}
