{"rt": "132979.0", "trial_number": "0", "skipped": "False", "complete": "True", "assignment": "3AZHRG4CU5SYU12YRVPCSZALW5003R", "start_time": "1.51630680778e+12", "human_length": "140", "nodes_expanded": "999", "instance": "prb78361", "end_time": "1.51630694076e+12", "optimal_length": "16", "subject": "ARWF605I7RWM7"}
{"rt": "57630.0", "trial_number": "0", "skipped": "False", "complete": "True", "assignment": "3ZV9H2YQQEFR2R3JK2IXZUJPXAF3WW", "start_time": "1.51630836328e+12", "human_length": "27", "nodes_expanded": "999", "instance": "prb78361", "end_time": "1.51630842091e+12", "optimal_length": "16", "subject": "A289D98Z4GAZ28"}
{"rt": "74213.0", "trial_number": "0", "skipped": "False", "complete": "True", "assignment": "3ON104KXQL4CKNMNKGNG9ZBVBAB4WI", "start_time": "1.5163120789e+12", "human_length": "53", "nodes_expanded": "999", "instance": "prb78361", "end_time": "1.51631215311e+12", "optimal_length": "16", "subject": "AYPOAY43REHC8"}
{"rt": "34156.0", "trial_number": "0", "skipped": "False", "complete": "True", "assignment": "3PMBY0YE28B43VMUKKJ6EDF85RV9C8", "start_time": "1.5163871165e+12", "human_length": "34", "nodes_expanded": "999", "instance": "prb78361", "end_time": "1.51638715065e+12", "optimal_length": "16", "subject": "A191V7PT3DQKDP"}
{"rt": "142957.0", "trial_number": "0", "skipped": "False", "complete": "False", "assignment": "3ZSY5X72NYJBGKFJ46SJ0Y9J0RLROB", "start_time": "1.51638750114e+12", "human_length": "75", "nodes_expanded": "999", "instance": "prb78361", "end_time": "1.5163876441e+12", "optimal_length": "16", "subject": "AU4KK3OYS2UZF"}
{"rt": "6134.0", "trial_number": "1", "skipped": "True", "complete": "False", "assignment": "3ZSY5X72NYJBGKFJ46SJ0Y9J0RLROB", "start_time": "1.51638764813e+12", "human_length": "5", "nodes_expanded": "999", "instance": "prb78361", "end_time": "1.51638765427e+12", "optimal_length": "16", "subject": "AU4KK3OYS2UZF"}
{"rt": "51529.0", "trial_number": "0", "skipped": "False", "complete": "True", "assignment": "3VBEN272ML7ZPMYYVCFGLZ5DV7CGS0", "start_time": "1.51638781221e+12", "human_length": "38", "nodes_expanded": "999", "instance": "prb78361", "end_time": "1.51638786374e+12", "optimal_length": "16", "subject": "A3VZJ2T28HAQ2A"}
{"rt": "56861.0", "trial_number": "0", "skipped": "False", "complete": "True", "assignment": "34BBWHLWHBJ6SUL255PK30LEGY5IWG", "start_time": "1.51639266105e+12", "human_length": "44", "nodes_expanded": "999", "instance": "prb78361", "end_time": "1.51639271791e+12", "optimal_length": "16", "subject": "A214HWAW1PYWO8"}
{"rt": "12290.0", "trial_number": "0", "skipped": "False", "complete": "False", "assignment": "3U84XHCDIDLGEIRSV37N835DT5LZ4W", "start_time": "1.51673590608e+12", "human_length": "3", "nodes_expanded": "999", "instance": "prb78361", "end_time": "1.51673591838e+12", "optimal_length": "16", "subject": "A12723JDRPT207"}
{"rt": "0.0", "trial_number": "1", "skipped": "False", "complete": "False", "assignment": "3U84XHCDIDLGEIRSV37N835DT5LZ4W", "start_time": "1.51673593509e+12", "human_length": "1", "nodes_expanded": "999", "instance": "prb78361", "end_time": "1.51673593509e+12", "optimal_length": "16", "subject": "A12723JDRPT207"}
{"rt": "0.0", "trial_number": "2", "skipped": "False", "complete": "False", "assignment": "3U84XHCDIDLGEIRSV37N835DT5LZ4W", "start_time": "1.51673590608e+12", "human_length": "1", "nodes_expanded": "999", "instance": "prb78361", "end_time": "1.51673590608e+12", "optimal_length": "16", "subject": "A12723JDRPT207"}
{"rt": "0.0", "trial_number": "3", "skipped": "False", "complete": "False", "assignment": "3U84XHCDIDLGEIRSV37N835DT5LZ4W", "start_time": "1.51673593509e+12", "human_length": "1", "nodes_expanded": "999", "instance": "prb78361", "end_time": "1.51673593509e+12", "optimal_length": "16", "subject": "A12723JDRPT207"}
{"rt": "0.0", "trial_number": "4", "skipped": "False", "complete": "False", "assignment": "3U84XHCDIDLGEIRSV37N835DT5LZ4W", "start_time": "1.51673590608e+12", "human_length": "1", "nodes_expanded": "999", "instance": "prb78361", "end_time": "1.51673590608e+12", "optimal_length": "16", "subject": "A12723JDRPT207"}
{"rt": "20071.0", "trial_number": "5", "skipped": "True", "complete": "False", "assignment": "3U84XHCDIDLGEIRSV37N835DT5LZ4W", "start_time": "1.51673593509e+12", "human_length": "40", "nodes_expanded": "999", "instance": "prb78361", "end_time": "1.51673595516e+12", "optimal_length": "16", "subject": "A12723JDRPT207"}
{"rt": "0.0", "trial_number": "0", "skipped": "False", "complete": "False", "assignment": "3X87C8JFV7JQ2BSCY8KSFD9F2ILSQK", "start_time": "1.51673763662e+12", "human_length": "1", "nodes_expanded": "999", "instance": "prb78361", "end_time": "1.51673763662e+12", "optimal_length": "16", "subject": "A3Q0XAGQ7TD7MP"}
{"rt": "0.0", "trial_number": "1", "skipped": "False", "complete": "False", "assignment": "3X87C8JFV7JQ2BSCY8KSFD9F2ILSQK", "start_time": "1.51673763662e+12", "human_length": "1", "nodes_expanded": "999", "instance": "prb78361", "end_time": "1.51673763662e+12", "optimal_length": "16", "subject": "A3Q0XAGQ7TD7MP"}
{"rt": "51863.0", "trial_number": "2", "skipped": "False", "complete": "True", "assignment": "3X87C8JFV7JQ2BSCY8KSFD9F2ILSQK", "start_time": "1.51673763662e+12", "human_length": "20", "nodes_expanded": "999", "instance": "prb78361", "end_time": "1.51673768849e+12", "optimal_length": "16", "subject": "A3Q0XAGQ7TD7MP"}
{"rt": "42892.0", "trial_number": "3", "skipped": "False", "complete": "True", "assignment": "3GLB5JMZFY3TNXFGYMKRQ0JDXNTDGZ", "start_time": "1.51794677456e+12", "human_length": "23", "nodes_expanded": "999", "instance": "prb78361", "end_time": "1.51794681746e+12", "optimal_length": "16", "subject": "A3Q0XAGQ7TD7MP"}
{"rt": "0.0", "trial_number": "0", "skipped": "False", "complete": "False", "assignment": "3WSELTNVR4AZUVYAYCSWZIQW0J4ATB", "start_time": "1.51674015009e+12", "human_length": "1", "nodes_expanded": "999", "instance": "prb78361", "end_time": "1.51674015009e+12", "optimal_length": "16", "subject": "A2TQNX64349OZ9"}
{"rt": "0.0", "trial_number": "1", "skipped": "False", "complete": "False", "assignment": "3WSELTNVR4AZUVYAYCSWZIQW0J4ATB", "start_time": "1.51674015009e+12", "human_length": "1", "nodes_expanded": "999", "instance": "prb78361", "end_time": "1.51674015009e+12", "optimal_length": "16", "subject": "A2TQNX64349OZ9"}
{"rt": "32146.0", "trial_number": "2", "skipped": "True", "complete": "False", "assignment": "3WSELTNVR4AZUVYAYCSWZIQW0J4ATB", "start_time": "1.51674015009e+12", "human_length": "68", "nodes_expanded": "999", "instance": "prb78361", "end_time": "1.51674018223e+12", "optimal_length": "16", "subject": "A2TQNX64349OZ9"}
{"rt": "0.0", "trial_number": "0", "skipped": "False", "complete": "False", "assignment": "3IJXV6UZ1YR1KY4G6BFEG1DXP7SRI1", "start_time": "1.51675059891e+12", "human_length": "1", "nodes_expanded": "999", "instance": "prb78361", "end_time": "1.51675059891e+12", "optimal_length": "16", "subject": "A2RTJ6BDY0DZVZ"}
{"rt": "0.0", "trial_number": "1", "skipped": "False", "complete": "False", "assignment": "3IJXV6UZ1YR1KY4G6BFEG1DXP7SRI1", "start_time": "1.51675059891e+12", "human_length": "1", "nodes_expanded": "999", "instance": "prb78361", "end_time": "1.51675059891e+12", "optimal_length": "16", "subject": "A2RTJ6BDY0DZVZ"}
{"rt": "31475.0", "trial_number": "2", "skipped": "False", "complete": "True", "assignment": "3IJXV6UZ1YR1KY4G6BFEG1DXP7SRI1", "start_time": "1.51675059891e+12", "human_length": "20", "nodes_expanded": "999", "instance": "prb78361", "end_time": "1.51675063039e+12", "optimal_length": "16", "subject": "A2RTJ6BDY0DZVZ"}
{"rt": "0.0", "trial_number": "0", "skipped": "False", "complete": "False", "assignment": "3I2PTA7R3U2SESF4TZBQORI5LSJQKK", "start_time": "1.51675919862e+12", "human_length": "1", "nodes_expanded": "999", "instance": "prb78361", "end_time": "1.51675919862e+12", "optimal_length": "16", "subject": "A3NMQ3019X6YE0"}
{"rt": "0.0", "trial_number": "1", "skipped": "False", "complete": "False", "assignment": "3I2PTA7R3U2SESF4TZBQORI5LSJQKK", "start_time": "1.51675919862e+12", "human_length": "1", "nodes_expanded": "999", "instance": "prb78361", "end_time": "1.51675919862e+12", "optimal_length": "16", "subject": "A3NMQ3019X6YE0"}
{"rt": "224433.0", "trial_number": "2", "skipped": "False", "complete": "True", "assignment": "3I2PTA7R3U2SESF4TZBQORI5LSJQKK", "start_time": "1.51675919862e+12", "human_length": "86", "nodes_expanded": "999", "instance": "prb78361", "end_time": "1.51675942305e+12", "optimal_length": "16", "subject": "A3NMQ3019X6YE0"}
{"rt": "0.0", "trial_number": "0", "skipped": "False", "complete": "False", "assignment": "3X4MXAO0BHWJLTOLVSJTHSM54OHWRG", "start_time": "1.51682449752e+12", "human_length": "1", "nodes_expanded": "999", "instance": "prb78361", "end_time": "1.51682449752e+12", "optimal_length": "16", "subject": "A2IBQA01NR5N76"}
{"rt": "85214.0", "trial_number": "1", "skipped": "False", "complete": "True", "assignment": "3X4MXAO0BHWJLTOLVSJTHSM54OHWRG", "start_time": "1.51682449752e+12", "human_length": "74", "nodes_expanded": "999", "instance": "prb78361", "end_time": "1.51682458273e+12", "optimal_length": "16", "subject": "A2IBQA01NR5N76"}
{"rt": "0.0", "trial_number": "0", "skipped": "False", "complete": "False", "assignment": "3IHR8NYAM89M0EPM8U9LH53ZJDTP4U", "start_time": "1.51682630922e+12", "human_length": "1", "nodes_expanded": "999", "instance": "prb78361", "end_time": "1.51682630922e+12", "optimal_length": "16", "subject": "A23437BMZ5T1FH"}
{"rt": "49150.0", "trial_number": "1", "skipped": "True", "complete": "False", "assignment": "3IHR8NYAM89M0EPM8U9LH53ZJDTP4U", "start_time": "1.51682630922e+12", "human_length": "87", "nodes_expanded": "999", "instance": "prb78361", "end_time": "1.51682635837e+12", "optimal_length": "16", "subject": "A23437BMZ5T1FH"}
{"rt": "18414.0", "trial_number": "0", "skipped": "False", "complete": "True", "assignment": "3YW4XOSQKRTI0K0Z2YPDTDJVFABU1I", "start_time": "1.51683204944e+12", "human_length": "19", "nodes_expanded": "999", "instance": "prb78361", "end_time": "1.51683206785e+12", "optimal_length": "16", "subject": "A1LR0VQIHQUJAM"}
{"rt": "12290.0", "trial_number": "0", "skipped": "False", "complete": "False", "assignment": "3U84XHCDIDLGEIRSV37N835DT5LZ4W", "start_time": "1.51673590608e+12", "human_length": "3", "nodes_expanded": "999", "instance": "prb78361", "end_time": "1.51673591838e+12", "optimal_length": "16", "subject": "A12723JDRPT207"}
{"rt": "20071.0", "trial_number": "1", "skipped": "True", "complete": "False", "assignment": "3U84XHCDIDLGEIRSV37N835DT5LZ4W", "start_time": "1.51673593509e+12", "human_length": "14", "nodes_expanded": "999", "instance": "prb78361", "end_time": "1.51673595516e+12", "optimal_length": "16", "subject": "A12723JDRPT207"}
{"rt": "51863.0", "trial_number": "0", "skipped": "False", "complete": "True", "assignment": "3X87C8JFV7JQ2BSCY8KSFD9F2ILSQK", "start_time": "1.51673763662e+12", "human_length": "20", "nodes_expanded": "999", "instance": "prb78361", "end_time": "1.51673768849e+12", "optimal_length": "16", "subject": "A3Q0XAGQ7TD7MP"}
{"rt": "42892.0", "trial_number": "1", "skipped": "False", "complete": "True", "assignment": "3GLB5JMZFY3TNXFGYMKRQ0JDXNTDGZ", "start_time": "1.51794677456e+12", "human_length": "23", "nodes_expanded": "999", "instance": "prb78361", "end_time": "1.51794681746e+12", "optimal_length": "16", "subject": "A3Q0XAGQ7TD7MP"}
{"rt": "33584.0", "trial_number": "0", "skipped": "True", "complete": "False", "assignment": "3WSELTNVR4AZUVYAYCSWZIQW0J4ATB", "start_time": "1.51674015009e+12", "human_length": "24", "nodes_expanded": "999", "instance": "prb78361", "end_time": "1.51674018367e+12", "optimal_length": "16", "subject": "A2TQNX64349OZ9"}
{"rt": "31475.0", "trial_number": "0", "skipped": "False", "complete": "True", "assignment": "3IJXV6UZ1YR1KY4G6BFEG1DXP7SRI1", "start_time": "1.51675059891e+12", "human_length": "20", "nodes_expanded": "999", "instance": "prb78361", "end_time": "1.51675063039e+12", "optimal_length": "16", "subject": "A2RTJ6BDY0DZVZ"}
{"rt": "224433.0", "trial_number": "0", "skipped": "False", "complete": "True", "assignment": "3I2PTA7R3U2SESF4TZBQORI5LSJQKK", "start_time": "1.51675919862e+12", "human_length": "86", "nodes_expanded": "999", "instance": "prb78361", "end_time": "1.51675942305e+12", "optimal_length": "16", "subject": "A3NMQ3019X6YE0"}
{"rt": "99826.0", "trial_number": "0", "skipped": "False", "complete": "True", "assignment": "3TS1AR6UQRM7SOIBWPBN8N9589Y7FV", "start_time": "1.51683883757e+12", "human_length": "57", "nodes_expanded": "999", "instance": "prb78361", "end_time": "1.5168389374e+12", "optimal_length": "16", "subject": "A1F4N58CAX8IMK"}
{"rt": "47455.0", "trial_number": "1", "skipped": "True", "complete": "False", "assignment": "35DR22AR5ES6RR89U7EJ1DXW91AX3P", "start_time": "1.51795437093e+12", "human_length": "43", "nodes_expanded": "999", "instance": "prb78361", "end_time": "1.51795441838e+12", "optimal_length": "16", "subject": "A1F4N58CAX8IMK"}
{"rt": "45764.0", "trial_number": "0", "skipped": "True", "complete": "False", "assignment": "31LM9EDVOM0C0BWUVMJXJINN3QPJNI", "start_time": "1.51752424002e+12", "human_length": "28", "nodes_expanded": "999", "instance": "prb78361", "end_time": "1.51752428579e+12", "optimal_length": "16", "subject": "A1NT8BT94ME6F5"}
{"rt": "55648.0", "trial_number": "0", "skipped": "False", "complete": "True", "assignment": "37TD41K0AIHM8AITTQJXV8KY05QCSB", "start_time": "1.51752276851e+12", "human_length": "28", "nodes_expanded": "999", "instance": "prb78361", "end_time": "1.51752282416e+12", "optimal_length": "16", "subject": "A30KYQGABO7JER"}
{"rt": "48466.0", "trial_number": "0", "skipped": "False", "complete": "True", "assignment": "3TYCR1GOTDRCCQYD1V64UK7OHTBZLQ", "start_time": "1.51753589291e+12", "human_length": "43", "nodes_expanded": "999", "instance": "prb78361", "end_time": "1.51753594137e+12", "optimal_length": "16", "subject": "A13BZCNJ0WR1T7"}
{"rt": "75567.0", "trial_number": "0", "skipped": "False", "complete": "False", "assignment": "3H0W84IWBLAP4T2UASPNVMF5ZH7ER9", "start_time": "1.51755279508e+12", "human_length": "6", "nodes_expanded": "999", "instance": "prb78361", "end_time": "1.51755287065e+12", "optimal_length": "16", "subject": "A1AKX1C8GCVCTP"}
{"rt": "12356.0", "trial_number": "1", "skipped": "False", "complete": "False", "assignment": "3H0W84IWBLAP4T2UASPNVMF5ZH7ER9", "start_time": "1.51755287294e+12", "human_length": "5", "nodes_expanded": "999", "instance": "prb78361", "end_time": "1.5175528853e+12", "optimal_length": "16", "subject": "A1AKX1C8GCVCTP"}
{"rt": "27759.0", "trial_number": "2", "skipped": "False", "complete": "True", "assignment": "3H0W84IWBLAP4T2UASPNVMF5ZH7ER9", "start_time": "1.51755288804e+12", "human_length": "19", "nodes_expanded": "999", "instance": "prb78361", "end_time": "1.51755291579e+12", "optimal_length": "16", "subject": "A1AKX1C8GCVCTP"}
{"rt": "48371.0", "trial_number": "0", "skipped": "False", "complete": "False", "assignment": "30IQTZXKALEAAZ9CBKW0ZFZP6O5X07", "start_time": "1.51793939238e+12", "human_length": "12", "nodes_expanded": "999", "instance": "prb78361", "end_time": "1.51793944075e+12", "optimal_length": "16", "subject": "A10YS8AVLQWUZZ"}
{"rt": "41683.0", "trial_number": "1", "skipped": "False", "complete": "True", "assignment": "30IQTZXKALEAAZ9CBKW0ZFZP6O5X07", "start_time": "1.51793944288e+12", "human_length": "17", "nodes_expanded": "999", "instance": "prb78361", "end_time": "1.51793948456e+12", "optimal_length": "16", "subject": "A10YS8AVLQWUZZ"}
{"rt": "24811.0", "trial_number": "0", "skipped": "False", "complete": "True", "assignment": "3TPWUS5F8A9FFRZ2DVTYSXNJ6BWWC6", "start_time": "1.51794169371e+12", "human_length": "19", "nodes_expanded": "999", "instance": "prb78361", "end_time": "1.51794171852e+12", "optimal_length": "16", "subject": "A3GXC3VG37CQ3G"}
{"rt": "34165.0", "trial_number": "0", "skipped": "False", "complete": "False", "assignment": "3IAS3U3I0GOAT69PLB8WT61CKJ22BO", "start_time": "1.51793926884e+12", "human_length": "15", "nodes_expanded": "999", "instance": "prb78361", "end_time": "1.517939303e+12", "optimal_length": "16", "subject": "A2C84POENS2UNY"}
{"rt": "69281.0", "trial_number": "1", "skipped": "True", "complete": "False", "assignment": "3IAS3U3I0GOAT69PLB8WT61CKJ22BO", "start_time": "1.51793930878e+12", "human_length": "41", "nodes_expanded": "999", "instance": "prb78361", "end_time": "1.51793937806e+12", "optimal_length": "16", "subject": "A2C84POENS2UNY"}
{"rt": "79802.0", "trial_number": "0", "skipped": "False", "complete": "True", "assignment": "34HJIJKLP64Z5YMIU6IKNXSH7PDV4I", "start_time": "1.51794347107e+12", "human_length": "47", "nodes_expanded": "999", "instance": "prb78361", "end_time": "1.51794355087e+12", "optimal_length": "16", "subject": "A3CTXNQ2GXIQSP"}
{"rt": "170714.0", "trial_number": "0", "skipped": "False", "complete": "True", "assignment": "3TXD01ZLD5PZSJXIPG8FRBQYTI9U4X", "start_time": "1.51794428882e+12", "human_length": "64", "nodes_expanded": "999", "instance": "prb78361", "end_time": "1.51794445953e+12", "optimal_length": "16", "subject": "A3BPRPN10HJD4B"}
{"rt": "19517.0", "trial_number": "0", "skipped": "True", "complete": "False", "assignment": "3IAS3U3I0GOAT69PLB8WT61CKJ22BO", "start_time": "1.51794205005e+12", "human_length": "11", "nodes_expanded": "999", "instance": "prb78361", "end_time": "1.51794206957e+12", "optimal_length": "16", "subject": "ATSZCAVI441RM"}
{"rt": "28344.0", "trial_number": "0", "skipped": "False", "complete": "True", "assignment": "30IQTZXKALEAAZ9CBKW0ZFZP6O5X07", "start_time": "1.51794666442e+12", "human_length": "23", "nodes_expanded": "999", "instance": "prb78361", "end_time": "1.51794669276e+12", "optimal_length": "16", "subject": "A23XJ8I86R0O3B"}
{"rt": "50791.0", "trial_number": "0", "skipped": "False", "complete": "True", "assignment": "33PPO7FECWN7JOLBOAKUBCWTC0AIDL", "start_time": "1.51795045087e+12", "human_length": "22", "nodes_expanded": "999", "instance": "prb78361", "end_time": "1.51795050166e+12", "optimal_length": "16", "subject": "AXKM02NVXNGOM"}
{"rt": "40837.0", "trial_number": "0", "skipped": "False", "complete": "True", "assignment": "3R5F3LQFV3SKIB1AENMWM1BICT5OZB", "start_time": "1.51796047151e+12", "human_length": "40", "nodes_expanded": "999", "instance": "prb78361", "end_time": "1.51796051235e+12", "optimal_length": "16", "subject": "A1N1EF0MIRSEZZ"}
{"rt": "113643.0", "trial_number": "0", "skipped": "True", "complete": "False", "assignment": "33F859I567LE8WC74WB3GA7E94XBHW", "start_time": "1.51796940596e+12", "human_length": "66", "nodes_expanded": "999", "instance": "prb78361", "end_time": "1.51796951961e+12", "optimal_length": "16", "subject": "A1GQS6USF2JEYG"}
{"rt": "101814.0", "trial_number": "0", "skipped": "False", "complete": "True", "assignment": "3IJXV6UZ1YR1KY4G6BFEG1DXR47RIC", "start_time": "1.51797274606e+12", "human_length": "80", "nodes_expanded": "999", "instance": "prb78361", "end_time": "1.51797284787e+12", "optimal_length": "16", "subject": "A18T3WK7J16C1B"}
{"rt": "21625.0", "trial_number": "0", "skipped": "False", "complete": "True", "assignment": "3FTF2T8WLSQDHTSZ1BJ7Q7MB14SW9H", "start_time": "1.51813674227e+12", "human_length": "20", "nodes_expanded": "999", "instance": "prb78361", "end_time": "1.5181367639e+12", "optimal_length": "16", "subject": "A1IUH9D7N69VS"}
{"rt": "17370.0", "trial_number": "0", "skipped": "True", "complete": "False", "assignment": "3TAYZSBPLMG9ASQRWXURJVBCPLN2SH", "start_time": "1.51813803964e+12", "human_length": "9", "nodes_expanded": "999", "instance": "prb78361", "end_time": "1.51813805702e+12", "optimal_length": "16", "subject": "A2RCYLKY072XXO"}
{"rt": "62386.0", "trial_number": "0", "skipped": "False", "complete": "True", "assignment": "3ZSANO2JCGFTBM23KS9Y3E51YP4FSQ", "start_time": "1.51814283182e+12", "human_length": "48", "nodes_expanded": "999", "instance": "prb78361", "end_time": "1.51814289421e+12", "optimal_length": "16", "subject": "A1F42D4L22K5ND"}
{"rt": "79129.0", "trial_number": "0", "skipped": "False", "complete": "True", "assignment": "3XLBSAQ9Z5KDX59BX15UBFPNNHYZ7Q", "start_time": "1.5181453879e+12", "human_length": "56", "nodes_expanded": "999", "instance": "prb78361", "end_time": "1.51814546703e+12", "optimal_length": "16", "subject": "A1HFNOKU591WCY"}
{"rt": "205896.0", "trial_number": "0", "skipped": "False", "complete": "True", "assignment": "3EWIJTFFVPF14ZIVGF68BQEIRXP0ER", "start_time": "1.51814776117e+12", "human_length": "86", "nodes_expanded": "999", "instance": "prb78361", "end_time": "1.51814796707e+12", "optimal_length": "16", "subject": "A30AGR5KF8IEL"}
{"rt": "155312.0", "trial_number": "0", "skipped": "False", "complete": "True", "assignment": "3FUI0JHJPY6UBT1VAI7VUX8S3KH33W", "start_time": "1.51815258808e+12", "human_length": "97", "nodes_expanded": "999", "instance": "prb78361", "end_time": "1.51815274339e+12", "optimal_length": "16", "subject": "A2QIZ31TMHU0GD"}
{"rt": "31255.0", "trial_number": "0", "skipped": "False", "complete": "False", "assignment": "3M0BCWMB8W4W5M7WZVX3HDH1P53WB1", "start_time": "1.51815864755e+12", "human_length": "17", "nodes_expanded": "999", "instance": "prb78361", "end_time": "1.51815867881e+12", "optimal_length": "16", "subject": "A53S7J4JGWG38"}
{"rt": "13569.0", "trial_number": "1", "skipped": "False", "complete": "False", "assignment": "3M0BCWMB8W4W5M7WZVX3HDH1P53WB1", "start_time": "1.51815868133e+12", "human_length": "9", "nodes_expanded": "999", "instance": "prb78361", "end_time": "1.5181586949e+12", "optimal_length": "16", "subject": "A53S7J4JGWG38"}
{"rt": "23776.0", "trial_number": "2", "skipped": "False", "complete": "True", "assignment": "3M0BCWMB8W4W5M7WZVX3HDH1P53WB1", "start_time": "1.51815869781e+12", "human_length": "17", "nodes_expanded": "999", "instance": "prb78361", "end_time": "1.51815872159e+12", "optimal_length": "16", "subject": "A53S7J4JGWG38"}
{"rt": "61138.0", "trial_number": "0", "skipped": "True", "complete": "False", "assignment": "3SITXWYCNWHBUMCM90TPJWV8Y7AXBW", "start_time": "1.51816597855e+12", "human_length": "29", "nodes_expanded": "999", "instance": "prb78361", "end_time": "1.51816603969e+12", "optimal_length": "16", "subject": "A28RX7L0QZ993M"}
{"rt": "22168.0", "trial_number": "0", "skipped": "False", "complete": "True", "assignment": "3IXEICO793RY7TM78ZBKJDOA7ADT6Q", "start_time": "1.51816804622e+12", "human_length": "19", "nodes_expanded": "999", "instance": "prb78361", "end_time": "1.51816806839e+12", "optimal_length": "16", "subject": "ALH1K6ZAQQMN7"}
